sep=,
DeviceTag:,A,,,,,,,,,,,,,,,,,
FirmwareVersion:,2.2.1,,,,,,,,,,,,,,,,,
AppVersion:,2023.6.1,,,,,,,,,,,,,,,,,
SyncStatus:,Synced,,,,,,,,,,,,,,,,,
OutputRate:,60Hz,,,,,,,,,,,,,,,,,
FilterProfile:,General,,,,,,,,,,,,,,,,,
Measurement Mode:,Inertial Mode - Rate quantities (with mag),,,,,,,,,,,,,,,,,
StartTime:,2023-12-07 13:34:35.776 +0200,,,,,,,,,,,,,,,,,
 2023,,,,,,,,,,,,,,,,,,,

PacketCounter,SampleTimeFine,Acc_X,Acc_Y,Acc_Z,Gyr_X,Gyr_Y,Gyr_Z,Mag_X,Mag_Y,Mag_Z
1, 4114444114, -6.792577743530273, -0.8318723440170288, 7.148052215576172, -2.3968236446380615, -1.243970274925232, -2.1970701217651367, 1.119873046875, -0.408203125, 0.057861328125
2, 4114460781, -6.800152778625488, -0.8345311284065247, 7.131518840789795, -2.296306610107422, -1.3654770851135254, -2.193164348602295, 1.117919921875, -0.4111328125, 0.055419921875
3, 4114477448, -6.790289878845215, -0.8279558420181274, 7.162008762359619, -2.25850248336792, -1.4391777515411377, -2.1095516681671143, 1.1201171875, -0.4130859375, 0.055419921875
4, 4114494115, -6.7856645584106445, -0.8339497447013855, 7.14824104309082, -2.219865322113037, -1.5577259063720703, -2.2079169750213623, 1.118896484375, -0.4111328125, 0.056396484375
5, 4114510782, -6.799092769622803, -0.826475977897644, 7.142664432525635, -2.4078593254089355, -1.557235598564148, -2.3131489753723145, 1.119384765625, -0.41162109375, 0.055908203125
6, 4114527449, -6.799568176269531, -0.8378668427467346, 7.14931058883667, -2.309279680252075, -1.5898572206497192, -2.3197295665740967, 1.119873046875, -0.40966796875, 0.056396484375
7, 4114544116, -6.797091960906982, -0.8447439670562744, 7.151489734649658, -2.279684066772461, -1.6401093006134033, -2.2441976070404053, 1.117919921875, -0.413818359375, 0.056884765625
8, 4114560783, -6.789234638214111, -0.8472083210945129, 7.1438307762146, -2.2387804985046387, -1.7322636842727661, -2.2812461853027344, 1.118896484375, -0.40966796875, 0.055908203125
9, 4114577450, -6.796692848205566, -0.8297551274299622, 7.135985374450684, -2.3241734504699707, -1.5458163022994995, -2.2380123138427734, 1.1201171875, -0.412109375, 0.05859375
10, 4114594117, -6.797569751739502, -0.82044517993927, 7.161001205444336, -2.4025609493255615, -1.5085240602493286, -2.325927734375, 1.117919921875, -0.40966796875, 0.055419921875
11, 4114610784, -6.788756370544434, -0.8319711089134216, 7.148571968078613, -2.5041794776916504, -1.3997725248336792, -2.3991801738739014, 1.119873046875, -0.40966796875, 0.057373046875
12, 4114627451, -6.795116424560547, -0.8262678384780884, 7.139302730560303, -2.531956195831299, -1.4385244846343994, -2.4243574142456055, 1.120361328125, -0.41064453125, 0.057373046875
13, 4114644118, -6.800598621368408, -0.8459798097610474, 7.144455432891846, -2.5831687450408936, -1.4517918825149536, -2.5522031784057617, 1.119384765625, -0.412109375, 0.056396484375
14, 4114660785, -6.7890944480896, -0.8525146842002869, 7.131766319274902, -2.590520143508911, -1.5053224563598633, -2.3982839584350586, 1.119384765625, -0.412109375, 0.056396484375
15, 4114677452, -6.787065505981445, -0.8412558436393738, 7.143145561218262, -2.5260653495788574, -1.396686315536499, -2.3193070888519287, 1.119873046875, -0.41064453125, 0.056396484375
16, 4114694119, -6.793093681335449, -0.8581238985061646, 7.125670433044434, -2.3404886722564697, -1.5404374599456787, -2.3743741512298584, 1.12060546875, -0.4111328125, 0.056396484375
17, 4114710786, -6.791234016418457, -0.8397969007492065, 7.1505303382873535, -2.4440536499023438, -1.4639835357666016, -2.3486077785491943, 1.118408203125, -0.41162109375, 0.057861328125
18, 4114727453, -6.782017230987549, -0.8310382962226868, 7.137699604034424, -2.414278745651245, -1.4404839277267456, -2.3634631633758545, 1.118408203125, -0.40966796875, 0.056396484375
19, 4114744120, -6.782940864562988, -0.8343257308006287, 7.130259037017822, -2.438918113708496, -1.3214999437332153, -2.3901257514953613, 1.118408203125, -0.40869140625, 0.055419921875
20, 4114760787, -6.793405055999756, -0.8453476428985596, 7.143827438354492, -2.478233575820923, -1.2425744533538818, -2.376832962036133, 1.118408203125, -0.4111328125, 0.05810546875
21, 4114777454, -6.801023006439209, -0.839239239692688, 7.132456302642822, -2.42387056350708, -1.3191564083099365, -2.3044257164001465, 1.118896484375, -0.40966796875, 0.057373046875
22, 4114794121, -6.785400390625, -0.8503933548927307, 7.1228203773498535, -2.328143358230591, -1.4919015169143677, -2.2688498497009277, 1.120361328125, -0.40966796875, 0.056884765625
23, 4114810788, -6.793435573577881, -0.8213493824005127, 7.128226280212402, -2.3303332328796387, -1.598924160003662, -2.2314040660858154, 1.117919921875, -0.4091796875, 0.057373046875
24, 4114827455, -6.794841766357422, -0.8430674076080322, 7.129806041717529, -2.2828211784362793, -1.5563939809799194, -2.144423007965088, 1.118408203125, -0.412109375, 0.056884765625
25, 4114844122, -6.792607307434082, -0.8459036946296692, 7.13154411315918, -2.2859206199645996, -1.6743919849395752, -2.203179121017456, 1.118896484375, -0.4111328125, 0.05810546875
26, 4114860789, -6.788621425628662, -0.8564935922622681, 7.142306804656982, -2.2955894470214844, -1.690361499786377, -2.114238739013672, 1.118408203125, -0.41064453125, 0.054443359375
27, 4114877456, -6.785833835601807, -0.8488079905509949, 7.126542568206787, -2.1389293670654297, -1.700376033782959, -2.0615408420562744, 1.119384765625, -0.412109375, 0.0576171875
28, 4114894123, -6.780909061431885, -0.8380213379859924, 7.146402835845947, -2.260781764984131, -1.5407062768936157, -2.130810022354126, 1.119384765625, -0.41259765625, 0.05810546875
29, 4114910790, -6.7967329025268555, -0.844940721988678, 7.126064300537109, -2.281489849090576, -1.4572346210479736, -2.0745904445648193, 1.118408203125, -0.41015625, 0.055419921875
30, 4114927457, -6.798608779907227, -0.8465560078620911, 7.142345428466797, -2.186786651611328, -1.6264578104019165, -1.977543830871582, 1.118408203125, -0.41015625, 0.056884765625
31, 4114944124, -6.796904563903809, -0.8343614935874939, 7.154358863830566, -2.0829014778137207, -1.5919702053070068, -1.8442937135696411, 1.118408203125, -0.412109375, 0.055419921875
32, 4114960791, -6.796592712402344, -0.8193695545196533, 7.1197357177734375, -2.086090087890625, -1.717651605606079, -1.9115780591964722, 1.119384765625, -0.41064453125, 0.05908203125
33, 4114977458, -6.805346965789795, -0.8220138549804688, 7.150811195373535, -2.10892391204834, -1.6745070219039917, -1.9369093179702759, 1.118408203125, -0.4091796875, 0.054931640625
34, 4114994125, -6.801426887512207, -0.8290932774543762, 7.139354705810547, -2.2463362216949463, -1.7119911909103394, -2.0313687324523926, 1.118896484375, -0.41357421875, 0.05908203125
35, 4115010792, -6.795956134796143, -0.8105521202087402, 7.141297340393066, -2.2526628971099854, -1.6335525512695312, -2.031317710876465, 1.117431640625, -0.41064453125, 0.055908203125
36, 4115027459, -6.8002166748046875, -0.8226268887519836, 7.143907070159912, -2.281489849090576, -1.8391584157943726, -2.0621681213378906, 1.117919921875, -0.41162109375, 0.057861328125
37, 4115044126, -6.808075904846191, -0.8144340515136719, 7.121531963348389, -2.2500181198120117, -1.7697160243988037, -2.126769781112671, 1.117919921875, -0.4111328125, 0.056396484375
38, 4115060793, -6.789968967437744, -0.8438168168067932, 7.129580974578857, -2.199913263320923, -1.8862859010696411, -2.1918962001800537, 1.11962890625, -0.41259765625, 0.056396484375
39, 4115077460, -6.779058456420898, -0.822706937789917, 7.143007755279541, -2.255211353302002, -1.855217456817627, -2.1429250240325928, 1.116943359375, -0.412109375, 0.057373046875
40, 4115094127, -6.785339832305908, -0.8314998745918274, 7.138442516326904, -2.2584381103515625, -1.6048020124435425, -2.1552956104278564, 1.116943359375, -0.41162109375, 0.055908203125
41, 4115110794, -6.771668910980225, -0.8351202607154846, 7.138349533081055, -2.203251361846924, -1.7006834745407104, -1.999758005142212, 1.119384765625, -0.41064453125, 0.055908203125
42, 4115127461, -6.784534931182861, -0.8327245116233826, 7.141741752624512, -2.155679941177368, -1.8187192678451538, -2.0700438022613525, 1.1201171875, -0.41259765625, 0.0576171875
43, 4115144128, -6.787895679473877, -0.8205156326293945, 7.159215927124023, -2.123753547668457, -1.7153592109680176, -2.0189592838287354, 1.118408203125, -0.41064453125, 0.056884765625
44, 4115160795, -6.796037197113037, -0.8399980664253235, 7.153129577636719, -2.186159133911133, -1.748348355293274, -2.1088216304779053, 1.118408203125, -0.41162109375, 0.056884765625
45, 4115177462, -6.794931888580322, -0.8329719305038452, 7.137853145599365, -2.127096176147461, -1.8327550888061523, -2.0207650661468506, 1.119873046875, -0.41064453125, 0.056884765625
46, 4115194129, -6.788847923278809, -0.8254543542861938, 7.159145832061768, -2.050091505050659, -1.8609930276870728, -2.074410915374756, 1.118408203125, -0.41259765625, 0.054931640625
47, 4115210796, -6.789675235748291, -0.8131429553031921, 7.164944648742676, -2.1189773082733154, -1.7990360260009766, -2.11444354057312, 1.119873046875, -0.41162109375, 0.054443359375
48, 4115227463, -6.780799865722656, -0.8146622776985168, 7.147461414337158, -2.277186632156372, -1.6736106872558594, -2.215869903564453, 1.119384765625, -0.412109375, 0.054931640625
49, 4115244130, -6.784770488739014, -0.8111144304275513, 7.1760430335998535, -2.3860151767730713, -1.471910834312439, -2.337350845336914, 1.117431640625, -0.4130859375, 0.054931640625
50, 4115260797, -6.782779216766357, -0.8345211744308472, 7.145076751708984, -2.421334981918335, -1.660919427871704, -2.331754207611084, 1.119873046875, -0.412109375, 0.0576171875
51, 4115277464, -6.786288261413574, -0.8493012189865112, 7.147512435913086, -2.3325870037078857, -1.8203203678131104, -2.160700559616089, 1.118408203125, -0.41162109375, 0.057373046875
52, 4115294131, -6.78185510635376, -0.826665997505188, 7.151337623596191, -2.286189556121826, -1.9082870483398438, -2.176567316055298, 1.119384765625, -0.41357421875, 0.055908203125
53, 4115310798, -6.778188228607178, -0.8144103288650513, 7.168588161468506, -2.367445945739746, -1.6619441509246826, -2.218008518218994, 1.118896484375, -0.41064453125, 0.053955078125
54, 4115327465, -6.78609037399292, -0.8093080520629883, 7.15875768661499, -2.570887804031372, -1.4532389640808105, -2.3411545753479004, 1.118896484375, -0.41357421875, 0.054443359375
55, 4115344132, -6.781222820281982, -0.8266659379005432, 7.147830009460449, -2.5488476753234863, -1.3895785808563232, -2.368880033493042, 1.118896484375, -0.41162109375, 0.054931640625
56, 4115360799, -6.788159370422363, -0.8318526148796082, 7.126011371612549, -2.462661027908325, -1.367602825164795, -2.275944232940674, 1.11962890625, -0.4130859375, 0.055908203125
57, 4115377466, -6.789112091064453, -0.8468734622001648, 7.143133640289307, -2.3367743492126465, -1.390346884727478, -2.166116952896118, 1.117431640625, -0.41162109375, 0.057373046875
58, 4115394133, -6.791880130767822, -0.833927571773529, 7.149395942687988, -2.288238763809204, -1.537786602973938, -2.059030771255493, 1.117919921875, -0.41259765625, 0.055908203125
59, 4115410800, -6.7830424308776855, -0.8291857242584229, 7.15214204788208, -2.321317672729492, -1.507307529449463, -2.0707995891571045, 1.119140625, -0.414306640625, 0.056396484375
60, 4115427467, -6.7897467613220215, -0.8081105947494507, 7.156033515930176, -2.4675145149230957, -1.207869291305542, -2.069429397583008, 1.115966796875, -0.41259765625, 0.057861328125
61, 4115444134, -6.7914557456970215, -0.8194251656532288, 7.156490802764893, -2.592440366744995, -1.0942000150680542, -2.175760269165039, 1.118896484375, -0.4130859375, 0.056884765625
62, 4115460801, -6.790992736816406, -0.8426262140274048, 7.098989009857178, -2.4178130626678467, -1.3881313800811768, -2.146817922592163, 1.118896484375, -0.412109375, 0.05810546875
63, 4115477468, -6.7817230224609375, -0.8322261571884155, 7.140566825866699, -2.181638479232788, -1.7215447425842285, -2.0433812141418457, 1.118896484375, -0.41357421875, 0.055908203125
64, 4115494135, -6.791223526000977, -0.8007825016975403, 7.162525653839111, -2.3045663833618164, -1.506359577178955, -2.078611373901367, 1.119384765625, -0.412109375, 0.055419921875
65, 4115510802, -6.788883209228516, -0.8317664861679077, 7.132836818695068, -2.4426705837249756, -1.507538080215454, -2.2209413051605225, 1.118408203125, -0.41162109375, 0.056396484375
66, 4115527469, -6.786535263061523, -0.8462967872619629, 7.135001182556152, -2.5111587047576904, -1.5238533020019531, -2.1748769283294678, 1.117431640625, -0.412109375, 0.057373046875
67, 4115544136, -6.781905174255371, -0.8197923302650452, 7.157195091247559, -2.2823092937469482, -1.846035122871399, -2.150390863418579, 1.118896484375, -0.412109375, 0.056396484375
68, 4115560803, -6.793339252471924, -0.7938772439956665, 7.159987926483154, -2.2899293899536133, -1.916662573814392, -2.2417004108428955, 1.119384765625, -0.41357421875, 0.057373046875
69, 4115577470, -6.795228004455566, -0.7912703156471252, 7.171748161315918, -2.552229166030884, -1.6516352891921997, -2.495676040649414, 1.118408203125, -0.41162109375, 0.055419921875
70, 4115594137, -6.7854509353637695, -0.8067430853843689, 7.167901039123535, -2.589136838912964, -1.5657813549041748, -2.6468164920806885, 1.118896484375, -0.412109375, 0.054931640625
71, 4115610804, -6.785221099853516, -0.8417778611183167, 7.161128044128418, -2.6093196868896484, -1.5871423482894897, -2.668907642364502, 1.117431640625, -0.412109375, 0.055419921875
72, 4115627471, -6.7829718589782715, -0.8385820388793945, 7.145260810852051, -2.616363286972046, -1.4094030857086182, -2.5551743507385254, 1.118896484375, -0.4111328125, 0.054931640625
73, 4115644138, -6.788331508636475, -0.8147642612457275, 7.146765232086182, -2.6161327362060547, -1.3171716928482056, -2.5172805786132812, 1.119384765625, -0.412109375, 0.056884765625
74, 4115660805, -6.79877233505249, -0.8334697484970093, 7.119464874267578, -2.6096396446228027, -1.3854550123214722, -2.3853747844696045, 1.117431640625, -0.4130859375, 0.05859375
75, 4115677472, -6.793184757232666, -0.845481276512146, 7.144283771514893, -2.349350690841675, -1.5060780048370361, -2.2752017974853516, 1.1201171875, -0.412109375, 0.056396484375
76, 4115694139, -6.795035362243652, -0.829595148563385, 7.130082130432129, -2.3186662197113037, -1.6844831705093384, -2.135228157043457, 1.119384765625, -0.412109375, 0.056396484375
77, 4115710806, -6.7734785079956055, -0.829187273979187, 7.134795665740967, -2.379084825515747, -1.6717047691345215, -2.167754650115967, 1.118408203125, -0.41162109375, 0.056396484375
78, 4115727473, -6.782022476196289, -0.8029588460922241, 7.15037727355957, -2.3850929737091064, -1.5816481113433838, -2.276366949081421, 1.1201171875, -0.413818359375, 0.056396484375
79, 4115744140, -6.7847161293029785, -0.7910549640655518, 7.140040874481201, -2.723834276199341, -1.305453896522522, -2.5826058387756348, 1.11962890625, -0.4130859375, 0.056884765625
80, 4115760807, -6.789708137512207, -0.7921108603477478, 7.165329933166504, -3.04280161857605, -1.0025449991226196, -2.706494092941284, 1.117919921875, -0.4130859375, 0.056884765625
81, 4115777474, -6.8007683753967285, -0.8143869638442993, 7.140869617462158, -3.193429470062256, -0.7931869029998779, -2.9423229694366455, 1.118896484375, -0.4130859375, 0.0595703125
82, 4115794141, -6.790235996246338, -0.8468206524848938, 7.150083065032959, -3.154216766357422, -0.7760648727416992, -2.9699463844299316, 1.1201171875, -0.412109375, 0.05712890625
83, 4115810808, -6.789949417114258, -0.8489760160446167, 7.132665634155273, -2.889855146408081, -1.0638618469238281, -2.7329773902893066, 1.119873046875, -0.41162109375, 0.0576171875
84, 4115827475, -6.78612756729126, -0.8457931280136108, 7.147244930267334, -2.6195266246795654, -1.337418556213379, -2.6165554523468018, 1.118408203125, -0.4111328125, 0.05810546875
85, 4115844142, -6.807868003845215, -0.8635992407798767, 7.129684925079346, -2.4745967388153076, -1.6554641723632812, -2.498967409133911, 1.118896484375, -0.4111328125, 0.056396484375
86, 4115860809, -6.8015570640563965, -0.8442438840866089, 7.125072956085205, -2.341449022293091, -1.8598918914794922, -2.230879068374634, 1.12158203125, -0.40966796875, 0.0576171875
87, 4115877476, -6.793275833129883, -0.8276621103286743, 7.1399312019348145, -2.3243143558502197, -1.7871646881103516, -2.2539560794830322, 1.118896484375, -0.41015625, 0.05810546875
88, 4115894143, -6.7899932861328125, -0.8466880321502686, 7.153369903564453, -2.49292254447937, -1.501224398612976, -2.306154727935791, 1.116943359375, -0.4111328125, 0.057861328125
89, 4115910810, -6.801238059997559, -0.841913104057312, 7.143237113952637, -2.5038082599639893, -1.362006664276123, -2.4100399017333984, 1.120361328125, -0.4091796875, 0.0576171875
90, 4115927477, -6.787037372589111, -0.8540897369384766, 7.138468265533447, -2.4765944480895996, -1.5564326047897339, -2.3831593990325928, 1.116943359375, -0.41162109375, 0.057861328125
91, 4115944144, -6.807583332061768, -0.8310427665710449, 7.129984378814697, -2.301762342453003, -1.6853158473968506, -2.1943042278289795, 1.119384765625, -0.4130859375, 0.056884765625
92, 4115960811, -6.796103000640869, -0.8294479250907898, 7.139790058135986, -2.3760006427764893, -1.634628176689148, -2.2051258087158203, 1.119384765625, -0.41162109375, 0.057373046875
93, 4115977478, -6.806878089904785, -0.8288685083389282, 7.1375298500061035, -2.281207799911499, -1.6495217084884644, -2.2836153507232666, 1.118896484375, -0.40966796875, 0.05859375
94, 4115994145, -6.802312850952148, -0.8384253978729248, 7.14773416519165, -2.313352108001709, -1.748630404472351, -2.3033628463745117, 1.118896484375, -0.412109375, 0.056884765625
95, 4116010812, -6.788029670715332, -0.8313199281692505, 7.138133525848389, -2.3392720222473145, -1.8415277004241943, -2.3426401615142822, 1.120361328125, -0.41064453125, 0.056396484375
96, 4116027479, -6.798042297363281, -0.8339273929595947, 7.165910720825195, -2.3632965087890625, -1.78501296043396, -2.303260326385498, 1.118896484375, -0.41064453125, 0.056396484375
97, 4116044146, -6.786351203918457, -0.8427969813346863, 7.133788108825684, -2.4090282917022705, -1.6750578880310059, -2.258118152618408, 1.118408203125, -0.4111328125, 0.055908203125
98, 4116060813, -6.793032646179199, -0.8531851768493652, 7.138765335083008, -2.3701350688934326, -1.5202289819717407, -2.327989339828491, 1.116943359375, -0.41064453125, 0.055908203125
99, 4116077480, -6.791240692138672, -0.8519926071166992, 7.151811122894287, -2.459331512451172, -1.6904767751693726, -2.2822322845458984, 1.118408203125, -0.4111328125, 0.057373046875
100, 4116094147, -6.781579971313477, -0.8272122740745544, 7.130468368530273, -2.5334157943725586, -1.5028122663497925, -2.3395278453826904, 1.117431640625, -0.412109375, 0.055908203125
101, 4116110814, -6.788843154907227, -0.8336114883422852, 7.151479721069336, -2.6535401344299316, -1.351428747177124, -2.3959150314331055, 1.118896484375, -0.40966796875, 0.057373046875
102, 4116127481, -6.789676666259766, -0.8387529253959656, 7.158440113067627, -2.730198860168457, -1.3797434568405151, -2.4934864044189453, 1.117431640625, -0.4091796875, 0.056884765625
103, 4116144148, -6.800692558288574, -0.8552180528640747, 7.125904560089111, -2.6591744422912598, -1.321769118309021, -2.5031166076660156, 1.116455078125, -0.41015625, 0.056396484375
104, 4116160815, -6.775310039520264, -0.8746250867843628, 7.138970851898193, -2.779784917831421, -1.2521411180496216, -2.6323840618133545, 1.12060546875, -0.40966796875, 0.05810546875
105, 4116177482, -6.790441989898682, -0.8351521492004395, 7.14098596572876, -2.8813259601593018, -1.1835885047912598, -2.709836483001709, 1.117919921875, -0.40966796875, 0.058349609375
106, 4116194149, -6.797539234161377, -0.8444100618362427, 7.163294315338135, -2.952158212661743, -1.0611085891723633, -2.688795566558838, 1.117919921875, -0.412109375, 0.057373046875
107, 4116210816, -6.785486221313477, -0.8479796051979065, 7.158323287963867, -3.0418925285339355, -1.0704572200775146, -2.8770108222961426, 1.119384765625, -0.40966796875, 0.057861328125
108, 4116227483, -6.785451412200928, -0.8258317112922668, 7.1382951736450195, -3.0886096954345703, -0.6917989253997803, -2.8086113929748535, 1.118408203125, -0.4111328125, 0.05859375
109, 4116244150, -6.790417671203613, -0.8606934547424316, 7.157417297363281, -3.1842732429504395, -0.6079814434051514, -2.848734140396118, 1.116455078125, -0.4091796875, 0.058837890625
110, 4116260817, -6.800269603729248, -0.850287914276123, 7.117888927459717, -3.1975536346435547, -0.5846739411354065, -2.8378617763519287, 1.120361328125, -0.408447265625, 0.05810546875
111, 4116277484, -6.80425500869751, -0.8524722456932068, 7.140844821929932, -3.16369366645813, -0.5838159322738647, -2.812223196029663, 1.117919921875, -0.4091796875, 0.057861328125
112, 4116294151, -6.813699245452881, -0.8908001184463501, 7.133300304412842, -3.115374803543091, -0.8187355399131775, -2.71248722076416, 1.117919921875, -0.406494140625, 0.058349609375
113, 4116310818, -6.8198933601379395, -0.8768576979637146, 7.155517101287842, -3.0257415771484375, -0.7638402581214905, -2.6062304973602295, 1.119384765625, -0.40966796875, 0.05859375
114, 4116327485, -6.818779945373535, -0.8682852983474731, 7.133500576019287, -2.870389938354492, -1.0381213426589966, -2.515192985534668, 1.117919921875, -0.407958984375, 0.058837890625
115, 4116344152, -6.826388359069824, -0.8835988640785217, 7.136512756347656, -2.642667770385742, -1.3655668497085571, -2.3797786235809326, 1.117919921875, -0.40966796875, 0.05908203125
116, 4116360819, -6.790518283843994, -0.857213020324707, 7.137151718139648, -2.5017590522766113, -1.3354589939117432, -2.317911148071289, 1.118408203125, -0.4091796875, 0.05908203125
117, 4116377486, -6.823648452758789, -0.8632519245147705, 7.121012210845947, -2.600598096847534, -1.2565333843231201, -2.406351327896118, 1.119873046875, -0.40966796875, 0.06005859375
118, 4116394153, -6.79733943939209, -0.8708081245422363, 7.12968111038208, -2.5270256996154785, -1.3993624448776245, -2.365729808807373, 1.119384765625, -0.407470703125, 0.05908203125
119, 4116410820, -6.82418966293335, -0.8554905652999878, 7.126108646392822, -2.4994277954101562, -1.3492512702941895, -2.4826130867004395, 1.119384765625, -0.407958984375, 0.0595703125
120, 4116427487, -6.822218894958496, -0.8767043352127075, 7.123810291290283, -2.506330966949463, -1.498125433921814, -2.4716384410858154, 1.118408203125, -0.408203125, 0.058349609375
121, 4116444154, -6.81601619720459, -0.8789566159248352, 7.108913898468018, -2.4798858165740967, -1.615009069442749, -2.396209239959717, 1.118408203125, -0.406982421875, 0.0595703125
122, 4116460821, -6.8069915771484375, -0.8676039576530457, 7.1209259033203125, -2.327336072921753, -1.702744960784912, -2.2752525806427, 1.119873046875, -0.408203125, 0.057373046875
123, 4116477488, -6.806615352630615, -0.8555706739425659, 7.14786434173584, -2.3537817001342773, -1.7185481786727905, -2.2729477882385254, 1.118896484375, -0.408203125, 0.057373046875
124, 4116494155, -6.8021135330200195, -0.8671603202819824, 7.133757591247559, -2.408963918685913, -1.6087079048156738, -2.363821506500244, 1.118896484375, -0.40966796875, 0.05810546875
125, 4116510822, -6.799080848693848, -0.8596407771110535, 7.133029937744141, -2.337684154510498, -1.6759799718856812, -2.2469637393951416, 1.119384765625, -0.406982421875, 0.0595703125
126, 4116527489, -6.816878318786621, -0.8716579675674438, 7.113564491271973, -2.2859976291656494, -1.733339548110962, -2.1529653072357178, 1.121337890625, -0.406494140625, 0.05908203125
127, 4116544156, -6.828574180603027, -0.8663658499717712, 7.134601593017578, -2.353909730911255, -1.8409898281097412, -2.2258846759796143, 1.119384765625, -0.407470703125, 0.05859375
128, 4116560823, -6.8089752197265625, -0.875720202922821, 7.103757858276367, -2.2946929931640625, -1.8579453229904175, -2.178539514541626, 1.120361328125, -0.40869140625, 0.05908203125
129, 4116577490, -6.81230354309082, -0.8595340847969055, 7.107011318206787, -2.3457393646240234, -1.7743839025497437, -2.33895206451416, 1.119873046875, -0.40869140625, 0.05908203125
130, 4116594157, -6.8027424812316895, -0.8622093796730042, 7.122610092163086, -2.4167120456695557, -1.7878817319869995, -2.280503749847412, 1.118896484375, -0.407470703125, 0.058349609375
131, 4116610824, -6.7978973388671875, -0.886134922504425, 7.128791332244873, -2.2861640453338623, -1.8385052680969238, -2.2638168334960938, 1.119384765625, -0.41064453125, 0.06005859375
132, 4116627491, -6.809830665588379, -0.8620636463165283, 7.118038654327393, -2.264354944229126, -1.7981781959533691, -2.153003692626953, 1.119873046875, -0.4091796875, 0.05908203125
133, 4116644158, -6.806446552276611, -0.8568003177642822, 7.139803409576416, -2.3195629119873047, -1.6632120609283447, -2.2430450916290283, 1.116943359375, -0.407958984375, 0.057861328125
134, 4116660825, -6.813770294189453, -0.8715968728065491, 7.116950035095215, -2.411973714828491, -1.7604891061782837, -2.3087031841278076, 1.118896484375, -0.407470703125, 0.06005859375
135, 4116677492, -6.811028957366943, -0.8745670318603516, 7.105727672576904, -2.344356060028076, -1.904790997505188, -2.309586763381958, 1.120361328125, -0.40869140625, 0.0595703125
136, 4116694159, -6.796112060546875, -0.8634515404701233, 7.119052410125732, -2.34894061088562, -1.8376727104187012, -2.2561073303222656, 1.119873046875, -0.408447265625, 0.05908203125
137, 4116710826, -6.807575225830078, -0.8579262495040894, 7.119914531707764, -2.346097946166992, -1.8112406730651855, -2.2874321937561035, 1.120849609375, -0.40869140625, 0.05810546875
138, 4116727493, -6.803416728973389, -0.8714373707771301, 7.141281604766846, -2.4400198459625244, -1.5938016176223755, -2.2560691833496094, 1.119873046875, -0.407958984375, 0.06005859375
139, 4116744160, -6.8124589920043945, -0.8621931076049805, 7.10931396484375, -2.538449287414551, -1.4923367500305176, -2.4498038291931152, 1.119873046875, -0.40869140625, 0.057373046875
140, 4116760827, -6.812325477600098, -0.8818638324737549, 7.104658603668213, -2.4028685092926025, -1.5561637878417969, -2.338388442993164, 1.119384765625, -0.406494140625, 0.05908203125
141, 4116777494, -6.809581756591797, -0.8594401478767395, 7.1304731369018555, -2.4787325859069824, -1.5898058414459229, -2.3142995834350586, 1.118896484375, -0.40869140625, 0.058349609375
142, 4116794161, -6.807489395141602, -0.8547875285148621, 7.123345375061035, -2.3530900478363037, -1.7025914192199707, -2.418632984161377, 1.118408203125, -0.40966796875, 0.0595703125
143, 4116810828, -6.8086347579956055, -0.8609020113945007, 7.120785713195801, -2.383928060531616, -1.7627431154251099, -2.4454495906829834, 1.118896484375, -0.40869140625, 0.05859375
144, 4116827495, -6.795215129852295, -0.8612722754478455, 7.132391929626465, -2.3968751430511475, -1.6679118871688843, -2.4484972953796387, 1.117919921875, -0.4091796875, 0.05908203125
145, 4116844162, -6.805586814880371, -0.87109375, 7.127524375915527, -2.3030941486358643, -1.7314954996109009, -2.566110849380493, 1.116455078125, -0.40869140625, 0.060546875
146, 4116860829, -6.79734468460083, -0.8849291801452637, 7.125871181488037, -2.176426410675049, -1.7362593412399292, -2.448894500732422, 1.118896484375, -0.40869140625, 0.05859375
147, 4116877496, -6.805346965789795, -0.8755930066108704, 7.124192237854004, -2.3044769763946533, -1.7369509935379028, -2.311520576477051, 1.118408203125, -0.408203125, 0.058349609375
148, 4116894163, -6.798033714294434, -0.8852828145027161, 7.116632461547852, -2.2239890098571777, -1.708956003189087, -2.189296245574951, 1.118408203125, -0.4091796875, 0.0595703125
149, 4116910830, -6.793715953826904, -0.8754981756210327, 7.118061542510986, -2.2506964206695557, -1.6380259990692139, -2.2474052906036377, 1.119384765625, -0.407958984375, 0.06005859375
150, 4116927497, -6.796011447906494, -0.8726049661636353, 7.11909818649292, -2.3564579486846924, -1.6935243606567383, -2.230520248413086, 1.117919921875, -0.406005859375, 0.058349609375
151, 4116944164, -6.810389518737793, -0.8890534043312073, 7.125226974487305, -2.278928279876709, -1.752344012260437, -2.216151475906372, 1.117431640625, -0.40966796875, 0.056884765625
152, 4116960831, -6.807070255279541, -0.8639192581176758, 7.133761882781982, -2.3743226528167725, -1.6860584020614624, -2.234682321548462, 1.118896484375, -0.407470703125, 0.06103515625
153, 4116977498, -6.807711124420166, -0.8734428286552429, 7.13029670715332, -2.464453935623169, -1.6971614360809326, -2.309446096420288, 1.118896484375, -0.408203125, 0.05908203125
154, 4116994165, -6.782358646392822, -0.8749027252197266, 7.12788724899292, -2.4267523288726807, -1.4601929187774658, -2.2660582065582275, 1.119384765625, -0.407470703125, 0.057373046875
155, 4117010832, -6.799526214599609, -0.881952166557312, 7.1367645263671875, -2.377883195877075, -1.4565047025680542, -2.2478091716766357, 1.117919921875, -0.408203125, 0.05908203125
156, 4117027499, -6.795998573303223, -0.8725035190582275, 7.130069255828857, -2.336275100708008, -1.506359577178955, -2.1625826358795166, 1.116943359375, -0.407958984375, 0.058837890625
157, 4117044166, -6.804226875305176, -0.8532358407974243, 7.10753059387207, -2.356112241744995, -1.5123018026351929, -2.1954565048217773, 1.118408203125, -0.4091796875, 0.05859375
158, 4117060833, -6.802400588989258, -0.8566706776618958, 7.128295421600342, -2.430440664291382, -1.5693926811218262, -2.220979690551758, 1.119873046875, -0.408447265625, 0.05859375
159, 4117077500, -6.795070171356201, -0.8617978692054749, 7.135969638824463, -2.3991928100585938, -1.6087336540222168, -2.222029685974121, 1.119873046875, -0.405517578125, 0.05908203125
160, 4117094167, -6.796361446380615, -0.8601623773574829, 7.131006717681885, -2.4037134647369385, -1.7477977275848389, -2.2807343006134033, 1.118408203125, -0.408203125, 0.060546875
161, 4117110834, -6.809057235717773, -0.8773090839385986, 7.141772270202637, -2.3638217449188232, -1.8009825944900513, -2.2616140842437744, 1.118896484375, -0.40869140625, 0.060546875
162, 4117127501, -6.811342239379883, -0.8664839267730713, 7.129674434661865, -2.322303533554077, -1.6975327730178833, -2.252829074859619, 1.116455078125, -0.407470703125, 0.058837890625
163, 4117144168, -6.801149368286133, -0.8653321862220764, 7.12739372253418, -2.3445992469787598, -1.510278344154358, -2.2972798347473145, 1.118896484375, -0.407470703125, 0.056396484375
164, 4117160835, -6.79669713973999, -0.8782896995544434, 7.124720573425293, -2.4534661769866943, -1.4098767042160034, -2.270425319671631, 1.119873046875, -0.406494140625, 0.06005859375
165, 4117177502, -6.797759532928467, -0.8714502453804016, 7.132992267608643, -2.343485116958618, -1.5319082736968994, -2.147355794906616, 1.117431640625, -0.407470703125, 0.058837890625
166, 4117194169, -6.790949821472168, -0.8671432137489319, 7.13040018081665, -2.261767864227295, -1.6514557600021362, -2.0884854793548584, 1.119873046875, -0.408203125, 0.057861328125
167, 4117210836, -6.811107158660889, -0.8631126284599304, 7.167605400085449, -2.310803174972534, -1.6759796142578125, -2.119361162185669, 1.12158203125, -0.407958984375, 0.06201171875
168, 4117227503, -6.797039985656738, -0.8613483905792236, 7.146762847900391, -2.301941394805908, -1.5266832113265991, -2.1457037925720215, 1.118896484375, -0.407958984375, 0.057373046875
169, 4117244170, -6.8040547370910645, -0.8592756986618042, 7.132616996765137, -2.3852081298828125, -1.5386700630187988, -2.1132524013519287, 1.119384765625, -0.407958984375, 0.05859375
170, 4117260837, -6.798300266265869, -0.8755806684494019, 7.116422176361084, -2.3294241428375244, -1.6829594373703003, -2.2229650020599365, 1.117919921875, -0.406982421875, 0.058837890625
171, 4117277504, -6.797695636749268, -0.8790583610534668, 7.138350009918213, -2.215165615081787, -1.7955272197723389, -2.1490466594696045, 1.119384765625, -0.40966796875, 0.05908203125
172, 4117294171, -6.803767204284668, -0.8743790984153748, 7.127715110778809, -2.2012319564819336, -1.671651005744934, -2.1806650161743164, 1.119384765625, -0.407958984375, 0.05908203125
173, 4117310838, -6.796598434448242, -0.8696120977401733, 7.1158342361450195, -2.3133904933929443, -1.6031500101089478, -2.1014065742492676, 1.120849609375, -0.4091796875, 0.057373046875
174, 4117327505, -6.794577598571777, -0.8643172383308411, 7.1497368812561035, -2.267671585083008, -1.4784929752349854, -2.099140167236328, 1.118896484375, -0.4091796875, 0.05859375
175, 4117344172, -6.802295207977295, -0.8524056673049927, 7.1314377784729, -2.414444923400879, -1.4275493621826172, -2.1793460845947266, 1.118896484375, -0.406494140625, 0.05859375
176, 4117360839, -6.806308269500732, -0.8505200147628784, 7.121539115905762, -2.50506329536438, -1.4466309547424316, -2.3253772258758545, 1.117919921875, -0.4091796875, 0.058349609375
177, 4117377506, -6.803770542144775, -0.8679394125938416, 7.129634380340576, -2.393686294555664, -1.3130606412887573, -2.409579038619995, 1.118896484375, -0.408203125, 0.06005859375
178, 4117394173, -6.798000812530518, -0.8771946430206299, 7.140427112579346, -2.5586445331573486, -1.3264561891555786, -2.3828775882720947, 1.117431640625, -0.407958984375, 0.058837890625
179, 4117410840, -6.792765140533447, -0.8846200704574585, 7.118679523468018, -2.545006275177002, -1.2858729362487793, -2.3720946311950684, 1.118408203125, -0.4091796875, 0.0595703125
180, 4117427507, -6.80070686340332, -0.8803096413612366, 7.130335807800293, -2.542816162109375, -1.26116943359375, -2.243736505508423, 1.118408203125, -0.406494140625, 0.057861328125
181, 4117444174, -6.797161102294922, -0.8759204149246216, 7.1220316886901855, -2.469525098800659, -1.2699288129806519, -2.2105038166046143, 1.118896484375, -0.404052734375, 0.05908203125
182, 4117460841, -6.809115409851074, -0.855665385723114, 7.106383800506592, -2.5179076194763184, -1.2936207056045532, -2.2649056911468506, 1.118896484375, -0.406494140625, 0.05859375
183, 4117477508, -6.801498889923096, -0.8677965402603149, 7.129249572753906, -2.436382532119751, -1.434208869934082, -2.268235206604004, 1.119384765625, -0.407470703125, 0.05908203125
184, 4117494175, -6.805456638336182, -0.8791325092315674, 7.13353967666626, -2.4173905849456787, -1.5846577882766724, -2.273254871368408, 1.119873046875, -0.406494140625, 0.060546875
185, 4117510842, -6.799137115478516, -0.8923163414001465, 7.133162021636963, -2.287435531616211, -1.6435836553573608, -2.0897300243377686, 1.121337890625, -0.406494140625, 0.05810546875
186, 4117527509, -6.799442768096924, -0.859585165977478, 7.112945079803467, -2.384542226791382, -1.4969725608825684, -2.1159801483154297, 1.118896484375, -0.407958984375, 0.060546875
187, 4117544176, -6.8147358894348145, -0.861612856388092, 7.125580787658691, -2.3508105278015137, -1.6086952686309814, -2.1642093658447266, 1.119873046875, -0.40869140625, 0.05810546875
188, 4117560843, -6.797682285308838, -0.8603610992431641, 7.1272993087768555, -2.262331247329712, -1.6432338953018188, -2.085296154022217, 1.118896484375, -0.40869140625, 0.057861328125
189, 4117577510, -6.793422698974609, -0.8731730580329895, 7.135873317718506, -2.266801118850708, -1.6279689073562622, -2.0877554416656494, 1.120361328125, -0.407958984375, 0.05810546875
190, 4117594177, -6.796797752380371, -0.8634974360466003, 7.121131896972656, -2.374528169631958, -1.5868477821350098, -2.1359198093414307, 1.119873046875, -0.406982421875, 0.05908203125
191, 4117610844, -6.805802822113037, -0.8595141768455505, 7.122027397155762, -2.4563732147216797, -1.4388704299926758, -2.158459424972534, 1.119384765625, -0.4091796875, 0.05810546875
192, 4117627511, -6.814210891723633, -0.8561108708381653, 7.1324849128723145, -2.450111150741577, -1.4933229684829712, -2.2181239128112793, 1.12255859375, -0.40869140625, 0.05712890625
193, 4117644178, -6.809181213378906, -0.8566064834594727, 7.1443562507629395, -2.3652560710906982, -1.4759447574615479, -2.234003782272339, 1.118896484375, -0.408203125, 0.056884765625
194, 4117660845, -6.801372051239014, -0.8698499798774719, 7.134452819824219, -2.28261661529541, -1.5021079778671265, -2.2477447986602783, 1.120361328125, -0.4091796875, 0.05908203125
195, 4117677512, -6.799864768981934, -0.8588893413543701, 7.114823818206787, -2.2496402263641357, -1.5816737413406372, -2.2331454753875732, 1.118408203125, -0.407470703125, 0.0595703125
196, 4117694179, -6.806350231170654, -0.862720251083374, 7.136959552764893, -2.3079733848571777, -1.5593012571334839, -2.142425775527954, 1.120361328125, -0.408447265625, 0.05859375
197, 4117710846, -6.803572654724121, -0.8595442175865173, 7.119411945343018, -2.249051094055176, -1.5057449340820312, -2.175171375274658, 1.118408203125, -0.406982421875, 0.057373046875
198, 4117727513, -6.803586483001709, -0.8707157373428345, 7.135537624359131, -2.348313331604004, -1.5348666906356812, -2.202820301055908, 1.119873046875, -0.4091796875, 0.05908203125
199, 4117744180, -6.82072639465332, -0.8721015453338623, 7.122689723968506, -2.2689521312713623, -1.6021255254745483, -2.121192216873169, 1.116943359375, -0.407958984375, 0.05908203125
200, 4117760847, -6.810928821563721, -0.8600482940673828, 7.126832962036133, -2.176630973815918, -1.7602583169937134, -2.070107936859131, 1.118408203125, -0.407958984375, 0.05908203125
201, 4117777514, -6.811774253845215, -0.8568166494369507, 7.1219635009765625, -2.2899160385131836, -1.7625889778137207, -2.0384504795074463, 1.121826171875, -0.406494140625, 0.05908203125
202, 4117794181, -6.810100078582764, -0.8636296987533569, 7.140447616577148, -2.2164463996887207, -1.626880407333374, -2.04709529876709, 1.118408203125, -0.407470703125, 0.0595703125
203, 4117810848, -6.790685176849365, -0.8663976192474365, 7.103382110595703, -2.1394286155700684, -1.7980883121490479, -2.0409095287323, 1.120849609375, -0.40869140625, 0.05908203125
204, 4117827515, -6.808684349060059, -0.8492246866226196, 7.150388717651367, -2.1410295963287354, -1.8010209798812866, -1.98112952709198, 1.118896484375, -0.407958984375, 0.057861328125
205, 4117844182, -6.7902069091796875, -0.8380581736564636, 7.142089366912842, -2.230635404586792, -1.6446040868759155, -2.174185276031494, 1.118408203125, -0.41064453125, 0.056884765625
206, 4117860849, -6.80418586730957, -0.848555326461792, 7.147683143615723, -2.227626085281372, -1.573132038116455, -2.112420082092285, 1.117431640625, -0.407958984375, 0.05908203125
207, 4117877516, -6.81067419052124, -0.8623448610305786, 7.139482021331787, -2.3213045597076416, -1.6090922355651855, -2.1158010959625244, 1.12109375, -0.40966796875, 0.05810546875
208, 4117894183, -6.808119773864746, -0.8528059720993042, 7.125014781951904, -2.2887637615203857, -1.651801347732544, -2.083618640899658, 1.119384765625, -0.4091796875, 0.05908203125
209, 4117910850, -6.8089280128479, -0.8503302335739136, 7.114075183868408, -2.2847423553466797, -1.6785281896591187, -2.123446226119995, 1.120361328125, -0.41064453125, 0.0576171875
210, 4117927517, -6.806461811065674, -0.856356143951416, 7.15022087097168, -2.2265374660491943, -1.8374292850494385, -2.062372922897339, 1.118896484375, -0.408203125, 0.05859375
211, 4117944184, -6.8107829093933105, -0.8405299186706543, 7.139657974243164, -2.2148709297180176, -1.6608554124832153, -2.1273908615112305, 1.118896484375, -0.40869140625, 0.06005859375
212, 4117960851, -6.808760643005371, -0.8557921648025513, 7.129543781280518, -2.1580493450164795, -1.608388066291809, -2.206495761871338, 1.119873046875, -0.41064453125, 0.05810546875
213, 4117977518, -6.789577007293701, -0.853143036365509, 7.134080410003662, -2.242058753967285, -1.566818356513977, -2.1469717025756836, 1.118408203125, -0.41015625, 0.05908203125
214, 4117994185, -6.7993245124816895, -0.840520977973938, 7.134435653686523, -2.241072654724121, -1.5172961950302124, -2.224168300628662, 1.119384765625, -0.4091796875, 0.057861328125
215, 4118010852, -6.80022668838501, -0.8694371581077576, 7.126940727233887, -2.2686831951141357, -1.5480698347091675, -2.1497888565063477, 1.117919921875, -0.408203125, 0.05859375
216, 4118027519, -6.805818557739258, -0.8396009802818298, 7.116266250610352, -2.2096714973449707, -1.6275204420089722, -2.09326171875, 1.121337890625, -0.406494140625, 0.05908203125
217, 4118044186, -6.804032802581787, -0.8531099557876587, 7.139329433441162, -2.1522350311279297, -1.7637416124343872, -2.177783727645874, 1.118896484375, -0.40966796875, 0.05908203125
218, 4118060853, -6.797057151794434, -0.8436261415481567, 7.137680530548096, -2.2513816356658936, -1.744314432144165, -2.176823139190674, 1.118896484375, -0.40869140625, 0.058349609375
219, 4118077520, -6.80202579498291, -0.848949670791626, 7.129483699798584, -2.298189401626587, -1.724861741065979, -2.308485746383667, 1.117919921875, -0.40966796875, 0.05908203125
220, 4118094187, -6.811948776245117, -0.8514996767044067, 7.136172771453857, -2.281468152999878, -1.7067408561706543, -2.3648581504821777, 1.120849609375, -0.407958984375, 0.056884765625
221, 4118110854, -6.7985029220581055, -0.8556992411613464, 7.111374378204346, -2.2984325885772705, -1.6449371576309204, -2.387308359146118, 1.12109375, -0.408447265625, 0.056396484375
222, 4118127521, -6.803309917449951, -0.8705146312713623, 7.11667013168335, -2.3032989501953125, -1.6653378009796143, -2.2906079292297363, 1.118896484375, -0.407470703125, 0.056396484375
223, 4118144188, -6.798706531524658, -0.8457580804824829, 7.14302921295166, -2.3034205436706543, -1.6921733617782593, -2.2795751094818115, 1.117919921875, -0.4091796875, 0.057373046875
224, 4118160855, -6.813246726989746, -0.8548744916915894, 7.1413469314575195, -2.376782178878784, -1.6425169706344604, -2.1588690280914307, 1.119384765625, -0.40966796875, 0.057373046875
225, 4118177522, -6.797461032867432, -0.8572853803634644, 7.1234941482543945, -2.233786106109619, -1.6947156190872192, -2.2313528060913086, 1.119873046875, -0.40869140625, 0.057373046875
226, 4118194189, -6.815252304077148, -0.8478538393974304, 7.144306182861328, -2.367074728012085, -1.6669386625289917, -2.3275415897369385, 1.118408203125, -0.40869140625, 0.056884765625
227, 4118210856, -6.798145771026611, -0.8370529413223267, 7.1361165046691895, -2.459984540939331, -1.705229640007019, -2.3250439167022705, 1.119873046875, -0.40966796875, 0.05810546875
228, 4118227523, -6.800410747528076, -0.8554329872131348, 7.152784824371338, -2.463186264038086, -1.7110055685043335, -2.436075448989868, 1.116943359375, -0.40869140625, 0.058837890625
229, 4118244190, -6.804807662963867, -0.8604623079299927, 7.127775192260742, -2.424114227294922, -1.7335957288742065, -2.4453470706939697, 1.118896484375, -0.40869140625, 0.056396484375
230, 4118260857, -6.8052659034729, -0.8499001264572144, 7.156007289886475, -2.5074193477630615, -1.6048791408538818, -2.4378297328948975, 1.119873046875, -0.408447265625, 0.05810546875
231, 4118277524, -6.799434661865234, -0.854938268661499, 7.132932662963867, -2.62381649017334, -1.5621700286865234, -2.4271240234375, 1.117919921875, -0.40869140625, 0.057861328125
232, 4118294191, -6.806085109710693, -0.8509491086006165, 7.109694957733154, -2.6146342754364014, -1.4819766283035278, -2.559746265411377, 1.119873046875, -0.40966796875, 0.06005859375
233, 4118310858, -6.798465728759766, -0.8625490665435791, 7.114474296569824, -2.535952091217041, -1.6350764036178589, -2.4906558990478516, 1.116943359375, -0.40966796875, 0.055908203125
234, 4118327525, -6.792049884796143, -0.8710871934890747, 7.141009330749512, -2.5672125816345215, -1.6260353326797485, -2.5099167823791504, 1.120361328125, -0.41015625, 0.056396484375
235, 4118344192, -6.801322937011719, -0.8513737916946411, 7.134936809539795, -2.46652889251709, -1.6113847494125366, -2.4602153301239014, 1.116455078125, -0.4091796875, 0.056884765625
236, 4118360859, -6.7977519035339355, -0.8563821315765381, 7.121309280395508, -2.5221407413482666, -1.5199154615402222, -2.4449567794799805, 1.119384765625, -0.408203125, 0.057861328125
237, 4118377526, -6.7861199378967285, -0.872698962688446, 7.1522932052612305, -2.5444555282592773, -1.5142871141433716, -2.5028862953186035, 1.119384765625, -0.40869140625, 0.0595703125
238, 4118394193, -6.81018590927124, -0.8601164221763611, 7.146206378936768, -2.6335365772247314, -1.3056843280792236, -2.542701244354248, 1.118896484375, -0.407958984375, 0.055908203125
239, 4118410860, -6.790016174316406, -0.869604766368866, 7.132816791534424, -2.528306722640991, -1.562592625617981, -2.4160592555999756, 1.118408203125, -0.40869140625, 0.056396484375
240, 4118427527, -6.799219131469727, -0.870753824710846, 7.139195919036865, -2.426316738128662, -1.6131519079208374, -2.278954029083252, 1.12158203125, -0.406982421875, 0.056884765625
241, 4118444194, -6.811906337738037, -0.8391467928886414, 7.120916843414307, -2.3211638927459717, -1.7124652862548828, -2.30761456489563, 1.119873046875, -0.4091796875, 0.056884765625
242, 4118460861, -6.8093671798706055, -0.8501079678535461, 7.131800174713135, -2.3546011447906494, -1.6947412490844727, -2.41733980178833, 1.119384765625, -0.407958984375, 0.056396484375
243, 4118477528, -6.816951751708984, -0.8635485768318176, 7.144620895385742, -2.5202901363372803, -1.6582434177398682, -2.5288572311401367, 1.118896484375, -0.40869140625, 0.057861328125
244, 4118494195, -6.798155784606934, -0.837400496006012, 7.13408899307251, -2.4698972702026367, -1.687454342842102, -2.550640821456909, 1.120849609375, -0.40869140625, 0.055908203125
245, 4118510862, -6.79956579208374, -0.8680611848831177, 7.140771389007568, -2.4023818969726562, -1.8088330030441284, -2.427853584289551, 1.115966796875, -0.408203125, 0.057373046875
246, 4118527529, -6.7992682456970215, -0.8579493165016174, 7.129758358001709, -2.459754228591919, -1.704538106918335, -2.4145991802215576, 1.119384765625, -0.406982421875, 0.055419921875
247, 4118544196, -6.796828746795654, -0.8582465052604675, 7.127342224121094, -2.437650680541992, -1.672727346420288, -2.4642879962921143, 1.117431640625, -0.406005859375, 0.056884765625
248, 4118560863, -6.795595645904541, -0.8856796622276306, 7.143922328948975, -2.4093997478485107, -1.7884581089019775, -2.336698055267334, 1.120361328125, -0.407470703125, 0.056884765625
249, 4118577530, -6.794713497161865, -0.8654190897941589, 7.1569623947143555, -2.275944232940674, -1.7866522073745728, -2.2999563217163086, 1.117919921875, -0.407470703125, 0.057861328125
250, 4118594197, -6.795105457305908, -0.845423698425293, 7.138166904449463, -2.402689218521118, -1.7947590351104736, -2.3687140941619873, 1.118896484375, -0.40966796875, 0.057373046875
251, 4118610864, -6.804711818695068, -0.8554477095603943, 7.143842697143555, -2.260845899581909, -1.8104594945907593, -2.4121272563934326, 1.117919921875, -0.407470703125, 0.056884765625
252, 4118627531, -6.81412935256958, -0.8524180054664612, 7.161524295806885, -2.4665286540985107, -1.7189964056015015, -2.485751152038574, 1.117919921875, -0.407470703125, 0.0537109375
253, 4118644198, -6.798633575439453, -0.8658616542816162, 7.1511006355285645, -2.4430036544799805, -1.6752371788024902, -2.553637742996216, 1.116943359375, -0.406494140625, 0.056884765625
254, 4118660865, -6.772127628326416, -0.8743057250976562, 7.150782108306885, -2.4321818351745605, -1.578023910522461, -2.43379545211792, 1.118408203125, -0.407958984375, 0.057373046875
255, 4118677532, -6.808045387268066, -0.8516806364059448, 7.137218475341797, -2.563511610031128, -1.5943524837493896, -2.4415950775146484, 1.11572265625, -0.407958984375, 0.058837890625
256, 4118694199, -6.797268867492676, -0.8613147139549255, 7.1252546310424805, -2.4946680068969727, -1.5100980997085571, -2.4055283069610596, 1.118408203125, -0.407958984375, 0.056884765625
257, 4118710866, -6.791866779327393, -0.855852484703064, 7.136439323425293, -2.5683650970458984, -1.45095956325531, -2.50447416305542, 1.119384765625, -0.4091796875, 0.056396484375
258, 4118727533, -6.79362154006958, -0.870288610458374, 7.137500286102295, -2.5975379943847656, -1.5275673866271973, -2.496290683746338, 1.118408203125, -0.406005859375, 0.057373046875
259, 4118744200, -6.795224189758301, -0.8620240092277527, 7.14190673828125, -2.6555118560791016, -1.655092477798462, -2.6337411403656006, 1.116943359375, -0.407958984375, 0.056396484375
260, 4118760867, -6.800472259521484, -0.8600724339485168, 7.137124061584473, -2.5367207527160645, -1.6940627098083496, -2.6029038429260254, 1.116943359375, -0.40869140625, 0.057373046875
261, 4118777534, -6.7933526039123535, -0.8776881694793701, 7.129820823669434, -2.6099603176116943, -1.6351919174194336, -2.5672895908355713, 1.118408203125, -0.406494140625, 0.05908203125
262, 4118794201, -6.781076908111572, -0.8918633460998535, 7.162511348724365, -2.616286516189575, -1.7044358253479004, -2.608154535293579, 1.118896484375, -0.405517578125, 0.057373046875
263, 4118810868, -6.793665409088135, -0.8750232458114624, 7.132159233093262, -2.7324907779693604, -1.682587742805481, -2.5805563926696777, 1.119873046875, -0.407958984375, 0.056884765625
264, 4118827535, -6.796432018280029, -0.8656803369522095, 7.1581501960754395, -2.668292284011841, -1.7508327960968018, -2.694622039794922, 1.119384765625, -0.406982421875, 0.055419921875
265, 4118844202, -6.784489154815674, -0.8748422265052795, 7.1482133865356445, -2.8103790283203125, -1.411259651184082, -2.7734837532043457, 1.118896484375, -0.406982421875, 0.056396484375
266, 4118860869, -6.785447120666504, -0.8706650137901306, 7.125058650970459, -3.0343618392944336, -1.2043218612670898, -2.977386713027954, 1.118408203125, -0.406005859375, 0.055419921875
267, 4118877536, -6.805486679077148, -0.9022337794303894, 7.14568567276001, -2.9913711547851562, -1.1864315271377563, -2.8309075832366943, 1.119873046875, -0.407958984375, 0.05908203125
268, 4118894203, -6.795118808746338, -0.8549402356147766, 7.132608890533447, -3.104605197906494, -1.0273126363754272, -3.015434503555298, 1.118896484375, -0.407470703125, 0.055419921875
269, 4118910870, -6.805549621582031, -0.8482619524002075, 7.144779682159424, -3.3808515071868896, -0.6757399439811707, -3.263826847076416, 1.118408203125, -0.407470703125, 0.056884765625
270, 4118927537, -6.798781394958496, -0.9121296405792236, 7.121344566345215, -3.3552772998809814, -0.8272391557693481, -3.221578598022461, 1.119384765625, -0.403564453125, 0.057373046875
271, 4118944204, -6.784087181091309, -0.9207419753074646, 7.148298740386963, -3.2232308387756348, -1.086580514907837, -3.0276520252227783, 1.117919921875, -0.403564453125, 0.057373046875
272, 4118960871, -6.775264739990234, -0.867424488067627, 7.1172637939453125, -3.197284460067749, -0.9650480151176453, -3.009991407394409, 1.118896484375, -0.405517578125, 0.057861328125
273, 4118977538, -6.780213356018066, -0.9176961779594421, 7.118457794189453, -3.1982839107513428, -1.0593541860580444, -3.0022313594818115, 1.119384765625, -0.405029296875, 0.057373046875
274, 4118994205, -6.790120601654053, -0.9137633442878723, 7.1110639572143555, -2.8211746215820312, -1.2683537006378174, -2.8242483139038086, 1.118408203125, -0.404541015625, 0.056884765625
275, 4119010872, -6.774003505706787, -0.911669909954071, 7.123931884765625, -2.6655523777008057, -1.5491715669631958, -2.535836935043335, 1.119873046875, -0.405029296875, 0.05908203125
276, 4119027539, -6.7897491455078125, -0.9002636671066284, 7.132353782653809, -2.6172211170196533, -1.6530438661575317, -2.4014980792999268, 1.119873046875, -0.404052734375, 0.056396484375
277, 4119044206, -6.814067363739014, -0.903086245059967, 7.150418758392334, -2.535248041152954, -1.6183003187179565, -2.4086573123931885, 1.118896484375, -0.404541015625, 0.058837890625
278, 4119060873, -6.809012413024902, -0.9032729268074036, 7.134416103363037, -2.6879892349243164, -1.392076015472412, -2.538679838180542, 1.118896484375, -0.404052734375, 0.058349609375
279, 4119077540, -6.802901744842529, -0.9028517603874207, 7.139812469482422, -2.6357386112213135, -1.3500709533691406, -2.385528326034546, 1.117919921875, -0.40283203125, 0.060546875
280, 4119094207, -6.77754020690918, -0.9349046349525452, 7.129096031188965, -2.5878689289093018, -1.4284460544586182, -2.337876081466675, 1.119384765625, -0.403564453125, 0.057861328125
281, 4119110874, -6.789222717285156, -0.9090897440910339, 7.125739097595215, -2.436241626739502, -1.3981845378875732, -2.155923366546631, 1.118408203125, -0.404052734375, 0.058349609375
282, 4119127541, -6.808388710021973, -0.8989129662513733, 7.135283470153809, -2.3177568912506104, -1.4442102909088135, -2.0723488330841064, 1.116943359375, -0.404052734375, 0.06103515625
283, 4119144208, -6.809154510498047, -0.9307501316070557, 7.104541301727295, -2.232914686203003, -1.6223852634429932, -1.9565668106079102, 1.116943359375, -0.404541015625, 0.058349609375
284, 4119160875, -6.802056312561035, -0.8924746513366699, 7.13570499420166, -2.132359743118286, -1.655796766281128, -1.880240797996521, 1.116943359375, -0.405029296875, 0.0595703125
285, 4119177542, -6.800015926361084, -0.890275776386261, 7.148879051208496, -2.035799980163574, -1.8564724922180176, -1.9487296342849731, 1.119384765625, -0.405517578125, 0.057861328125
286, 4119194209, -6.805568218231201, -0.8776851892471313, 7.150566577911377, -2.1457676887512207, -1.826992154121399, -2.07576847076416, 1.119873046875, -0.405517578125, 0.05859375
287, 4119210876, -6.78956937789917, -0.9100829362869263, 7.129295825958252, -2.1997852325439453, -1.8618003129959106, -2.1586129665374756, 1.117919921875, -0.406005859375, 0.058349609375
288, 4119227543, -6.810572147369385, -0.9051555395126343, 7.129766941070557, -2.2465667724609375, -1.758631944656372, -2.149827718734741, 1.11767578125, -0.40234375, 0.056396484375
289, 4119244210, -6.791594982147217, -0.8963066339492798, 7.128798961639404, -2.165438175201416, -1.8625682592391968, -2.1079888343811035, 1.119384765625, -0.403564453125, 0.05908203125
290, 4119260877, -6.78760290145874, -0.9050313234329224, 7.135106563568115, -2.0372979640960693, -1.7724627256393433, -2.0227243900299072, 1.118896484375, -0.406005859375, 0.057861328125
291, 4119277544, -6.807642459869385, -0.9037561416625977, 7.147032260894775, -2.0225324630737305, -1.8479176759719849, -2.0639352798461914, 1.119873046875, -0.405029296875, 0.0595703125
292, 4119294211, -6.800075054168701, -0.9108442664146423, 7.1183366775512695, -1.8389582633972168, -1.9854670763015747, -1.9860305786132812, 1.118408203125, -0.403564453125, 0.057861328125
293, 4119310878, -6.7926812171936035, -0.9058369994163513, 7.146665096282959, -1.8108818531036377, -2.0752432346343994, -1.9451435804367065, 1.119873046875, -0.406494140625, 0.055908203125
294, 4119327545, -6.793267726898193, -0.8871055841445923, 7.151788234710693, -1.8568437099456787, -1.9071344137191772, -2.0592222213745117, 1.119873046875, -0.404541015625, 0.057861328125
295, 4119344212, -6.790755271911621, -0.911007285118103, 7.119541645050049, -1.8465602397918701, -1.9431713819503784, -2.0007615089416504, 1.118408203125, -0.406005859375, 0.056396484375
296, 4119360879, -6.789393901824951, -0.9066888093948364, 7.128758430480957, -1.8285801410675049, -2.1331918239593506, -1.923974633216858, 1.119873046875, -0.406005859375, 0.057861328125
297, 4119377546, -6.790374755859375, -0.8896539211273193, 7.157537937164307, -1.9094780683517456, -1.9420700073242188, -2.041139841079712, 1.120361328125, -0.407958984375, 0.05810546875
298, 4119394213, -6.797830581665039, -0.87526535987854, 7.136203289031982, -2.1611359119415283, -1.7329809665679932, -2.1297476291656494, 1.117919921875, -0.404541015625, 0.056396484375
299, 4119410880, -6.783918857574463, -0.8676830530166626, 7.139145851135254, -2.4700889587402344, -1.390116572380066, -2.2322492599487305, 1.117919921875, -0.404541015625, 0.055908203125
300, 4119427547, -6.794090270996094, -0.8769793510437012, 7.1517653465271, -2.681342363357544, -1.0683057308197021, -2.513310432434082, 1.118408203125, -0.405029296875, 0.056884765625
301, 4119444214, -6.7859296798706055, -0.8868516087532043, 7.136229515075684, -2.8199074268341064, -1.0241879224777222, -2.602980375289917, 1.117919921875, -0.404541015625, 0.057861328125
302, 4119460881, -6.794775485992432, -0.8774999976158142, 7.151992321014404, -2.908322334289551, -0.9615648984909058, -2.6196417808532715, 1.119384765625, -0.406982421875, 0.058349609375
303, 4119477548, -6.817320346832275, -0.8833001852035522, 7.153050422668457, -3.0173935890197754, -0.8651713132858276, -2.748601198196411, 1.118896484375, -0.405029296875, 0.05908203125
304, 4119494215, -6.789260387420654, -0.9033531546592712, 7.142662048339844, -2.9616856575012207, -0.935759961605072, -2.7337841987609863, 1.1171875, -0.404052734375, 0.058349609375
305, 4119510882, -6.801809787750244, -0.9260709285736084, 7.14650297164917, -2.9099483489990234, -0.9526899456977844, -2.72983980178833, 1.120849609375, -0.405517578125, 0.057861328125
306, 4119527549, -6.812375545501709, -0.930809736251831, 7.123378753662109, -2.6980676651000977, -1.202311635017395, -2.545825958251953, 1.116943359375, -0.405517578125, 0.056884765625
307, 4119544216, -6.7991790771484375, -0.9075712561607361, 7.14158296585083, -2.554008722305298, -1.5914450883865356, -2.440967559814453, 1.118896484375, -0.404541015625, 0.058349609375
308, 4119560883, -6.80840539932251, -0.8881446719169617, 7.125199794769287, -2.5516910552978516, -1.5788438320159912, -2.455195188522339, 1.117919921875, -0.405029296875, 0.059326171875
309, 4119577550, -6.810975074768066, -0.8955075144767761, 7.122036933898926, -2.7833194732666016, -1.4067646265029907, -2.700026512145996, 1.118408203125, -0.404541015625, 0.06005859375
310, 4119594217, -6.806469917297363, -0.9011848568916321, 7.129767417907715, -2.8459553718566895, -1.31947660446167, -2.8173840045928955, 1.118408203125, -0.404541015625, 0.057861328125
311, 4119610884, -6.821394920349121, -0.9053446650505066, 7.126936435699463, -2.9277236461639404, -1.4572601318359375, -2.9638891220092773, 1.119873046875, -0.404541015625, 0.057861328125
312, 4119627551, -6.795650005340576, -0.9238378405570984, 7.0971832275390625, -2.8986406326293945, -1.617838978767395, -2.8817875385284424, 1.120361328125, -0.40234375, 0.0595703125
313, 4119644218, -6.797576904296875, -0.91938316822052, 7.134873867034912, -2.9934840202331543, -1.4383450746536255, -2.8439440727233887, 1.11474609375, -0.404052734375, 0.058349609375
314, 4119660885, -6.790268898010254, -0.9120385050773621, 7.142505168914795, -3.0730628967285156, -1.3626083135604858, -2.9632740020751953, 1.117919921875, -0.40234375, 0.055908203125
315, 4119677552, -6.778294563293457, -0.9184622764587402, 7.119204998016357, -3.108344554901123, -1.265485167503357, -2.9877853393554688, 1.119384765625, -0.40283203125, 0.0595703125
316, 4119694219, -6.788025856018066, -0.9206011295318604, 7.120656490325928, -3.157175302505493, -1.1016407012939453, -3.029982566833496, 1.120361328125, -0.403564453125, 0.05908203125
317, 4119710886, -6.797039985656738, -0.945834219455719, 7.118556976318359, -3.0371155738830566, -1.176660180091858, -2.7982258796691895, 1.118408203125, -0.40283203125, 0.060546875
318, 4119727553, -6.808987140655518, -0.9283835887908936, 7.12936544418335, -2.7850229740142822, -1.103484869003296, -2.552741289138794, 1.119384765625, -0.404052734375, 0.06005859375
319, 4119744220, -6.795164585113525, -0.958367645740509, 7.115737438201904, -2.705495595932007, -1.4144103527069092, -2.655064105987549, 1.119384765625, -0.40087890625, 0.057861328125
320, 4119760887, -6.7881999015808105, -0.9441206455230713, 7.116786479949951, -2.6314103603363037, -1.3560516834259033, -2.49123215675354, 1.119873046875, -0.3994140625, 0.06103515625
321, 4119777554, -6.810100555419922, -0.9386754631996155, 7.109422206878662, -2.5793142318725586, -1.2623603343963623, -2.340859889984131, 1.118408203125, -0.403076171875, 0.059326171875
322, 4119794221, -6.791393280029297, -0.9385474324226379, 7.110104560852051, -2.545607805252075, -1.4060860872268677, -2.3491711616516113, 1.119873046875, -0.40087890625, 0.057861328125
323, 4119810888, -6.810617923736572, -0.9295518398284912, 7.100937366485596, -2.5563008785247803, -1.5306148529052734, -2.20804500579834, 1.119384765625, -0.40185546875, 0.059326171875
324, 4119827555, -6.7971038818359375, -0.9497818350791931, 7.122145175933838, -2.5005807876586914, -1.6108596324920654, -2.2688114643096924, 1.11767578125, -0.40283203125, 0.058349609375
325, 4119844222, -6.803135871887207, -0.9199357628822327, 7.124327659606934, -2.4396862983703613, -1.7507176399230957, -2.191230297088623, 1.118896484375, -0.403564453125, 0.058837890625
326, 4119860889, -6.803776264190674, -0.9217852354049683, 7.1251373291015625, -2.457422971725464, -1.7425341606140137, -2.1809725761413574, 1.120361328125, -0.40234375, 0.06005859375
327, 4119877556, -6.786074638366699, -0.9366061091423035, 7.1343488693237305, -2.512324333190918, -1.5709422826766968, -2.28379487991333, 1.118896484375, -0.403076171875, 0.0595703125
328, 4119894223, -6.7895965576171875, -0.9334786534309387, 7.1250762939453125, -2.5301527976989746, -1.4284881353378296, -2.183864116668701, 1.11669921875, -0.40234375, 0.059814453125
329, 4119910890, -6.793832302093506, -0.937933087348938, 7.137876987457275, -2.4829208850860596, -1.4658021926879883, -2.1272757053375244, 1.118896484375, -0.40087890625, 0.0595703125
330, 4119927557, -6.797971725463867, -0.9448679685592651, 7.0989885330200195, -2.4093613624572754, -1.4734218120574951, -1.9499590396881104, 1.117431640625, -0.403564453125, 0.06298828125
331, 4119944224, -6.807406902313232, -0.9183853268623352, 7.12198543548584, -2.308907985687256, -1.50897216796875, -1.8931753635406494, 1.118408203125, -0.40283203125, 0.0595703125
332, 4119960891, -6.805755615234375, -0.9091404676437378, 7.121424198150635, -2.3356733322143555, -1.385237216949463, -1.9847663640975952, 1.119873046875, -0.40283203125, 0.05908203125
333, 4119977558, -6.801705837249756, -0.9293321371078491, 7.113407135009766, -2.443291187286377, -1.4872461557388306, -2.1160507202148438, 1.1171875, -0.403076171875, 0.06005859375
334, 4119994225, -6.8011579513549805, -0.938201367855072, 7.109215259552002, -2.3909196853637695, -1.4898393154144287, -2.1860053539276123, 1.117919921875, -0.40283203125, 0.06201171875
335, 4120010892, -6.793243885040283, -0.9140159487724304, 7.135104179382324, -2.516038179397583, -1.3875168561935425, -2.1577036380767822, 1.117919921875, -0.4013671875, 0.060546875
336, 4120027559, -6.799403190612793, -0.922185480594635, 7.110525131225586, -2.62954044342041, -0.9556993842124939, -2.1604182720184326, 1.11767578125, -0.40234375, 0.058837890625
337, 4120044226, -6.799458980560303, -0.939940333366394, 7.105652332305908, -2.7468721866607666, -0.9177413582801819, -2.2245397567749023, 1.119873046875, -0.403076171875, 0.0595703125
338, 4120060893, -6.79457426071167, -0.9426251649856567, 7.104383945465088, -2.6548526287078857, -0.7999423146247864, -2.0736491680145264, 1.119873046875, -0.404052734375, 0.06201171875
339, 4120077560, -6.809648513793945, -0.9215338826179504, 7.112287998199463, -2.564087152481079, -0.7730424404144287, -2.0228397846221924, 1.119384765625, -0.40283203125, 0.06201171875
340, 4120094227, -6.816830158233643, -0.9280730485916138, 7.120265960693359, -2.5739223957061768, -0.7459955215454102, -1.9894537925720215, 1.120849609375, -0.404052734375, 0.06201171875
341, 4120110894, -6.822933673858643, -0.9412529468536377, 7.119315147399902, -2.4801416397094727, -0.6467206478118896, -1.9210803508758545, 1.118896484375, -0.40185546875, 0.060546875
342, 4120127561, -6.823498249053955, -0.9446136951446533, 7.092002868652344, -2.4219369888305664, -0.6363347768783569, -1.8428083658218384, 1.120849609375, -0.40185546875, 0.0595703125
343, 4120144228, -6.800947189331055, -0.9595862030982971, 7.10701322555542, -2.359992504119873, -0.6753044128417969, -1.741010308265686, 1.119873046875, -0.40283203125, 0.06201171875
344, 4120160895, -6.8250017166137695, -0.9247648119926453, 7.090487480163574, -2.524810791015625, -0.48117300868034363, -1.6276360750198364, 1.119384765625, -0.403564453125, 0.0634765625
345, 4120177562, -6.807701110839844, -0.9170196652412415, 7.102291107177734, -2.3332273960113525, -0.5261489152908325, -1.6478570699691772, 1.119873046875, -0.40283203125, 0.064208984375
346, 4120194229, -6.811061859130859, -0.9241456985473633, 7.112855434417725, -2.2476038932800293, -0.6340807676315308, -1.5836844444274902, 1.118896484375, -0.40283203125, 0.0634765625
347, 4120210896, -6.829989433288574, -0.9262577295303345, 7.079713821411133, -2.195302963256836, -0.7269012331962585, -1.6357423067092896, 1.120849609375, -0.403564453125, 0.06201171875
348, 4120227563, -6.8332600593566895, -0.9162225723266602, 7.108453750610352, -2.3321516513824463, -0.5537081956863403, -1.853540062904358, 1.119873046875, -0.405517578125, 0.0625
349, 4120244230, -6.835799694061279, -0.9356527924537659, 7.079474449157715, -2.321791172027588, -0.6777632236480713, -1.7544314861297607, 1.121826171875, -0.403564453125, 0.0625
350, 4120260897, -6.828896999359131, -0.9171251058578491, 7.090672492980957, -2.3757314682006836, -0.6730248928070068, -1.6837406158447266, 1.120361328125, -0.404541015625, 0.063720703125
351, 4120277564, -6.835665225982666, -0.9145350456237793, 7.083171844482422, -2.44439959526062, -0.6993291974067688, -1.7124909162521362, 1.120361328125, -0.400390625, 0.0634765625
352, 4120294231, -6.852242469787598, -0.8851820230484009, 7.109256267547607, -2.420656442642212, -0.5904495120048523, -1.6701016426086426, 1.119384765625, -0.403564453125, 0.06298828125
353, 4120310898, -6.835190296173096, -0.9276600480079651, 7.098293304443359, -2.4298899173736572, -0.6456577777862549, -1.8703035116195679, 1.120849609375, -0.405517578125, 0.065673828125
354, 4120327565, -6.829142093658447, -0.9144012331962585, 7.085565090179443, -2.300302028656006, -0.49452999234199524, -1.8041712045669556, 1.120849609375, -0.403564453125, 0.064697265625
355, 4120344232, -6.863709926605225, -0.9051840305328369, 7.106621265411377, -2.4757747650146484, -0.24528002738952637, -1.7530357837677002, 1.121826171875, -0.404541015625, 0.062744140625
356, 4120360899, -6.855842113494873, -0.8834392428398132, 7.091392517089844, -2.6132636070251465, -0.14824628829956055, -1.9551708698272705, 1.121337890625, -0.404052734375, 0.067138671875
357, 4120377566, -6.867176055908203, -0.9186121225357056, 7.068371772766113, -2.6039793491363525, -0.27577197551727295, -2.13114333152771, 1.121826171875, -0.4033203125, 0.065673828125
358, 4120394233, -6.8553876876831055, -0.9072068333625793, 7.0685319900512695, -2.6661925315856934, -0.5212056636810303, -2.1832523345947266, 1.1220703125, -0.406005859375, 0.065185546875
359, 4120410900, -6.858408451080322, -0.8883854150772095, 7.072773456573486, -2.8274691104888916, -0.5629094839096069, -2.443790912628174, 1.120361328125, -0.40234375, 0.066162109375
360, 4120427567, -6.844385147094727, -0.9159348011016846, 7.080425262451172, -2.9629929065704346, -0.5041220188140869, -2.6727495193481445, 1.120849609375, -0.404541015625, 0.066162109375
361, 4120444234, -6.839016437530518, -0.914260983467102, 7.120196342468262, -3.163027286529541, 0.016641849651932716, -2.7271885871887207, 1.123046875, -0.40283203125, 0.065185546875
362, 4120460901, -6.868593692779541, -0.9037831425666809, 7.066130638122559, -3.449646234512329, 0.39425623416900635, -2.7821409702301025, 1.121826171875, -0.403564453125, 0.067626953125
363, 4120477568, -6.863213539123535, -0.9144856333732605, 7.076398849487305, -3.5200047492980957, 0.5669692158699036, -2.875589370727539, 1.120849609375, -0.404541015625, 0.06787109375
364, 4120494235, -6.861648082733154, -0.9287359714508057, 7.046055793762207, -3.382248640060425, 0.559776782989502, -2.823028802871704, 1.121826171875, -0.404541015625, 0.068359375
365, 4120510902, -6.8608880043029785, -0.9586461186408997, 7.053421974182129, -3.1480438709259033, 0.3344954252243042, -2.662837028503418, 1.12451171875, -0.403564453125, 0.06787109375
366, 4120527569, -6.898276329040527, -0.9336589574813843, 7.055342674255371, -2.833200216293335, 0.28283464908599854, -2.424575090408325, 1.121826171875, -0.400390625, 0.067626953125
367, 4120544236, -6.886134147644043, -0.9459661245346069, 7.059980392456055, -2.7603707313537598, 0.18408489227294922, -2.338926076889038, 1.121337890625, -0.40234375, 0.06982421875
368, 4120560903, -6.888210773468018, -0.9331633448600769, 7.056878089904785, -2.645087480545044, 0.2646495997905731, -2.2334144115448, 1.12353515625, -0.4033203125, 0.07080078125
369, 4120577570, -6.910196304321289, -0.9207383394241333, 7.041693687438965, -2.621344566345215, 0.19317735731601715, -2.260448455810547, 1.121826171875, -0.40234375, 0.072509765625
370, 4120594237, -6.907243728637695, -0.9369964599609375, 7.057351112365723, -2.583860158920288, -0.2641693651676178, -2.2095818519592285, 1.12451171875, -0.404541015625, 0.0712890625
371, 4120610904, -6.907796859741211, -0.9617124199867249, 7.021262168884277, -2.399333953857422, -0.3721269369125366, -1.9416218996047974, 1.12451171875, -0.4033203125, 0.06982421875
372, 4120627571, -6.904696464538574, -0.9401479959487915, 7.03955602645874, -2.266979932785034, -0.6429684162139893, -1.7120808362960815, 1.1240234375, -0.4033203125, 0.073486328125
373, 4120644238, -6.917666435241699, -0.9358472228050232, 7.007448196411133, -2.2650976181030273, -0.8585761785507202, -1.521010160446167, 1.12353515625, -0.404052734375, 0.0703125
374, 4120660905, -6.934205532073975, -0.9214263558387756, 7.025799751281738, -2.036324977874756, -1.2249786853790283, -1.6191322803497314, 1.1240234375, -0.40234375, 0.072021484375
375, 4120677572, -6.92458438873291, -0.9049023389816284, 6.990988254547119, -1.9324651956558228, -1.8464962244033813, -1.776279091835022, 1.123046875, -0.404052734375, 0.0703125
376, 4120694239, -6.913450717926025, -0.8987529277801514, 7.02551794052124, -2.0422801971435547, -2.192908525466919, -2.0384764671325684, 1.12548828125, -0.404541015625, 0.073486328125
377, 4120710906, -6.905167579650879, -0.9264696836471558, 7.049849987030029, -2.2062783241271973, -2.228330612182617, -2.265443801879883, 1.12353515625, -0.403564453125, 0.0712890625
378, 4120727573, -6.911398410797119, -0.9042254090309143, 7.02100944519043, -2.4757368564605713, -2.0459043979644775, -2.4439384937286377, 1.123046875, -0.40185546875, 0.07177734375
379, 4120744240, -6.901098251342773, -0.9103444814682007, 7.027444362640381, -2.683058500289917, -1.8084232807159424, -2.8529348373413086, 1.12255859375, -0.403564453125, 0.07080078125
380, 4120760907, -6.877485752105713, -0.9357814192771912, 7.042355537414551, -2.9089627265930176, -1.7979220151901245, -3.0000412464141846, 1.12548828125, -0.40234375, 0.0712890625
381, 4120777574, -6.886154651641846, -0.9257826805114746, 7.073322772979736, -2.9629030227661133, -1.544087290763855, -2.84648060798645, 1.12353515625, -0.40234375, 0.07080078125
382, 4120794241, -6.889831066131592, -0.9488914012908936, 7.063358306884766, -2.9960968494415283, -1.0770268440246582, -2.8949649333953857, 1.12451171875, -0.4033203125, 0.072509765625
383, 4120810908, -6.885020732879639, -0.9260995388031006, 7.045997142791748, -3.020415782928467, -0.7626565098762512, -2.6858885288238525, 1.12451171875, -0.40283203125, 0.068359375
384, 4120827575, -6.8948974609375, -0.9383912086486816, 7.049482822418213, -2.927314281463623, -0.3437609076499939, -2.4242422580718994, 1.125, -0.40283203125, 0.0703125
385, 4120844242, -6.903641223907471, -0.9889919757843018, 7.007848739624023, -2.5027451515197754, -0.6480909585952759, -1.7183176279067993, 1.122802734375, -0.40234375, 0.072265625
386, 4120860909, -6.930614471435547, -0.9473259449005127, 7.031010150909424, -1.9129869937896729, -0.845808207988739, -0.8217706680297852, 1.125, -0.40185546875, 0.072509765625
387, 4120877576, -6.905788421630859, -0.8691890835762024, 7.0407938957214355, -2.1604056358337402, -0.044489264488220215, -0.7879747152328491, 1.1259765625, -0.404541015625, 0.072021484375
388, 4120894243, -6.901501655578613, -0.8318753242492676, 7.019939422607422, -2.4871978759765625, 0.6738765835762024, -1.281352162361145, 1.1240234375, -0.403564453125, 0.07080078125
389, 4120910910, -6.910789489746094, -0.9198798537254333, 6.986672401428223, -2.3466739654541016, 0.21040190756320953, -1.4722051620483398, 1.126953125, -0.40380859375, 0.071533203125
390, 4120927577, -6.944808483123779, -0.7793369889259338, 7.032932758331299, -2.2043826580047607, -0.43938589096069336, -2.006396532058716, 1.12548828125, -0.4033203125, 0.071044921875
391, 4120944244, -6.872585296630859, -0.985621452331543, 6.964658737182617, -1.4123739004135132, -2.115262985229492, -2.210952043533325, 1.12548828125, -0.404541015625, 0.072509765625
392, 4120960911, -6.791117191314697, -0.9996566772460938, 6.988051414489746, -0.42367249727249146, -4.813522815704346, -1.6215016841888428, 1.127685546875, -0.405517578125, 0.072998046875
393, 4120977578, -6.798121929168701, -0.7020273208618164, 6.974857807159424, 0.12115449458360672, -7.83264684677124, -1.3868125677108765, 1.12548828125, -0.404541015625, 0.072021484375
394, 4120994245, -6.830832481384277, -0.2346794605255127, 6.859572410583496, -1.4638948440551758, -14.229055404663086, -4.848115921020508, 1.12353515625, -0.405517578125, 0.06787109375
395, 4121010912, -6.714273929595947, -0.4212765097618103, 7.2226104736328125, -7.137938022613525, -16.664430618286133, -11.812275886535645, 1.121826171875, -0.4013671875, 0.063720703125
396, 4121027579, -6.643301963806152, -1.4806969165802002, 7.431604862213135, -10.950655937194824, -5.162039756774902, -11.219500541687012, 1.120361328125, -0.39990234375, 0.06103515625
397, 4121044246, -6.901482582092285, -2.1395516395568848, 6.836090564727783, -7.010531902313232, -1.5474685430526733, -5.42341423034668, 1.120361328125, -0.395263671875, 0.06103515625
398, 4121060913, -6.910551071166992, -1.8397724628448486, 6.842386722564697, 0.7814627885818481, -3.812258720397949, 3.906827211380005, 1.120361328125, -0.396728515625, 0.06201171875
399, 4121077580, -6.93483829498291, -0.9748225212097168, 6.993044853210449, 4.543381214141846, -7.809852600097656, 6.621493816375732, 1.11669921875, -0.39990234375, 0.0625
400, 4121094247, -6.935178756713867, -0.5455155372619629, 7.119373798370361, 4.226144313812256, -9.939836502075195, 4.708901882171631, 1.1171875, -0.4013671875, 0.058837890625
401, 4121110914, -6.80733060836792, -0.5921427607536316, 7.217655658721924, 1.5806435346603394, -10.096287727355957, 0.9670271873474121, 1.117431640625, -0.403564453125, 0.055419921875
402, 4121127581, -6.723580360412598, -0.9251700043678284, 7.192062854766846, -0.9956044554710388, -8.198986053466797, -1.0048506259918213, 1.11474609375, -0.4013671875, 0.0546875
403, 4121144248, -6.757613182067871, -0.9368113279342651, 7.200122356414795, -2.240560531616211, -6.4362030029296875, -1.0251612663269043, 1.1142578125, -0.400390625, 0.05419921875
404, 4121160915, -6.788558483123779, -0.9619849920272827, 7.253256320953369, -3.6405889987945557, -3.750967025756836, -1.6128700971603394, 1.115234375, -0.39990234375, 0.0556640625
405, 4121177582, -6.757043838500977, -1.02737557888031, 7.25521993637085, -4.266666412353516, -1.0000351667404175, -1.134232997894287, 1.112060546875, -0.39990234375, 0.05615234375
406, 4121194249, -6.7663469314575195, -1.0407644510269165, 7.205780506134033, -4.245970726013184, 0.9366692900657654, -0.1726808249950409, 1.112548828125, -0.3994140625, 0.05712890625
407, 4121210916, -6.748779773712158, -1.3146175146102905, 7.175670146942139, -3.092477798461914, 2.399890661239624, 2.083509922027588, 1.112548828125, -0.40087890625, 0.056640625
408, 4121227583, -6.784888744354248, -1.977825403213501, 7.046796798706055, 0.08048152178525925, 2.9706320762634277, 6.976919651031494, 1.11376953125, -0.4013671875, 0.059326171875
409, 4121244250, -6.99220085144043, -2.2745821475982666, 6.7052083015441895, 6.9748382568359375, -2.665900230407715, 14.34797191619873, 1.111328125, -0.406982421875, 0.057861328125
410, 4121260917, -7.086165904998779, -0.45694705843925476, 6.911157608032227, 11.708800315856934, -14.947604179382324, 17.00684928894043, 1.11328125, -0.4130859375, 0.057861328125
411, 4121277584, -6.801647186279297, -0.1842617392539978, 7.312646865844727, 10.838127136230469, -22.29139518737793, 12.534281730651855, 1.11181640625, -0.41845703125, 0.052734375
412, 4121294251, -6.648204326629639, -1.2219444513320923, 7.499222278594971, 9.987189292907715, -19.659095764160156, 13.32442855834961, 1.10986328125, -0.42333984375, 0.049560546875
413, 4121310918, -6.582897186279297, -1.1149593591690063, 7.427266597747803, 10.3229341506958, -12.880860328674316, 18.79619789123535, 1.10546875, -0.427978515625, 0.049072265625
414, 4121327585, -6.414161682128906, 0.09299544990062714, 7.519783020019531, 10.219025611877441, -6.898525714874268, 21.0965576171875, 1.10595703125, -0.435791015625, 0.0439453125
415, 4121344252, -6.401910305023193, 0.8841122984886169, 7.485833644866943, 6.138300895690918, -0.4610546827316284, 15.73404598236084, 1.104736328125, -0.43896484375, 0.048828125
416, 4121360919, -6.517367839813232, 1.3532335758209229, 7.398371696472168, 0.17296896874904633, 3.7848336696624756, 5.540648460388184, 1.105224609375, -0.445068359375, 0.0478515625
417, 4121377586, -6.676648139953613, 1.13852858543396, 7.234935760498047, -6.812827110290527, 4.12764835357666, -7.450929641723633, 1.106689453125, -0.444580078125, 0.0517578125
418, 4121394253, -6.743402004241943, 0.06618578732013702, 7.134815692901611, -9.78055191040039, -0.18187597393989563, -15.127633094787598, 1.107177734375, -0.44140625, 0.04931640625
419, 4121410920, -6.675617218017578, -0.39146289229393005, 7.201803207397461, -7.325477123260498, -5.859480381011963, -15.104113578796387, 1.108154296875, -0.43896484375, 0.04833984375
420, 4121427587, -6.67310905456543, -0.09077578783035278, 7.439199447631836, -6.108802795410156, -7.170220851898193, -16.259845733642578, 1.10595703125, -0.4326171875, 0.045166015625
421, 4121444254, -6.616448402404785, -0.16877393424510956, 7.532842636108398, -9.166263580322266, -3.6260476112365723, -20.225284576416016, 1.10546875, -0.43017578125, 0.0439453125
422, 4121460921, -6.62315559387207, -1.6237797737121582, 7.2567267417907715, -8.918954849243164, -0.4906119108200073, -17.212894439697266, 1.102783203125, -0.423095703125, 0.0439453125
423, 4121477588, -6.704481601715088, -1.9111084938049316, 7.23713493347168, -4.825063228607178, -0.9670591950416565, -9.186561584472656, 1.105224609375, -0.42236328125, 0.04296875
424, 4121494255, -6.6641316413879395, -0.9296452403068542, 7.493631839752197, -2.966744899749756, 1.6067423820495605, -3.9597368240356445, 1.10693359375, -0.4208984375, 0.0439453125
425, 4121510922, -6.747636318206787, 0.009468737989664078, 7.351263999938965, -5.646961688995361, 5.024169921875, -6.360339641571045, 1.105712890625, -0.42041015625, 0.046875
426, 4121527589, -6.75473690032959, -0.27780288457870483, 7.345959663391113, -8.956933975219727, 6.627592086791992, -11.184191703796387, 1.107421875, -0.417724609375, 0.047607421875
427, 4121544256, -6.778280735015869, -0.9332188963890076, 7.22644567489624, -10.035270690917969, 8.088825225830078, -11.96201229095459, 1.107421875, -0.416748046875, 0.049072265625
428, 4121560923, -6.83552360534668, -0.9913836121559143, 7.156976699829102, -9.748701095581055, 8.97530460357666, -9.700318336486816, 1.1123046875, -0.415283203125, 0.05126953125
429, 4121577590, -6.840622425079346, -0.7198779582977295, 7.16087532043457, -10.467459678649902, 9.540030479431152, -8.485879898071289, 1.11328125, -0.414794921875, 0.054443359375
430, 4121594257, -6.867489814758301, -0.7472524642944336, 7.097654819488525, -11.555615425109863, 6.595820903778076, -10.52449893951416, 1.114013671875, -0.415283203125, 0.054443359375
431, 4121610924, -6.818854808807373, -1.271199345588684, 7.087588787078857, -11.03395938873291, 4.352132320404053, -10.483823776245117, 1.115478515625, -0.414794921875, 0.05126953125
432, 4121627591, -6.920135021209717, -1.4727033376693726, 7.04063606262207, -10.337971687316895, 3.3993003368377686, -8.818777084350586, 1.117919921875, -0.41259765625, 0.053466796875
433, 4121644258, -6.507044315338135, -0.9691979885101318, 7.229546546936035, -8.184130668640137, 1.065725564956665, -6.949739456176758, 1.118896484375, -0.41064453125, 0.05322265625
434, 4121660925, -6.832616329193115, -0.9824190735816956, 7.245124340057373, -9.704862594604492, 5.009494304656982, -7.206981658935547, 1.120361328125, -0.408203125, 0.054931640625
435, 4121677592, -6.835256099700928, -1.3722047805786133, 6.969267845153809, -8.045145034790039, 4.941466808319092, -5.050275802612305, 1.120849609375, -0.408447265625, 0.05810546875
436, 4121694259, -6.738779544830322, -0.9859878420829773, 7.0961408615112305, -5.2358574867248535, 2.453479051589966, -3.0354995727539062, 1.121337890625, -0.407958984375, 0.05859375
437, 4121710926, -6.677683353424072, -1.2053194046020508, 6.961999416351318, -3.442744493484497, 0.7268180251121521, -1.5778449773788452, 1.12353515625, -0.405517578125, 0.05859375
438, 4121727593, -6.704782962799072, -1.2501823902130127, 6.907787322998047, -0.8619056344032288, -1.7403826713562012, 0.1275320202112198, 1.121826171875, -0.405029296875, 0.05810546875
439, 4121744260, -6.771608352661133, -1.1710463762283325, 6.944735527038574, 0.7144598364830017, -3.288862466812134, 0.943488597869873, 1.1220703125, -0.408447265625, 0.05908203125
440, 4121760927, -6.752502918243408, -0.9455887079238892, 7.069822311401367, 2.1585805416107178, -3.446406364440918, 1.3128235340118408, 1.12109375, -0.40966796875, 0.05908203125
441, 4121777594, -6.755865097045898, -0.6763061881065369, 7.149465560913086, 2.7016854286193848, -3.6658692359924316, 0.738804817199707, 1.12255859375, -0.41162109375, 0.05712890625
442, 4121794261, -6.822774410247803, -0.6058212518692017, 7.178150177001953, 1.7312711477279663, -3.033721446990967, -0.6964860558509827, 1.12255859375, -0.41259765625, 0.05712890625
443, 4121810928, -6.8121724128723145, -0.9710092544555664, 7.1699957847595215, 1.0248090028762817, -2.322636604309082, -1.3163903951644897, 1.1220703125, -0.4130859375, 0.05712890625
444, 4121827595, -6.855796813964844, -1.0937693119049072, 7.119386672973633, 1.928022027015686, -3.25524640083313, 0.09059213101863861, 1.12158203125, -0.4111328125, 0.056884765625
445, 4121844262, -6.88583517074585, -1.1816177368164062, 7.1097731590271, 2.9721553325653076, -4.9173054695129395, 1.9120711088180542, 1.12255859375, -0.413818359375, 0.052978515625
446, 4121860929, -6.824531078338623, -0.8768348097801208, 7.168524265289307, 2.6435189247131348, -5.270581245422363, 2.7469940185546875, 1.12255859375, -0.417236328125, 0.054443359375
447, 4121877596, -6.784529685974121, -0.5758894681930542, 7.274129390716553, 1.259946584701538, -3.3677120208740234, 1.6972066164016724, 1.12158203125, -0.418701171875, 0.054931640625
448, 4121894263, -6.7839226722717285, -0.6403630375862122, 7.2304182052612305, -0.1868574470281601, -1.2062556743621826, 0.1718035787343979, 1.12109375, -0.41943359375, 0.053955078125
449, 4121910930, -6.818479061126709, -0.7215893864631653, 7.113302707672119, -1.237797737121582, 0.12362609058618546, -1.0355726480484009, 1.12109375, -0.419921875, 0.054931640625
450, 4121927597, -6.768645286560059, -0.808505117893219, 7.073329925537109, -1.8295150995254517, 0.17887265980243683, -1.898848533630371, 1.1201171875, -0.4189453125, 0.05712890625
451, 4121944264, -6.70143461227417, -0.8495905995368958, 7.074941635131836, -2.0971808433532715, 0.6457793712615967, -2.2258846759796143, 1.12060546875, -0.418212890625, 0.054443359375
452, 4121960931, -6.740635395050049, -0.7759383916854858, 7.0970683097839355, -2.1322953701019287, 1.5103487968444824, -2.0417163372039795, 1.121337890625, -0.42333984375, 0.0556640625
453, 4121977598, -6.740846633911133, -0.7398471236228943, 7.113325119018555, -2.1046979427337646, 2.23235821723938, -1.807949423789978, 1.12158203125, -0.42138671875, 0.05517578125
454, 4121994265, -6.842784404754639, -0.7065867185592651, 7.080044746398926, -2.0862059593200684, 2.1935935020446777, -2.0510010719299316, 1.123291015625, -0.421875, 0.059326171875
455, 4122010932, -6.8378167152404785, -0.9508713483810425, 7.0371479988098145, -2.176464796066284, 0.5970768928527832, -2.1723287105560303, 1.124267578125, -0.4208984375, 0.059326171875
456, 4122027599, -6.803893089294434, -1.0064822435379028, 7.004878520965576, -1.868510365486145, -1.1894792318344116, -1.525697112083435, 1.124267578125, -0.41943359375, 0.05712890625
457, 4122044266, -6.831540584564209, -0.9428950548171997, 7.077613353729248, -1.3572298288345337, -1.9560675621032715, -0.5554882287979126, 1.122802734375, -0.42138671875, 0.05810546875
458, 4122060933, -6.919856548309326, -0.7086458206176758, 7.099532127380371, -1.4173684120178223, -2.6837499141693115, -0.638319730758667, 1.1220703125, -0.4208984375, 0.05712890625
459, 4122077600, -6.905691146850586, -0.6644162535667419, 7.163165092468262, -1.9635595083236694, -2.906324625015259, -1.8571131229400635, 1.125244140625, -0.4208984375, 0.0576171875
460, 4122094267, -6.850608825683594, -0.7230920195579529, 7.1580281257629395, -2.5159099102020264, -2.373964309692383, -2.704291343688965, 1.124755859375, -0.4228515625, 0.0576171875
461, 4122110934, -6.80544376373291, -0.747353732585907, 7.125527858734131, -2.81219744682312, -2.2282919883728027, -3.336771249771118, 1.122802734375, -0.42041015625, 0.0576171875
462, 4122127601, -6.808909893035889, -0.8408670425415039, 7.0802388191223145, -2.7259597778320312, -2.1604952812194824, -3.366943359375, 1.1220703125, -0.4189453125, 0.0576171875
463, 4122144268, -6.771536827087402, -0.9377827048301697, 7.045123100280762, -2.3641676902770996, -2.8333797454833984, -3.0110549926757812, 1.1220703125, -0.419921875, 0.05615234375
464, 4122160935, -6.730815887451172, -0.9780338406562805, 7.125216960906982, -1.555549144744873, -3.2448861598968506, -1.869420051574707, 1.124755859375, -0.418701171875, 0.056640625
465, 4122177602, -6.807344436645508, -0.8719518780708313, 7.0887041091918945, -1.2554320096969604, -3.09515380859375, -0.9833356142044067, 1.12158203125, -0.42041015625, 0.05615234375
466, 4122194269, -6.830540657043457, -0.7219545841217041, 7.145206451416016, -1.2907391786575317, -2.759819507598877, -1.0211013555526733, 1.123779296875, -0.42236328125, 0.05615234375
467, 4122210936, -6.84773063659668, -0.7328970432281494, 7.155089855194092, -1.5402581691741943, -2.5971662998199463, -1.487905740737915, 1.12158203125, -0.4208984375, 0.054931640625
468, 4122227603, -6.810981273651123, -0.7643606662750244, 7.154447078704834, -1.7438021898269653, -2.378984212875366, -1.7806075811386108, 1.124267578125, -0.4208984375, 0.053955078125
469, 4122244270, -6.790826320648193, -0.801487386226654, 7.142512321472168, -2.1125738620758057, -1.9392529726028442, -2.135587215423584, 1.1220703125, -0.42041015625, 0.054443359375
470, 4122260937, -6.762127876281738, -0.8361751437187195, 7.150937557220459, -2.19966983795166, -1.2399108409881592, -2.0319581031799316, 1.12158203125, -0.42236328125, 0.053466796875
471, 4122277604, -6.8262200355529785, -0.7301985025405884, 7.157104015350342, -2.214179277420044, -0.8025099039077759, -1.818258285522461, 1.122802734375, -0.4208984375, 0.053466796875
472, 4122294271, -6.853349685668945, -0.7582776546478271, 7.1342854499816895, -2.3643455505371094, -0.7342463135719299, -1.9849159717559814, 1.12158203125, -0.4228515625, 0.054931640625
473, 4122310938, -6.869621753692627, -0.7813453674316406, 7.105215549468994, -2.5659825801849365, -0.9520752429962158, -2.0690832138061523, 1.121826171875, -0.421875, 0.054443359375
474, 4122327605, -6.817856788635254, -0.8369830250740051, 7.106127738952637, -2.4092328548431396, -1.2643964290618896, -2.0627057552337646, 1.12255859375, -0.419921875, 0.054443359375
475, 4122344272, -6.821352481842041, -0.8104366660118103, 7.109192371368408, -2.153925657272339, -1.2566102743148804, -1.7537400722503662, 1.122314453125, -0.42138671875, 0.056640625
476, 4122360939, -6.84536600112915, -0.7613121271133423, 7.1159772872924805, -2.1076819896698, -1.52559494972229, -1.8418350219726562, 1.122802734375, -0.42236328125, 0.054443359375
477, 4122377606, -6.848698616027832, -0.7392137050628662, 7.107618808746338, -2.0794055461883545, -1.8083717823028564, -2.164247512817383, 1.11962890625, -0.42138671875, 0.055908203125
478, 4122394273, -6.842621803283691, -0.7361821532249451, 7.141396522521973, -2.329718828201294, -1.8933807611465454, -2.5620899200439453, 1.122802734375, -0.42138671875, 0.0556640625
479, 4122410940, -6.797873497009277, -0.8063454627990723, 7.141615390777588, -2.6175925731658936, -1.6142022609710693, -2.6714305877685547, 1.12109375, -0.42138671875, 0.052978515625
480, 4122427607, -6.828794479370117, -0.771561324596405, 7.126546382904053, -2.7877635955810547, -1.1319407224655151, -2.645395278930664, 1.122802734375, -0.4208984375, 0.054443359375
481, 4122444274, -6.83370304107666, -0.7714746594429016, 7.131609916687012, -2.870107889175415, -1.3210262060165405, -2.8590946197509766, 1.121826171875, -0.421875, 0.053466796875
482, 4122460941, -6.813693523406982, -0.7988665103912354, 7.115204811096191, -2.864818811416626, -1.3139698505401611, -2.8805575370788574, 1.123291015625, -0.42138671875, 0.056640625
483, 4122477608, -6.811614513397217, -0.799071729183197, 7.1192803382873535, -2.863474130630493, -1.2090986967086792, -2.7739062309265137, 1.1220703125, -0.4208984375, 0.054443359375
484, 4122494275, -6.823319435119629, -0.8031030297279358, 7.103462219238281, -2.6710081100463867, -1.4079174995422363, -2.59101939201355, 1.12158203125, -0.41943359375, 0.056640625
485, 4122510942, -6.80952787399292, -0.8141065835952759, 7.104157447814941, -2.5282680988311768, -1.481221079826355, -2.457615852355957, 1.12158203125, -0.4208984375, 0.05517578125
486, 4122527609, -6.819745063781738, -0.7969648241996765, 7.1279168128967285, -2.4377782344818115, -1.529026746749878, -2.3896517753601074, 1.12255859375, -0.41943359375, 0.054931640625
487, 4122544276, -6.818325042724609, -0.8065022826194763, 7.1152119636535645, -2.37174916267395, -1.4997260570526123, -2.3082168102264404, 1.122802734375, -0.4208984375, 0.05712890625
488, 4122560943, -6.816274642944336, -0.7985401153564453, 7.11849308013916, -2.341231107711792, -1.468555212020874, -2.1891684532165527, 1.12109375, -0.42041015625, 0.053955078125
489, 4122577610, -6.8344879150390625, -0.8036290407180786, 7.110631465911865, -2.3297693729400635, -1.4736521244049072, -2.158522844314575, 1.12255859375, -0.419921875, 0.05712890625
490, 4122594277, -6.815191268920898, -0.810566782951355, 7.091348648071289, -2.36961030960083, -1.5253900289535522, -2.267338752746582, 1.121826171875, -0.421875, 0.0556640625
491, 4122610944, -6.826977729797363, -0.7786714434623718, 7.127869606018066, -2.2550957202911377, -1.6207077503204346, -2.314876079559326, 1.124755859375, -0.42236328125, 0.0556640625
492, 4122627611, -6.826419353485107, -0.7754844427108765, 7.116063594818115, -2.265251398086548, -1.654375672340393, -2.400319814682007, 1.122802734375, -0.4189453125, 0.054931640625
493, 4122644278, -6.82853889465332, -0.7762499451637268, 7.144833087921143, -2.364513874053955, -1.6771327257156372, -2.519098997116089, 1.12158203125, -0.4208984375, 0.0556640625
494, 4122660945, -6.8216094970703125, -0.7879403233528137, 7.128218650817871, -2.4596264362335205, -1.541346788406372, -2.6151978969573975, 1.123291015625, -0.42138671875, 0.05517578125
495, 4122677612, -6.8017578125, -0.8007586002349854, 7.132233619689941, -2.643026113510132, -1.3980053663253784, -2.736999273300171, 1.12255859375, -0.4189453125, 0.05615234375
496, 4122694279, -6.8141398429870605, -0.8072592616081238, 7.130341053009033, -2.768873929977417, -1.2327009439468384, -2.7003087997436523, 1.12109375, -0.41943359375, 0.054931640625
497, 4122710946, -6.841714382171631, -0.821923017501831, 7.100968360900879, -2.6157615184783936, -1.1767373085021973, -2.5763819217681885, 1.12158203125, -0.419921875, 0.05615234375
498, 4122727613, -6.806463241577148, -0.8173390626907349, 7.102330207824707, -2.5121450424194336, -1.4254109859466553, -2.5177156925201416, 1.12255859375, -0.41943359375, 0.05615234375
499, 4122744280, -6.810446262359619, -0.8116628527641296, 7.116661071777344, -2.5635108947753906, -1.3430787324905396, -2.4056215286254883, 1.124755859375, -0.419921875, 0.052978515625
500, 4122760947, -6.8118367195129395, -0.8070782423019409, 7.127377986907959, -2.5496034622192383, -1.2248761653900146, -2.209056854248047, 1.123779296875, -0.42041015625, 0.053466796875
501, 4122777614, -6.819549083709717, -0.8116486072540283, 7.125603675842285, -2.507035255432129, -1.2771902084350586, -2.182061195373535, 1.12255859375, -0.4189453125, 0.056640625
502, 4122794281, -6.813321113586426, -0.8214706778526306, 7.123879432678223, -2.325172185897827, -1.2045269012451172, -2.0657410621643066, 1.122802734375, -0.42041015625, 0.05517578125
503, 4122810948, -6.820507049560547, -0.7922586798667908, 7.095315456390381, -2.167539119720459, -1.2129790782928467, -2.0138628482818604, 1.125732421875, -0.419189453125, 0.05517578125
504, 4122827615, -6.828553199768066, -0.7987874746322632, 7.10345983505249, -2.1016242504119873, -1.3438087701797485, -1.9937821626663208, 1.122314453125, -0.4208984375, 0.05712890625
505, 4122844282, -6.817766189575195, -0.805840790271759, 7.1189284324646, -2.156038522720337, -1.454378604888916, -1.8579450845718384, 1.12255859375, -0.419921875, 0.05615234375
506, 4122860949, -6.845472812652588, -0.7828890681266785, 7.11801290512085, -2.2313013076782227, -1.5407702922821045, -2.0744237899780273, 1.122802734375, -0.42041015625, 0.056640625
507, 4122877616, -6.841723918914795, -0.7897651791572571, 7.102238655090332, -2.2099149227142334, -1.6759541034698486, -2.152939558029175, 1.123291015625, -0.419921875, 0.05810546875
508, 4122894283, -6.822938919067383, -0.8044100999832153, 7.128021717071533, -2.2308473587036133, -1.7322237491607666, -2.1215133666992188, 1.12109375, -0.42041015625, 0.0556640625
509, 4122910950, -6.839519500732422, -0.8012478947639465, 7.147192001342773, -2.2741003036499023, -1.6684112548828125, -2.1413497924804688, 1.123779296875, -0.41943359375, 0.05517578125
510, 4122927617, -6.830495834350586, -0.7822625637054443, 7.139761447906494, -2.369981288909912, -1.3874013423919678, -2.0507190227508545, 1.124267578125, -0.42041015625, 0.0576171875
511, 4122944284, -6.837372779846191, -0.7797445058822632, 7.119356155395508, -2.4695382118225098, -1.4522786140441895, -2.326888084411621, 1.1220703125, -0.419921875, 0.0576171875
512, 4122960951, -6.841574192047119, -0.7966707944869995, 7.108282089233398, -2.2878544330596924, -1.851593255996704, -2.3147475719451904, 1.1220703125, -0.419921875, 0.054931640625
513, 4122977618, -6.8101677894592285, -0.8053579926490784, 7.106297969818115, -2.278749465942383, -1.9446829557418823, -2.3477370738983154, 1.1220703125, -0.41943359375, 0.056640625
514, 4122994285, -6.831427097320557, -0.7835245132446289, 7.125053882598877, -2.3094332218170166, -1.8304758071899414, -2.3465075492858887, 1.12158203125, -0.42138671875, 0.056640625
515, 4123010952, -6.8316497802734375, -0.8158702850341797, 7.121904373168945, -2.2732934951782227, -1.7879842519760132, -2.3793816566467285, 1.123779296875, -0.4208984375, 0.05712890625
516, 4123027619, -6.826089382171631, -0.8052170276641846, 7.130392551422119, -2.291069269180298, -1.7470167875289917, -2.3356478214263916, 1.123046875, -0.418701171875, 0.05517578125
517, 4123044286, -6.830569267272949, -0.7984389066696167, 7.126918315887451, -2.375437021255493, -1.7408438920974731, -2.374476432800293, 1.12158203125, -0.419921875, 0.05712890625
518, 4123060953, -6.810317039489746, -0.7929064631462097, 7.131082057952881, -2.417057514190674, -1.6787458658218384, -2.371799945831299, 1.123779296875, -0.41943359375, 0.05712890625
519, 4123077620, -6.82826042175293, -0.7741873264312744, 7.11626672744751, -2.3851571083068848, -1.5546398162841797, -2.336979627609253, 1.122802734375, -0.42041015625, 0.05615234375
520, 4123094287, -6.820287704467773, -0.7987159490585327, 7.128885269165039, -2.4932172298431396, -1.41499924659729, -2.4830617904663086, 1.122314453125, -0.42138671875, 0.05712890625
521, 4123110954, -6.813724994659424, -0.8237910866737366, 7.1295623779296875, -2.372145414352417, -1.3575242757797241, -2.2472965717315674, 1.124755859375, -0.4208984375, 0.05615234375
522, 4123127621, -6.8361945152282715, -0.8137707710266113, 7.10515022277832, -2.3632452487945557, -1.2934027910232544, -2.1874778270721436, 1.123779296875, -0.42138671875, 0.056640625
523, 4123144288, -6.8107218742370605, -0.807274580001831, 7.105120658874512, -2.2186360359191895, -1.3755301237106323, -2.0777790546417236, 1.123291015625, -0.419189453125, 0.05615234375
524, 4123160955, -6.824685573577881, -0.809848427772522, 7.130916118621826, -2.1543352603912354, -1.5854898691177368, -1.9970604181289673, 1.12109375, -0.42041015625, 0.0556640625
525, 4123177622, -6.832495212554932, -0.8105546236038208, 7.1218132972717285, -2.1336658000946045, -1.624549388885498, -2.1465744972229004, 1.122802734375, -0.41943359375, 0.054931640625
526, 4123194289, -6.826290607452393, -0.8025134801864624, 7.125461101531982, -2.1230876445770264, -1.6342309713363647, -1.9473206996917725, 1.126220703125, -0.42333984375, 0.056640625
527, 4123210956, -6.818544387817383, -0.8012251853942871, 7.127041816711426, -2.1666934490203857, -1.5993465185165405, -1.9521229267120361, 1.122802734375, -0.4189453125, 0.056640625
528, 4123227623, -6.839799404144287, -0.7758054733276367, 7.121381759643555, -2.253699779510498, -1.6696535348892212, -2.1144819259643555, 1.124267578125, -0.419921875, 0.0576171875
529, 4123244290, -6.826293468475342, -0.7913379073143005, 7.119936943054199, -2.308177947998047, -1.7798391580581665, -2.3007118701934814, 1.122314453125, -0.4208984375, 0.054931640625
530, 4123260957, -6.8251953125, -0.7794002890586853, 7.123243808746338, -2.3611066341400146, -1.7437125444412231, -2.1822659969329834, 1.123291015625, -0.4208984375, 0.0556640625
531, 4123277624, -6.824196815490723, -0.7963973879814148, 7.127819061279297, -2.3096506595611572, -1.742726445198059, -2.3025691509246826, 1.123291015625, -0.419189453125, 0.0576171875
532, 4123294291, -6.830689430236816, -0.7950022220611572, 7.101344108581543, -2.340155601501465, -1.7882275581359863, -2.2699131965637207, 1.124267578125, -0.42041015625, 0.05712890625
533, 4123310958, -6.8306121826171875, -0.7835502624511719, 7.131463050842285, -2.3470709323883057, -1.6923719644546509, -2.3964524269104004, 1.122314453125, -0.421875, 0.05615234375
534, 4123327625, -6.824411392211914, -0.8151105046272278, 7.117570400238037, -2.439276933670044, -1.751076579093933, -2.4404423236846924, 1.123779296875, -0.4208984375, 0.056640625
535, 4123344292, -6.814932823181152, -0.7996123433113098, 7.135177135467529, -2.4730985164642334, -1.670293927192688, -2.442401647567749, 1.124267578125, -0.419921875, 0.05615234375
536, 4123360959, -6.820220470428467, -0.7866047620773315, 7.137038230895996, -2.438905715942383, -1.6134209632873535, -2.4559381008148193, 1.12158203125, -0.421875, 0.0556640625
537, 4123377626, -6.828190326690674, -0.8094674348831177, 7.111514568328857, -2.4136641025543213, -1.6670154333114624, -2.38454270362854, 1.1220703125, -0.419921875, 0.06005859375
538, 4123394293, -6.81472110748291, -0.8015463948249817, 7.1147847175598145, -2.2714107036590576, -1.8211398124694824, -2.235809326171875, 1.122314453125, -0.4228515625, 0.056640625
539, 4123410960, -6.809930801391602, -0.7941812872886658, 7.133773326873779, -2.201129913330078, -1.9110660552978516, -2.1824839115142822, 1.125244140625, -0.419921875, 0.0556640625
540, 4123427627, -6.793740272521973, -0.8122854828834534, 7.126720905303955, -2.2508950233459473, -1.79802405834198, -2.1358938217163086, 1.123291015625, -0.419921875, 0.0546875
541, 4123444294, -6.804954528808594, -0.8181688785552979, 7.1029229164123535, -2.223771572113037, -1.4404070377349854, -1.8963004350662231, 1.122802734375, -0.42041015625, 0.056640625
542, 4123460961, -6.823628902435303, -0.8065310716629028, 7.11472749710083, -2.2890706062316895, -1.5341109037399292, -1.937421441078186, 1.123291015625, -0.421875, 0.056640625
543, 4123477628, -6.829751968383789, -0.7873131632804871, 7.103226184844971, -2.3152599334716797, -1.5519888401031494, -2.04017972946167, 1.12060546875, -0.4208984375, 0.056640625
544, 4123494295, -6.817821502685547, -0.7921091914176941, 7.1240925788879395, -2.203712224960327, -1.8166892528533936, -2.10184383392334, 1.122314453125, -0.419921875, 0.05810546875
545, 4123510962, -6.842109680175781, -0.7767622470855713, 7.107431888580322, -2.2437877655029297, -1.9934364557266235, -2.2066750526428223, 1.122802734375, -0.42041015625, 0.05712890625
546, 4123527629, -6.825592994689941, -0.7843229174613953, 7.120319366455078, -2.3622725009918213, -2.108642816543579, -2.449599027633667, 1.122802734375, -0.42138671875, 0.056640625
547, 4123544296, -6.829668998718262, -0.7785462141036987, 7.137467861175537, -2.485302686691284, -2.0583388805389404, -2.5972814559936523, 1.122314453125, -0.42138671875, 0.05615234375
548, 4123560963, -6.817043781280518, -0.7744386196136475, 7.132785797119141, -2.4747116565704346, -1.957309603691101, -2.7031641006469727, 1.12158203125, -0.42138671875, 0.054931640625
549, 4123577630, -6.809199810028076, -0.8039560914039612, 7.1257524490356445, -2.437227725982666, -2.0318684577941895, -2.78147554397583, 1.1220703125, -0.41943359375, 0.05810546875
550, 4123594297, -6.8174357414245605, -0.8029426336288452, 7.11710262298584, -2.4339237213134766, -1.9727669954299927, -2.714792490005493, 1.124267578125, -0.419189453125, 0.05517578125
551, 4123610964, -6.81687593460083, -0.8011071681976318, 7.1267290115356445, -2.436497926712036, -1.9013718366622925, -2.6310648918151855, 1.12158203125, -0.4208984375, 0.05517578125
552, 4123627631, -6.8015241622924805, -0.8033623695373535, 7.134358882904053, -2.453671455383301, -1.8520034551620483, -2.6453568935394287, 1.1220703125, -0.41943359375, 0.055419921875
553, 4123644298, -6.812987327575684, -0.8043999671936035, 7.123257160186768, -2.520507574081421, -1.7377578020095825, -2.5751395225524902, 1.12109375, -0.42138671875, 0.053955078125
554, 4123660965, -6.815816879272461, -0.8014959096908569, 7.133416652679443, -2.4429266452789307, -1.923731803894043, -2.6221389770507812, 1.123291015625, -0.42333984375, 0.0546875
555, 4123677632, -6.826130390167236, -0.79807448387146, 7.124605178833008, -2.3996925354003906, -2.006678342819214, -2.586972713470459, 1.12060546875, -0.41943359375, 0.053955078125
556, 4123694299, -6.791977882385254, -0.8024622201919556, 7.146753787994385, -2.3826467990875244, -2.1748640537261963, -2.607487916946411, 1.12060546875, -0.4208984375, 0.052978515625
557, 4123710966, -6.796728610992432, -0.7943633794784546, 7.1245341300964355, -2.4034640789031982, -2.0223472118377686, -2.5604441165924072, 1.12158203125, -0.4208984375, 0.05517578125
558, 4123727633, -6.819549083709717, -0.7914155125617981, 7.131251811981201, -2.363283634185791, -2.1695621013641357, -2.6997320652008057, 1.122314453125, -0.421875, 0.050537109375
559, 4123744300, -6.806886672973633, -0.8059927821159363, 7.147463321685791, -2.474135637283325, -2.1120357513427734, -2.6680619716644287, 1.12255859375, -0.419921875, 0.0556640625
560, 4123760967, -6.794885158538818, -0.8069641590118408, 7.148181915283203, -2.4284677505493164, -2.128645658493042, -2.587177038192749, 1.12060546875, -0.4208984375, 0.053955078125
561, 4123777634, -6.823161602020264, -0.8032536506652832, 7.136626243591309, -2.4493935108184814, -2.0501558780670166, -2.5697734355926514, 1.122314453125, -0.42041015625, 0.05517578125
562, 4123794301, -6.808906078338623, -0.798700213432312, 7.133724212646484, -2.496290445327759, -1.8770649433135986, -2.682469129562378, 1.122802734375, -0.42138671875, 0.0546875
563, 4123810968, -6.804296493530273, -0.7985987067222595, 7.1502156257629395, -2.630629062652588, -1.821075677871704, -2.7867767810821533, 1.12255859375, -0.4189453125, 0.053955078125
564, 4123827635, -6.801217555999756, -0.7989115715026855, 7.152815341949463, -2.618257999420166, -1.81633722782135, -2.8496687412261963, 1.12158203125, -0.4189453125, 0.051513671875
565, 4123844302, -6.812560081481934, -0.8230311870574951, 7.157305717468262, -2.49520206451416, -2.036247968673706, -2.766465902328491, 1.1220703125, -0.418701171875, 0.053466796875
566, 4123860969, -6.811858177185059, -0.8062775135040283, 7.163433074951172, -2.525860548019409, -2.0004160404205322, -2.780322551727295, 1.12158203125, -0.4189453125, 0.054443359375
567, 4123877636, -6.801393032073975, -0.8170124292373657, 7.1433186531066895, -2.576663017272949, -1.8150181770324707, -2.6791396141052246, 1.12255859375, -0.419921875, 0.05517578125
568, 4123894303, -6.787372589111328, -0.8155590891838074, 7.149647235870361, -2.5973708629608154, -1.7683135271072388, -2.7191851139068604, 1.12109375, -0.41943359375, 0.053955078125
569, 4123910970, -6.786848545074463, -0.81200110912323, 7.131505966186523, -2.607795238494873, -1.781273603439331, -2.726548671722412, 1.12158203125, -0.42041015625, 0.054931640625
570, 4123927637, -6.77146053314209, -0.8443612456321716, 7.131823539733887, -2.448356866836548, -1.8428981304168701, -2.5729622840881348, 1.12255859375, -0.4189453125, 0.051513671875
571, 4123944304, -6.805726051330566, -0.8089759349822998, 7.139598846435547, -2.3802013397216797, -1.778751015663147, -2.552318572998047, 1.1220703125, -0.418701171875, 0.052490234375
572, 4123960971, -6.797484874725342, -0.8174546360969543, 7.147436141967773, -2.4100911617279053, -1.6081960201263428, -2.5297796726226807, 1.122802734375, -0.41943359375, 0.052978515625
573, 4123977638, -6.791182518005371, -0.8225648403167725, 7.125146389007568, -2.4546570777893066, -1.4979716539382935, -2.469179630279541, 1.1201171875, -0.4189453125, 0.053466796875
574, 4123994305, -6.788834571838379, -0.8117544651031494, 7.13673734664917, -2.395024538040161, -1.4363155364990234, -2.4107890129089355, 1.12060546875, -0.418701171875, 0.053466796875
575, 4124010972, -6.786829471588135, -0.8175238966941833, 7.150649547576904, -2.468187093734741, -1.3737436532974243, -2.4072160720825195, 1.12255859375, -0.41943359375, 0.0556640625
576, 4124027639, -6.797386169433594, -0.8109334111213684, 7.137017726898193, -2.3945188522338867, -1.3861339092254639, -2.2981252670288086, 1.12158203125, -0.418212890625, 0.053466796875
577, 4124044306, -6.80847692489624, -0.8050640225410461, 7.140552997589111, -2.378843307495117, -1.1583086252212524, -2.291529893875122, 1.12158203125, -0.4189453125, 0.053955078125
578, 4124060973, -6.786157131195068, -0.8309624791145325, 7.127244472503662, -2.4165070056915283, -1.1390864849090576, -2.3482491970062256, 1.123291015625, -0.41943359375, 0.053955078125
579, 4124077640, -6.7753190994262695, -0.8313137888908386, 7.15555477142334, -2.311302661895752, -1.1426849365234375, -2.151453733444214, 1.12060546875, -0.418701171875, 0.054931640625
580, 4124094307, -6.80440616607666, -0.8083345890045166, 7.133819103240967, -2.3041977882385254, -1.1674463748931885, -2.0295307636260986, 1.12109375, -0.418701171875, 0.055419921875
581, 4124110974, -6.803072452545166, -0.8422674536705017, 7.149012565612793, -2.1905899047851562, -1.2773820161819458, -1.9978032112121582, 1.123046875, -0.4189453125, 0.053466796875
582, 4124127641, -6.806056499481201, -0.8092800974845886, 7.1315484046936035, -2.1807808876037598, -1.1833325624465942, -1.813225507736206, 1.12158203125, -0.417236328125, 0.052978515625
583, 4124144308, -6.8121795654296875, -0.8009766340255737, 7.15219259262085, -2.141747236251831, -1.2620658874511719, -1.8943796157836914, 1.12060546875, -0.418212890625, 0.052978515625
584, 4124160975, -6.8027143478393555, -0.7914645075798035, 7.145235061645508, -2.3509511947631836, -1.0967612266540527, -2.0149126052856445, 1.12109375, -0.418701171875, 0.051513671875
585, 4124177642, -6.7994537353515625, -0.8099484443664551, 7.135647296905518, -2.438994884490967, -1.0990536212921143, -2.1688575744628906, 1.1201171875, -0.417724609375, 0.054931640625
586, 4124194309, -6.813114166259766, -0.7971557974815369, 7.119872093200684, -2.530585527420044, -1.0930219888687134, -2.254173517227173, 1.1220703125, -0.41943359375, 0.053466796875
587, 4124210976, -6.831503391265869, -0.7880772948265076, 7.146673679351807, -2.6395037174224854, -1.1301732063293457, -2.495842218399048, 1.12255859375, -0.418212890625, 0.055419921875
588, 4124227643, -6.8186845779418945, -0.7881301641464233, 7.136966705322266, -2.759500026702881, -0.9746657609939575, -2.6146984100341797, 1.11962890625, -0.4189453125, 0.054443359375
589, 4124244310, -6.815012454986572, -0.8055854439735413, 7.14272403717041, -2.9358811378479004, -0.9040129780769348, -2.7856497764587402, 1.1220703125, -0.417724609375, 0.055419921875
590, 4124260977, -6.8036346435546875, -0.8303461074829102, 7.105832576751709, -2.8964250087738037, -1.1250250339508057, -2.8481576442718506, 1.12109375, -0.41943359375, 0.054931640625
591, 4124277644, -6.788536071777344, -0.8509282469749451, 7.137594223022461, -2.7876734733581543, -1.3426176309585571, -2.7357819080352783, 1.123046875, -0.418701171875, 0.052490234375
592, 4124294311, -6.792555332183838, -0.8298076391220093, 7.1287641525268555, -2.6140453815460205, -1.3878499269485474, -2.61544132232666, 1.12255859375, -0.417236328125, 0.054931640625
593, 4124310978, -6.799098968505859, -0.8229491710662842, 7.117249011993408, -2.7580909729003906, -1.248427152633667, -2.56050181388855, 1.123291015625, -0.4189453125, 0.054931640625
594, 4124327645, -6.820666790008545, -0.8314904570579529, 7.1308441162109375, -2.7068657875061035, -1.2286670207977295, -2.5974864959716797, 1.1220703125, -0.419921875, 0.05517578125
595, 4124344312, -6.813047409057617, -0.8438684344291687, 7.11465311050415, -2.7260754108428955, -1.2853221893310547, -2.5709264278411865, 1.1220703125, -0.417724609375, 0.055419921875
596, 4124360979, -6.810303211212158, -0.8588540554046631, 7.097042560577393, -2.615325927734375, -1.4968832731246948, -2.5914418697357178, 1.123046875, -0.416748046875, 0.0556640625
597, 4124377646, -6.813941955566406, -0.8307584524154663, 7.12060022354126, -2.4932432174682617, -1.5159389972686768, -2.516601800918579, 1.12255859375, -0.417724609375, 0.055419921875
598, 4124394313, -6.812872886657715, -0.8426038026809692, 7.132144451141357, -2.4725093841552734, -1.7210326194763184, -2.439417600631714, 1.12255859375, -0.418212890625, 0.054931640625
599, 4124410980, -6.804018974304199, -0.8392348289489746, 7.1246819496154785, -2.449944496154785, -1.590036392211914, -2.4371509552001953, 1.126220703125, -0.417236328125, 0.0576171875
600, 4124427647, -6.81161642074585, -0.7880218029022217, 7.1453070640563965, -2.5088794231414795, -1.4929773807525635, -2.461124897003174, 1.12255859375, -0.416748046875, 0.055419921875
601, 4124444314, -6.816648483276367, -0.7934976816177368, 7.142747402191162, -2.715010643005371, -1.0259040594100952, -2.6779744625091553, 1.123291015625, -0.418701171875, 0.0556640625
602, 4124460981, -6.814453601837158, -0.8210100531578064, 7.1294846534729, -3.001833915710449, -0.8516477942466736, -2.938481092453003, 1.123779296875, -0.417724609375, 0.056640625
603, 4124477648, -6.815207481384277, -0.8543078899383545, 7.115451335906982, -2.9702277183532715, -1.0553840398788452, -2.859452962875366, 1.12353515625, -0.416259765625, 0.054931640625
604, 4124494315, -6.830013275146484, -0.8547243475914001, 7.108470439910889, -2.7153687477111816, -1.1770700216293335, -2.81447696685791, 1.12109375, -0.416259765625, 0.056640625
605, 4124510982, -6.828212738037109, -0.84666907787323, 7.118141174316406, -2.483471632003784, -1.3608925342559814, -2.6002016067504883, 1.12353515625, -0.416748046875, 0.0576171875
606, 4124527649, -6.808952808380127, -0.843248724937439, 7.100208282470703, -2.404930353164673, -1.5862586498260498, -2.508443832397461, 1.12255859375, -0.416259765625, 0.05615234375
607, 4124544316, -6.819609642028809, -0.8283537030220032, 7.1215338706970215, -2.399871826171875, -1.6945875883102417, -2.5043976306915283, 1.12255859375, -0.415771484375, 0.05615234375
608, 4124560983, -6.822110652923584, -0.8195110559463501, 7.129030704498291, -2.5561985969543457, -1.8051316738128662, -2.7124998569488525, 1.12255859375, -0.417236328125, 0.055419921875
609, 4124577650, -6.810863971710205, -0.8466023206710815, 7.107127666473389, -2.6147875785827637, -1.821370244026184, -2.7394447326660156, 1.12353515625, -0.414794921875, 0.054443359375
610, 4124594317, -6.810705184936523, -0.8597425222396851, 7.118384838104248, -2.6696629524230957, -1.9792214632034302, -2.7916178703308105, 1.1240234375, -0.415771484375, 0.05517578125
611, 4124610984, -6.8160223960876465, -0.857198178768158, 7.123149871826172, -2.5554237365722656, -2.062840223312378, -2.6447865962982178, 1.12255859375, -0.414794921875, 0.056640625
612, 4124627651, -6.801028251647949, -0.8354102969169617, 7.120935440063477, -2.6356236934661865, -2.0053462982177734, -2.732285976409912, 1.12158203125, -0.415283203125, 0.054931640625
613, 4124644318, -6.829255104064941, -0.8168972730636597, 7.118279457092285, -2.79400634765625, -1.9713777303695679, -2.8961753845214844, 1.12255859375, -0.416259765625, 0.05615234375
614, 4124660985, -6.805690765380859, -0.8693354725837708, 7.132319927215576, -2.7968175411224365, -2.194009780883789, -2.8214313983917236, 1.1240234375, -0.415771484375, 0.05517578125
615, 4124677652, -6.815959453582764, -0.8641906380653381, 7.115333557128906, -2.5591952800750732, -2.4129467010498047, -2.675079822540283, 1.12158203125, -0.414306640625, 0.054931640625
616, 4124694319, -6.801431655883789, -0.8318899273872375, 7.126608848571777, -2.4792630672454834, -2.5454294681549072, -2.63543963432312, 1.12255859375, -0.414794921875, 0.05615234375
617, 4124710986, -6.79979133605957, -0.8664527535438538, 7.138996124267578, -2.5373737812042236, -2.6436920166015625, -2.5969231128692627, 1.123046875, -0.415283203125, 0.055419921875
618, 4124727653, -6.784885406494141, -0.8513045907020569, 7.131694316864014, -2.4773502349853516, -2.5950021743774414, -2.600534439086914, 1.1220703125, -0.415771484375, 0.053466796875
619, 4124744320, -6.800636291503906, -0.8576714396476746, 7.1380157470703125, -2.569504499435425, -2.3422303199768066, -2.63704514503479, 1.12353515625, -0.414306640625, 0.052001953125
620, 4124760987, -6.802249908447266, -0.8657382130622864, 7.139016151428223, -2.5848464965820312, -2.3462769985198975, -2.600598096847534, 1.12158203125, -0.414306640625, 0.053466796875
621, 4124777654, -6.798913955688477, -0.8523243069648743, 7.150565147399902, -2.6607754230499268, -2.1370980739593506, -2.7104382514953613, 1.123046875, -0.413818359375, 0.052490234375
622, 4124794321, -6.789297103881836, -0.8510250449180603, 7.141025066375732, -2.616875410079956, -2.113316774368286, -2.6524128913879395, 1.12060546875, -0.415283203125, 0.053955078125
623, 4124810988, -6.799837589263916, -0.8641607761383057, 7.142400741577148, -2.54107403755188, -2.1699461936950684, -2.6535651683807373, 1.12158203125, -0.416748046875, 0.053955078125
624, 4124827655, -6.775390625, -0.8506497740745544, 7.134559631347656, -2.4013824462890625, -2.2142179012298584, -2.536348819732666, 1.12158203125, -0.414794921875, 0.053955078125
625, 4124844322, -6.782805442810059, -0.8731376528739929, 7.141784191131592, -2.300353765487671, -2.241316318511963, -2.4546828269958496, 1.118896484375, -0.414306640625, 0.053955078125
626, 4124860989, -6.7853217124938965, -0.8725342154502869, 7.15330696105957, -2.316131353378296, -2.11569881439209, -2.3555619716644287, 1.12060546875, -0.414794921875, 0.053955078125
627, 4124877656, -6.774893283843994, -0.8481826186180115, 7.143655776977539, -2.229227066040039, -2.027885675430298, -2.325082540512085, 1.1220703125, -0.415771484375, 0.052490234375
628, 4124894323, -6.7744364738464355, -0.8692935705184937, 7.164746284484863, -2.2802093029022217, -1.8321021795272827, -2.31203293800354, 1.1201171875, -0.4130859375, 0.053466796875
629, 4124910990, -6.789244651794434, -0.8364023566246033, 7.133376121520996, -2.1981587409973145, -1.8562934398651123, -2.2493457794189453, 1.1220703125, -0.414794921875, 0.05615234375
630, 4124927657, -6.7912678718566895, -0.8613128662109375, 7.125559329986572, -2.326542377471924, -1.7408952713012695, -2.2451581954956055, 1.12158203125, -0.413818359375, 0.05126953125
631, 4124944324, -6.780075550079346, -0.8703155517578125, 7.141605377197266, -2.2775838375091553, -1.7044099569320679, -2.197813034057617, 1.12158203125, -0.413818359375, 0.053466796875
632, 4124960991, -6.786680221557617, -0.8617233037948608, 7.139016628265381, -2.291325092315674, -1.6823703050613403, -2.131937265396118, 1.12158203125, -0.415771484375, 0.052978515625
633, 4124977658, -6.779391765594482, -0.833763062953949, 7.146072864532471, -2.446870803833008, -1.4729863405227661, -2.29364275932312, 1.11865234375, -0.415771484375, 0.053466796875
634, 4124994325, -6.789616584777832, -0.8531767129898071, 7.1521100997924805, -2.5475287437438965, -1.3226141929626465, -2.3826982975006104, 1.1220703125, -0.4130859375, 0.05712890625
635, 4125010992, -6.776943206787109, -0.8612390756607056, 7.141573905944824, -2.520084857940674, -1.2625396251678467, -2.330589532852173, 1.1201171875, -0.41357421875, 0.052978515625
636, 4125027659, -6.777989864349365, -0.8686729669570923, 7.13503360748291, -2.421847343444824, -1.2126332521438599, -2.337888717651367, 1.1220703125, -0.415771484375, 0.052490234375
637, 4125044326, -6.7895917892456055, -0.8716568946838379, 7.125611305236816, -2.3982839584350586, -1.1381772756576538, -2.243032455444336, 1.12158203125, -0.415771484375, 0.053466796875
638, 4125060993, -6.776658058166504, -0.8706213235855103, 7.138933181762695, -2.3697640895843506, -1.1775054931640625, -2.2391135692596436, 1.11962890625, -0.414794921875, 0.053955078125
639, 4125077660, -6.778142929077148, -0.8680402636528015, 7.12074089050293, -2.281463861465454, -1.07953679561615, -2.1435649394989014, 1.1201171875, -0.415771484375, 0.054443359375
640, 4125094327, -6.782695293426514, -0.8612076044082642, 7.130049705505371, -2.2848317623138428, -1.1056232452392578, -2.1316425800323486, 1.1201171875, -0.416748046875, 0.054931640625
641, 4125110994, -6.789363384246826, -0.8585377931594849, 7.141339302062988, -2.3752834796905518, -1.1343351602554321, -2.149968385696411, 1.1201171875, -0.415283203125, 0.055419921875
642, 4125127661, -6.805578231811523, -0.8535211086273193, 7.163341045379639, -2.461534023284912, -0.8977634906768799, -2.233837127685547, 1.12255859375, -0.414306640625, 0.054443359375
643, 4125144328, -6.7850518226623535, -0.8552289009094238, 7.1322407722473145, -2.524118661880493, -0.7613758444786072, -2.3597490787506104, 1.12158203125, -0.415283203125, 0.053466796875
644, 4125160995, -6.781471252441406, -0.8832815885543823, 7.13283634185791, -2.5374503135681152, -0.7555617690086365, -2.277212142944336, 1.12255859375, -0.414794921875, 0.053466796875
645, 4125177662, -6.781741142272949, -0.8804599046707153, 7.136421203613281, -2.403585195541382, -0.7641677260398865, -2.1415674686431885, 1.12158203125, -0.41357421875, 0.053955078125
646, 4125194329, -6.818632125854492, -0.895473062992096, 7.0906291007995605, -2.361798048019409, -0.9903022050857544, -1.9414552450180054, 1.123046875, -0.414794921875, 0.055908203125
647, 4125210996, -6.8034281730651855, -0.8446360230445862, 7.1323113441467285, -2.2420461177825928, -1.1104514598846436, -1.8305141925811768, 1.123046875, -0.414794921875, 0.054443359375
648, 4125227663, -6.833377838134766, -0.8952311873435974, 7.116339206695557, -2.0979108810424805, -1.387939453125, -1.7326866388320923, 1.1220703125, -0.414794921875, 0.054931640625
649, 4125244330, -6.826061248779297, -0.8475987911224365, 7.1455841064453125, -2.0403332710266113, -2.033968687057495, -1.7209302186965942, 1.12353515625, -0.415771484375, 0.054931640625
650, 4125260997, -6.817433834075928, -0.8148661255836487, 7.121356964111328, -1.9760838747024536, -2.0262715816497803, -1.8244308233261108, 1.12109375, -0.417724609375, 0.053466796875
