sep=,
DeviceTag:,B,,,,,,,,,,,,,,,,,
FirmwareVersion:,2.2.1,,,,,,,,,,,,,,,,,
AppVersion:,2023.6.1,,,,,,,,,,,,,,,,,
SyncStatus:,Synced,,,,,,,,,,,,,,,,,
OutputRate:,60Hz,,,,,,,,,,,,,,,,,
FilterProfile:,General,,,,,,,,,,,,,,,,,
Measurement Mode:,Inertial Mode - Rate quantities (with mag),,,,,,,,,,,,,,,,,
StartTime:,2023-12-07 13:34:35.775 +0200,,,,,,,,,,,,,,,,,
 2023,,,,,,,,,,,,,,,,,,,

PacketCounter,SampleTimeFine,Acc_X,Acc_Y,Acc_Z,Gyr_X,Gyr_Y,Gyr_Z,Mag_X,Mag_Y,Mag_Z
1, 4114427447, -6.384313106536865, 1.8744364976882935, 7.034934997558594, 0.7102721333503723, -0.2159406691789627, -0.6952950954437256, 0.602783203125, 0.18115234375, -0.69287109375
2, 4114444114, -6.373044013977051, 1.8661025762557983, 7.047180652618408, 0.6166449189186096, -0.31266698241233826, -0.8224877715110779, 0.605224609375, 0.1826171875, -0.69384765625
3, 4114460781, -6.391551971435547, 1.86925208568573, 7.052975654602051, 0.36802250146865845, -0.5762088894844055, -0.9732186198234558, 0.604736328125, 0.18212890625, -0.691650390625
4, 4114477448, -6.399511814117432, 1.8781250715255737, 7.039712429046631, 0.06998030096292496, -0.8274438381195068, -1.2109301090240479, 0.603759765625, 0.1806640625, -0.69384765625
5, 4114494115, -6.383785247802734, 1.8711774349212646, 7.040233135223389, -0.13745056092739105, -0.9671484231948853, -1.4812978506088257, 0.60546875, 0.181640625, -0.69189453125
6, 4114510782, -6.372603416442871, 1.85921311378479, 7.047186851501465, -0.25240036845207214, -0.9228255748748779, -1.4653923511505127, 0.60595703125, 0.1787109375, -0.69580078125
7, 4114527449, -6.384954452514648, 1.8633571863174438, 7.057739734649658, -0.2570490539073944, -0.8500982522964478, -1.474881649017334, 0.604248046875, 0.1796875, -0.69580078125
8, 4114544116, -6.373682498931885, 1.8730738162994385, 7.0453667640686035, -0.2573051452636719, -0.943879246711731, -1.4621777534484863, 0.603759765625, 0.181640625, -0.691650390625
9, 4114560783, -6.3724236488342285, 1.8571137189865112, 7.031068801879883, -0.28780990839004517, -1.0237011909484863, -1.5596853494644165, 0.605224609375, 0.18017578125, -0.69384765625
10, 4114577450, -6.378871440887451, 1.8612173795700073, 7.0343780517578125, -0.35686174035072327, -1.0524258613586426, -1.4830265045166016, 0.604248046875, 0.183349609375, -0.69384765625
11, 4114594117, -6.382061958312988, 1.8600200414657593, 7.053276538848877, -0.4188060462474823, -1.1025242805480957, -1.52801513671875, 0.603759765625, 0.18310546875, -0.69287109375
12, 4114610784, -6.3905134201049805, 1.8533462285995483, 7.047571182250977, -0.4550352692604065, -1.0750291347503662, -1.4709757566452026, 0.604248046875, 0.181640625, -0.6953125
13, 4114627451, -6.37747049331665, 1.8604013919830322, 7.029041290283203, -0.4551120102405548, -1.145246148109436, -1.5381319522857666, 0.6064453125, 0.182373046875, -0.69287109375
14, 4114644118, -6.383132457733154, 1.8458925485610962, 7.06398344039917, -0.3660566806793213, -1.1903116703033447, -1.4952949285507202, 0.604736328125, 0.18017578125, -0.69384765625
15, 4114660785, -6.365926742553711, 1.835727572441101, 7.044366359710693, -0.29384171962738037, -1.0735435485839844, -1.359009861946106, 0.604736328125, 0.17919921875, -0.69482421875
16, 4114677452, -6.36539363861084, 1.8698337078094482, 7.028271675109863, -0.30240917205810547, -1.0483791828155518, -1.3618016242980957, 0.60546875, 0.1787109375, -0.69384765625
17, 4114694119, -6.36428689956665, 1.8514820337295532, 7.048633575439453, -0.2341129034757614, -1.054000973701477, -1.2565973997116089, 0.604248046875, 0.1796875, -0.69384765625
18, 4114710786, -6.363006591796875, 1.8478269577026367, 7.044935703277588, -0.15204979479312897, -0.9936190843582153, -1.3152761459350586, 0.604736328125, 0.1806640625, -0.6962890625
19, 4114727453, -6.3777642250061035, 1.8631592988967896, 7.054426670074463, -0.15080758929252625, -1.0793319940567017, -1.369882583618164, 0.605712890625, 0.182861328125, -0.697265625
20, 4114744120, -6.380597114562988, 1.8432354927062988, 7.045800685882568, -0.18689586222171783, -1.0476874113082886, -1.2449564933776855, 0.60546875, 0.1806640625, -0.69384765625
21, 4114760787, -6.3692946434021, 1.8361461162567139, 7.0142502784729, -0.1937856823205948, -0.9643566608428955, -1.2661638259887695, 0.604248046875, 0.18017578125, -0.693359375
22, 4114777454, -6.367252349853516, 1.860027551651001, 7.023742198944092, -0.3381260633468628, -0.9639468789100647, -1.3526451587677002, 0.603759765625, 0.181640625, -0.6943359375
23, 4114794121, -6.353515148162842, 1.8655507564544678, 7.039055824279785, -0.4498358368873596, -1.1113735437393188, -1.375171422958374, 0.604736328125, 0.18212890625, -0.69384765625
24, 4114810788, -6.373791217803955, 1.8502728939056396, 7.0398850440979, -0.40793344378471375, -1.1076595783233643, -1.4425840377807617, 0.605712890625, 0.181640625, -0.69384765625
25, 4114827455, -6.373517036437988, 1.8353525400161743, 7.044869422912598, -0.3334261178970337, -0.8910530805587769, -1.3191052675247192, 0.602294921875, 0.18212890625, -0.69287109375
26, 4114844122, -6.367446422576904, 1.8522788286209106, 7.063409805297852, -0.18087686598300934, -0.917984664440155, -1.2720417976379395, 0.602294921875, 0.18310546875, -0.69482421875
27, 4114860789, -6.352070331573486, 1.8634792566299438, 7.041158199310303, -0.19214646518230438, -0.8013317584991455, -1.2307286262512207, 0.603759765625, 0.1806640625, -0.6943359375
28, 4114877456, -6.36458158493042, 1.867287039756775, 7.07189416885376, -0.2976452112197876, -0.938206136226654, -1.3676286935806274, 0.600830078125, 0.181640625, -0.69482421875
29, 4114894123, -6.3646039962768555, 1.8530861139297485, 7.0333051681518555, -0.3864828646183014, -0.9159998893737793, -1.4540202617645264, 0.605224609375, 0.1796875, -0.697265625
30, 4114910790, -6.357485771179199, 1.8621556758880615, 7.0320916175842285, -0.3520337641239166, -0.7703660726547241, -1.5718129873275757, 0.603759765625, 0.1826171875, -0.69580078125
31, 4114927457, -6.346290111541748, 1.8402634859085083, 7.050339698791504, -0.35510730743408203, -0.7078710198402405, -1.5882052183151245, 0.603759765625, 0.1826171875, -0.69287109375
32, 4114944124, -6.362844467163086, 1.8495585918426514, 7.046549320220947, -0.17160509526729584, -0.5286076664924622, -1.4579004049301147, 0.604248046875, 0.1826171875, -0.69482421875
33, 4114960791, -6.394032001495361, 1.8411575555801392, 7.044247627258301, -0.08997742086648941, -0.42743757367134094, -1.3851988315582275, 0.602294921875, 0.18115234375, -0.69384765625
34, 4114977458, -6.369068622589111, 1.8371119499206543, 7.037494659423828, -0.08061597496271133, -0.287861168384552, -1.3381612300872803, 0.604248046875, 0.181640625, -0.6923828125
35, 4114994125, -6.376463413238525, 1.852054238319397, 7.0336713790893555, -0.02661159262061119, -0.3828970491886139, -1.393791913986206, 0.603271484375, 0.181640625, -0.69482421875
36, 4115010792, -6.383542537689209, 1.8425472974777222, 7.0445990562438965, -0.06366036832332611, -0.37151220440864563, -1.4044468402862549, 0.604248046875, 0.183837890625, -0.6962890625
37, 4115027459, -6.39689826965332, 1.864447832107544, 7.034176826477051, -0.09575308114290237, -0.6160878539085388, -1.4270501136779785, 0.602294921875, 0.18212890625, -0.693359375
38, 4115044126, -6.376499176025391, 1.8288679122924805, 7.049144744873047, -0.24128444492816925, -0.8460131287574768, -1.4064959287643433, 0.605224609375, 0.18212890625, -0.6943359375
39, 4115060793, -6.3815484046936035, 1.841391921043396, 7.050413131713867, -0.16211558878421783, -0.7662935256958008, -1.3883235454559326, 0.605224609375, 0.1826171875, -0.6923828125
40, 4115077460, -6.374465465545654, 1.849854826927185, 7.030816078186035, -0.14621008932590485, -0.6626901626586914, -1.2726181745529175, 0.602783203125, 0.18212890625, -0.6923828125
41, 4115094127, -6.3689045906066895, 1.8514000177383423, 7.065464019775391, -0.14094668626785278, -0.7344954609870911, -1.2811856269836426, 0.603759765625, 0.181640625, -0.693359375
42, 4115110794, -6.374697685241699, 1.8460150957107544, 7.044462203979492, -0.06910305470228195, -0.6960507035255432, -1.2556240558624268, 0.605712890625, 0.18115234375, -0.69384765625
43, 4115127461, -6.373265743255615, 1.85309898853302, 7.02479887008667, -0.037548214197158813, -0.840416669845581, -1.3213976621627808, 0.605224609375, 0.18212890625, -0.69482421875
44, 4115144128, -6.3756422996521, 1.856003999710083, 7.053011894226074, -0.10054264962673187, -0.7549471259117126, -1.3144949674606323, 0.604736328125, 0.18212890625, -0.6923828125
45, 4115160795, -6.3662309646606445, 1.8415850400924683, 7.0604248046875, -0.050239309668540955, -0.6833212375640869, -1.294427514076233, 0.604248046875, 0.181640625, -0.69384765625
46, 4115177462, -6.369193077087402, 1.8555158376693726, 7.041929721832275, 0.029858006164431572, -0.500305712223053, -1.2222765684127808, 0.604736328125, 0.1806640625, -0.693359375
47, 4115194129, -6.3867340087890625, 1.8681639432907104, 7.0427961349487305, -0.11153050512075424, -0.6724230051040649, -1.2725797891616821, 0.602294921875, 0.181640625, -0.6962890625
48, 4115210796, -6.379439353942871, 1.859240174293518, 7.025766372680664, -0.18206787109375, -0.8667594194412231, -1.3466005325317383, 0.604736328125, 0.18017578125, -0.6962890625
49, 4115227463, -6.380829811096191, 1.8535215854644775, 7.003722667694092, -0.25146543979644775, -0.8885812759399414, -1.3498660326004028, 0.603759765625, 0.18212890625, -0.69384765625
50, 4115244130, -6.370922565460205, 1.8475066423416138, 7.031675338745117, -0.1441226750612259, -0.8025484085083008, -1.3905646800994873, 0.604736328125, 0.18017578125, -0.6943359375
51, 4115260797, -6.371466636657715, 1.8627326488494873, 7.0093278884887695, -0.12181399762630463, -0.8273158073425293, -1.2908672094345093, 0.603759765625, 0.1826171875, -0.691162109375
52, 4115277464, -6.349474906921387, 1.878052830696106, 7.052320957183838, -0.11738300323486328, -0.8894779086112976, -1.3919862508773804, 0.604248046875, 0.1826171875, -0.69580078125
53, 4115294131, -6.361473560333252, 1.8207441568374634, 7.058166027069092, -0.08523906022310257, -0.6888663172721863, -1.444364070892334, 0.604248046875, 0.181640625, -0.69384765625
54, 4115310798, -6.372446060180664, 1.8496053218841553, 7.017629623413086, -0.1510508954524994, -0.6870734691619873, -1.494244933128357, 0.602783203125, 0.1796875, -0.693359375
55, 4115327465, -6.366987228393555, 1.8603616952896118, 7.034493923187256, -0.184001624584198, -0.5945091843605042, -1.4526625871658325, 0.605712890625, 0.1826171875, -0.69482421875
56, 4115344132, -6.376433372497559, 1.86006760597229, 7.037537574768066, -0.07856695353984833, -0.5153274536132812, -1.4314039945602417, 0.60595703125, 0.181640625, -0.69287109375
57, 4115360799, -6.3756537437438965, 1.8591892719268799, 7.042503356933594, -0.24503669142723083, -0.6430708169937134, -1.497638463973999, 0.603759765625, 0.18212890625, -0.69287109375
58, 4115377466, -6.376588344573975, 1.8392255306243896, 7.024416446685791, -0.20691220462322235, -0.7272341847419739, -1.5298978090286255, 0.60498046875, 0.1796875, -0.69287109375
59, 4115394133, -6.367458820343018, 1.8247896432876587, 7.032099723815918, -0.25485914945602417, -0.7568424344062805, -1.4338245391845703, 0.607421875, 0.1806640625, -0.69482421875
60, 4115410800, -6.379266738891602, 1.8581231832504272, 7.038819789886475, -0.2073604166507721, -0.6326977014541626, -1.3952902555465698, 0.60546875, 0.18115234375, -0.69287109375
61, 4115427467, -6.36725378036499, 1.8045963048934937, 7.039192199707031, -0.10360337793827057, -0.5428739786148071, -1.3421695232391357, 0.60595703125, 0.18212890625, -0.693359375
62, 4115444134, -6.375589370727539, 1.8594156503677368, 7.020939350128174, -0.04889464005827904, -0.3823975920677185, -1.2710813283920288, 0.6064453125, 0.18212890625, -0.69287109375
63, 4115460801, -6.374782085418701, 1.8526607751846313, 7.032187461853027, -0.17990362644195557, -0.5639660358428955, -1.3068110942840576, 0.6064453125, 0.181640625, -0.6923828125
64, 4115477468, -6.378211975097656, 1.853356957435608, 7.0168776512146, -0.2573179602622986, -0.6772125959396362, -1.3722515106201172, 0.605712890625, 0.1826171875, -0.693359375
65, 4115494135, -6.390217304229736, 1.8490298986434937, 7.020402908325195, -0.06298162043094635, -0.6239894032478333, -1.2775486707687378, 0.60595703125, 0.1806640625, -0.69482421875
66, 4115510802, -6.376731872558594, 1.855384111404419, 7.007251739501953, 0.06889176368713379, -0.4463652968406677, -1.2227503061294556, 0.60595703125, 0.18017578125, -0.6923828125
67, 4115527469, -6.391523838043213, 1.8405392169952393, 7.011958599090576, 0.05796794220805168, -0.3967663049697876, -1.2079718112945557, 0.605224609375, 0.182861328125, -0.6943359375
68, 4115544136, -6.3827595710754395, 1.8642643690109253, 7.003678798675537, -0.028071513399481773, -0.7133520245552063, -1.130774974822998, 0.60693359375, 0.1806640625, -0.690673828125
69, 4115560803, -6.381811141967773, 1.861254334449768, 7.034845352172852, -0.1608605533838272, -0.9853205680847168, -1.1840622425079346, 0.605224609375, 0.18115234375, -0.693359375
70, 4115577470, -6.373997211456299, 1.8707636594772339, 7.041491985321045, -0.17740635573863983, -1.0440505743026733, -1.2951061725616455, 0.60546875, 0.1806640625, -0.6923828125
71, 4115594137, -6.36372709274292, 1.8665779829025269, 7.020694255828857, -0.27128973603248596, -0.9056139588356018, -1.4217355251312256, 0.605224609375, 0.18212890625, -0.69287109375
72, 4115610804, -6.371671199798584, 1.8530985116958618, 7.021474361419678, -0.29829835891723633, -1.056767225265503, -1.3499557971954346, 0.607421875, 0.1787109375, -0.693359375
73, 4115627471, -6.373301982879639, 1.863441824913025, 7.033232688903809, -0.26057082414627075, -0.951755166053772, -1.4433653354644775, 0.604736328125, 0.18115234375, -0.6923828125
74, 4115644138, -6.362662315368652, 1.8629412651062012, 7.031378269195557, -0.2784740924835205, -0.9329169988632202, -1.510291337966919, 0.604736328125, 0.18212890625, -0.69189453125
75, 4115660805, -6.3571929931640625, 1.8637057542800903, 7.034152984619141, -0.4506298005580902, -0.7170019149780273, -1.688773274421692, 0.604736328125, 0.182861328125, -0.69287109375
76, 4115677472, -6.37377405166626, 1.8599897623062134, 7.034529209136963, -0.5075923800468445, -0.7686626315116882, -1.8023269176483154, 0.60546875, 0.18017578125, -0.692138671875
77, 4115694139, -6.371857166290283, 1.8549902439117432, 7.028590679168701, -0.7017495632171631, -0.965560257434845, -1.926689624786377, 0.603271484375, 0.183349609375, -0.691162109375
78, 4115710806, -6.381356239318848, 1.8469613790512085, 7.051324367523193, -0.766664981842041, -1.1491522789001465, -2.0214695930480957, 0.605712890625, 0.182861328125, -0.69189453125
79, 4115727473, -6.379074573516846, 1.846832513809204, 7.055295944213867, -0.9256942868232727, -1.2896379232406616, -2.099498748779297, 0.605712890625, 0.181640625, -0.693359375
80, 4115744140, -6.368087291717529, 1.8483214378356934, 7.047001361846924, -1.1529172658920288, -1.4833083152770996, -2.2909793853759766, 0.604736328125, 0.184326171875, -0.6923828125
81, 4115760807, -6.368953704833984, 1.8484512567520142, 7.062239646911621, -1.2867178916931152, -1.6389822959899902, -2.2810797691345215, 0.6064453125, 0.182861328125, -0.690185546875
82, 4115777474, -6.366062641143799, 1.834459900856018, 7.034534931182861, -1.2410120964050293, -1.441239356994629, -2.2882256507873535, 0.607421875, 0.182373046875, -0.69482421875
83, 4115794141, -6.365794658660889, 1.8012816905975342, 7.0451741218566895, -0.8999150991439819, -1.0624147653579712, -2.032021999359131, 0.605224609375, 0.1826171875, -0.69482421875
84, 4115810808, -6.388499736785889, 1.8271112442016602, 7.035511493682861, -0.5418622493743896, -0.741218626499176, -1.8104592561721802, 0.606201171875, 0.184326171875, -0.69482421875
85, 4115827475, -6.387892723083496, 1.8069298267364502, 7.049370765686035, -0.5316170454025269, -0.8748528361320496, -1.7747036218643188, 0.604248046875, 0.185302734375, -0.6953125
86, 4115844142, -6.378632068634033, 1.814624547958374, 7.054267883300781, -0.5375722050666809, -0.9828616976737976, -1.7038079500198364, 0.605712890625, 0.184814453125, -0.6953125
87, 4115860809, -6.385127067565918, 1.8099110126495361, 7.053066253662109, -0.4837598502635956, -1.1122186183929443, -1.5160924196243286, 0.605224609375, 0.183349609375, -0.69384765625
88, 4115877476, -6.368216037750244, 1.8162059783935547, 7.046919345855713, -0.38814765214920044, -1.1083896160125732, -1.4164974689483643, 0.603759765625, 0.183837890625, -0.69580078125
89, 4115894143, -6.366593837738037, 1.8021303415298462, 7.034640312194824, -0.10483277589082718, -0.6510875821113586, -1.255854606628418, 0.602783203125, 0.18359375, -0.69384765625
90, 4115910810, -6.376884937286377, 1.848368763923645, 7.054516792297363, -0.07408473640680313, -0.6225807070732117, -1.3177094459533691, 0.604736328125, 0.184814453125, -0.6953125
91, 4115927477, -6.382443904876709, 1.8237102031707764, 7.0541486740112305, -0.2632473111152649, -0.8062365651130676, -1.4053432941436768, 0.603759765625, 0.185302734375, -0.69384765625
92, 4115944144, -6.380172252655029, 1.8206546306610107, 7.036102771759033, -0.23160283267498016, -0.8647615313529968, -1.4638168811798096, 0.603271484375, 0.184814453125, -0.69580078125
93, 4115960811, -6.374105453491211, 1.8276478052139282, 7.031728267669678, -0.2998863160610199, -0.8072739243507385, -1.473319411277771, 0.605224609375, 0.182861328125, -0.69287109375
94, 4115977478, -6.36077356338501, 1.8183181285858154, 7.04892110824585, -0.2992716133594513, -0.8410826921463013, -1.4430452585220337, 0.606201171875, 0.183349609375, -0.693359375
95, 4115994145, -6.373528003692627, 1.8054773807525635, 7.046073913574219, -0.21099740266799927, -0.8162895441055298, -1.3581006526947021, 0.604248046875, 0.184814453125, -0.69580078125
96, 4116010812, -6.3685622215271, 1.8092293739318848, 7.054440021514893, -0.2695992887020111, -0.9158716797828674, -1.3702154159545898, 0.604736328125, 0.185302734375, -0.69384765625
97, 4116027479, -6.372543811798096, 1.8303332328796387, 7.047852516174316, -0.26054516434669495, -0.9463508725166321, -1.32315194606781, 0.603271484375, 0.184814453125, -0.69580078125
98, 4116044146, -6.353737831115723, 1.8260446786880493, 7.02496862411499, -0.30695536732673645, -0.7757959365844727, -1.3959434032440186, 0.604736328125, 0.184326171875, -0.693359375
99, 4116060813, -6.355449676513672, 1.8220354318618774, 7.035585403442383, -0.1856408417224884, -0.7919318675994873, -1.3809856176376343, 0.603759765625, 0.184326171875, -0.69482421875
100, 4116077480, -6.365565299987793, 1.838684320449829, 7.0483222007751465, -0.24793092906475067, -0.6840896606445312, -1.6235891580581665, 0.602294921875, 0.183837890625, -0.6962890625
101, 4116094147, -6.368943691253662, 1.81443452835083, 7.0142035484313965, -0.3091965317726135, -0.6850116848945618, -1.5783443450927734, 0.604248046875, 0.183837890625, -0.69384765625
102, 4116110814, -6.358689308166504, 1.8079451322555542, 7.043213367462158, -0.33799803256988525, -0.7327281832695007, -1.6192861795425415, 0.604248046875, 0.184326171875, -0.6943359375
103, 4116127481, -6.381760597229004, 1.8160892724990845, 7.0579447746276855, -0.26710206270217896, -0.7946724891662598, -1.6121402978897095, 0.604736328125, 0.183837890625, -0.6953125
104, 4116144148, -6.368166923522949, 1.805273413658142, 7.074565887451172, -0.4144391417503357, -0.7833004593849182, -1.5791511535644531, 0.605224609375, 0.185791015625, -0.6953125
105, 4116160815, -6.360414981842041, 1.8204305171966553, 7.036447048187256, -0.6311866641044617, -1.081842064857483, -1.7220572233200073, 0.602294921875, 0.185791015625, -0.6923828125
106, 4116177482, -6.375986576080322, 1.821707010269165, 7.041633605957031, -0.6543405055999756, -1.0317564010620117, -1.8071297407150269, 0.602783203125, 0.184814453125, -0.6923828125
107, 4116194149, -6.364406585693359, 1.7894022464752197, 7.0503740310668945, -0.6360017657279968, -0.8899773359298706, -1.822561264038086, 0.603271484375, 0.185791015625, -0.69580078125
108, 4116210816, -6.364636421203613, 1.824851393699646, 7.031947612762451, -0.6579262614250183, -0.8722918033599854, -1.907698154449463, 0.60302734375, 0.187744140625, -0.69580078125
109, 4116227483, -6.381377220153809, 1.8084653615951538, 7.038275718688965, -0.6807727813720703, -0.9668794274330139, -1.9680031538009644, 0.604736328125, 0.186279296875, -0.69384765625
110, 4116244150, -6.370157718658447, 1.8154048919677734, 7.046916484832764, -0.6440569758415222, -1.1349244117736816, -1.9168930053710938, 0.604248046875, 0.184326171875, -0.69384765625
111, 4116260817, -6.373548984527588, 1.79193913936615, 7.053971290588379, -0.839584231376648, -1.3464852571487427, -2.06333327293396, 0.606201171875, 0.18798828125, -0.69384765625
112, 4116277484, -6.372219562530518, 1.790583610534668, 7.033876419067383, -0.8341159820556641, -1.3191564083099365, -2.0909695625305176, 0.603759765625, 0.185791015625, -0.69482421875
113, 4116294151, -6.370428085327148, 1.789629340171814, 7.065826416015625, -0.8480365872383118, -1.052003264427185, -2.0217642784118652, 0.604736328125, 0.187744140625, -0.69482421875
114, 4116310818, -6.373147487640381, 1.7680885791778564, 7.030838489532471, -0.43209904432296753, -0.8228592276573181, -1.7411895990371704, 0.602783203125, 0.186767578125, -0.6953125
115, 4116327485, -6.3750176429748535, 1.808714509010315, 7.060316562652588, -0.4040403664112091, -0.5047750473022461, -1.7058312892913818, 0.604248046875, 0.1884765625, -0.69140625
116, 4116344152, -6.376641750335693, 1.7970192432403564, 7.040668964385986, -0.36113905906677246, -0.5739421248435974, -1.6633782386779785, 0.605224609375, 0.187744140625, -0.6953125
117, 4116360819, -6.378573894500732, 1.7786785364151, 7.048755168914795, -0.3365124762058258, -0.5738525986671448, -1.6436951160430908, 0.604736328125, 0.186767578125, -0.69384765625
118, 4116377486, -6.382137775421143, 1.7887195348739624, 7.062626838684082, -0.25333520770072937, -0.6448894143104553, -1.4891223907470703, 0.603271484375, 0.188720703125, -0.69482421875
119, 4116394153, -6.3814544677734375, 1.7921748161315918, 7.027377605438232, -0.3689637780189514, -0.6931180953979492, -1.5427426099777222, 0.603515625, 0.19091796875, -0.6953125
120, 4116410820, -6.390450477600098, 1.7875854969024658, 7.068508148193359, -0.37549492716789246, -0.7826216220855713, -1.527566909790039, 0.602783203125, 0.188232421875, -0.69482421875
121, 4116427487, -6.37962007522583, 1.7727054357528687, 7.047101974487305, -0.4430484473705292, -0.8494195342063904, -1.5664727687835693, 0.605224609375, 0.187744140625, -0.6953125
122, 4116444154, -6.378169059753418, 1.792752742767334, 7.044266223907471, -0.345297634601593, -0.9117864966392517, -1.3736732006072998, 0.6025390625, 0.188232421875, -0.69384765625
123, 4116460821, -6.371138095855713, 1.8015787601470947, 7.049718856811523, -0.37083348631858826, -0.8968799114227295, -1.4183673858642578, 0.6025390625, 0.189453125, -0.69482421875
124, 4116477488, -6.377925872802734, 1.7730402946472168, 7.054166793823242, -0.2588675320148468, -0.848651111125946, -1.340350866317749, 0.605712890625, 0.186279296875, -0.69482421875
125, 4116494155, -6.376887798309326, 1.7805707454681396, 7.056756019592285, -0.2735435962677002, -0.8571287989616394, -1.3422719240188599, 0.603759765625, 0.187255859375, -0.69482421875
126, 4116510822, -6.3728251457214355, 1.7927390336990356, 7.039013862609863, -0.20496562123298645, -0.8438487648963928, -1.279930591583252, 0.605224609375, 0.1884765625, -0.696533203125
127, 4116527489, -6.386170387268066, 1.7962119579315186, 7.057211875915527, -0.2972225844860077, -0.870998203754425, -1.2742575407028198, 0.605712890625, 0.1884765625, -0.6953125
128, 4116544156, -6.374730587005615, 1.7893118858337402, 7.081907272338867, -0.19711534678936005, -0.8985576033592224, -1.345665693283081, 0.602294921875, 0.188232421875, -0.693359375
129, 4116560823, -6.378965377807617, 1.791042685508728, 7.040711402893066, -0.19208243489265442, -0.9538426399230957, -1.3941888809204102, 0.604248046875, 0.188232421875, -0.6953125
130, 4116577490, -6.3793134689331055, 1.7807141542434692, 7.057924747467041, -0.1943107396364212, -0.8777856230735779, -1.353567123413086, 0.603759765625, 0.18896484375, -0.696044921875
131, 4116594157, -6.36310338973999, 1.793025255203247, 7.059503555297852, -0.1666746586561203, -0.7760903835296631, -1.2804044485092163, 0.603515625, 0.187744140625, -0.697509765625
132, 4116610824, -6.370624542236328, 1.7993625402450562, 7.052189826965332, -0.13021495938301086, -0.8701913952827454, -1.332948923110962, 0.604736328125, 0.188232421875, -0.697021484375
133, 4116627491, -6.37155294418335, 1.7993814945220947, 7.035715579986572, -0.2527333199977875, -0.9131695032119751, -1.3549885749816895, 0.6025390625, 0.187744140625, -0.6953125
134, 4116644158, -6.375665187835693, 1.7873504161834717, 7.05377721786499, -0.21095898747444153, -0.9096862077713013, -1.3102304935455322, 0.605712890625, 0.1884765625, -0.6943359375
135, 4116660825, -6.38042688369751, 1.7849974632263184, 7.065833568572998, -0.24474216997623444, -1.026236891746521, -1.4076100587844849, 0.603759765625, 0.1884765625, -0.69580078125
136, 4116677492, -6.372781276702881, 1.7764978408813477, 7.064907550811768, -0.2666025757789612, -1.0422701835632324, -1.3419773578643799, 0.604736328125, 0.1884765625, -0.69384765625
137, 4116694159, -6.368626117706299, 1.7923152446746826, 7.070573329925537, -0.19813984632492065, -0.9691334366798401, -1.2722853422164917, 0.603759765625, 0.1884765625, -0.69580078125
138, 4116710826, -6.3627142906188965, 1.7749134302139282, 7.059481143951416, -0.17916084825992584, -1.0523489713668823, -1.2986152172088623, 0.6005859375, 0.188720703125, -0.6943359375
139, 4116727493, -6.373384952545166, 1.7650511264801025, 7.073894023895264, -0.10611340403556824, -1.0483022928237915, -1.2342246770858765, 0.605712890625, 0.186279296875, -0.696533203125
140, 4116744160, -6.362239837646484, 1.8108174800872803, 7.041361331939697, -0.16785280406475067, -0.8597157001495361, -1.3306052684783936, 0.603515625, 0.19091796875, -0.696044921875
141, 4116760827, -6.369993686676025, 1.7927383184432983, 7.058921813964844, -0.2669483721256256, -0.9923256635665894, -1.3809728622436523, 0.603271484375, 0.185791015625, -0.697021484375
142, 4116777494, -6.379832744598389, 1.7808111906051636, 7.088980197906494, -0.2952119708061218, -0.9800059199333191, -1.4261150360107422, 0.604736328125, 0.1884765625, -0.6923828125
143, 4116794161, -6.3774919509887695, 1.790687918663025, 7.083651542663574, -0.3441450595855713, -1.0081286430358887, -1.4516509771347046, 0.602783203125, 0.188232421875, -0.693359375
144, 4116810828, -6.381833076477051, 1.767380714416504, 7.061063289642334, -0.3926042318344116, -1.039798617362976, -1.4726661443710327, 0.607177734375, 0.189453125, -0.69580078125
145, 4116827495, -6.382606506347656, 1.7621146440505981, 7.063528060913086, -0.4293072521686554, -1.0072451829910278, -1.308014988899231, 0.603759765625, 0.187255859375, -0.6953125
146, 4116844162, -6.386290073394775, 1.7774393558502197, 7.062774181365967, -0.40062105655670166, -1.1891977787017822, -1.2970272302627563, 0.603759765625, 0.1884765625, -0.696044921875
147, 4116860829, -6.370268821716309, 1.7837846279144287, 7.039844036102295, -0.3787477910518646, -1.2045011520385742, -1.2240692377090454, 0.605712890625, 0.18798828125, -0.69580078125
148, 4116877496, -6.348151206970215, 1.7771625518798828, 7.0554327964782715, -0.4454047679901123, -1.2247477769851685, -1.361557960510254, 0.6025390625, 0.18896484375, -0.696533203125
149, 4116894163, -6.360185623168945, 1.7851442098617554, 7.062734603881836, -0.32820114493370056, -1.1233218908309937, -1.3391855955123901, 0.603759765625, 0.188232421875, -0.697021484375
150, 4116910830, -6.355932712554932, 1.7708404064178467, 7.054798126220703, -0.2973122298717499, -0.876594603061676, -1.4599624872207642, 0.603515625, 0.188720703125, -0.696533203125
151, 4116927497, -6.355319023132324, 1.8090530633926392, 7.078425407409668, -0.28605541586875916, -0.8737003803253174, -1.3581005334854126, 0.60302734375, 0.188720703125, -0.6953125
152, 4116944164, -6.3731489181518555, 1.7776074409484863, 7.064172267913818, -0.26790884137153625, -0.8448348641395569, -1.443352460861206, 0.6015625, 0.188720703125, -0.697021484375
153, 4116960831, -6.34763240814209, 1.7797634601593018, 7.063878536224365, -0.21118953824043274, -0.8230640888214111, -1.3395570516586304, 0.603759765625, 0.18896484375, -0.6943359375
154, 4116977498, -6.353884696960449, 1.7803374528884888, 7.0734171867370605, -0.16019462049007416, -0.8579869866371155, -1.3736090660095215, 0.6025390625, 0.18896484375, -0.69384765625
155, 4116994165, -6.344543933868408, 1.7923381328582764, 7.085798263549805, -0.06555569916963577, -0.6846145987510681, -1.3075793981552124, 0.60205078125, 0.187255859375, -0.69482421875
156, 4117010832, -6.369107246398926, 1.7873106002807617, 7.081872940063477, -0.14174067974090576, -0.6530213952064514, -1.431339979171753, 0.604248046875, 0.18896484375, -0.69580078125
157, 4117027499, -6.359645366668701, 1.7914701700210571, 7.0525054931640625, -0.1665721982717514, -0.6611406803131104, -1.4729094505310059, 0.603515625, 0.188720703125, -0.69580078125
158, 4117044166, -6.363796710968018, 1.7681623697280884, 7.064905643463135, -0.19854967296123505, -0.6779682040214539, -1.5055017471313477, 0.603271484375, 0.18896484375, -0.6943359375
159, 4117060833, -6.380610466003418, 1.7731705904006958, 7.0743937492370605, -0.21528753638267517, -0.6444283127784729, -1.4927849769592285, 0.60205078125, 0.188232421875, -0.69482421875
160, 4117077500, -6.371608734130859, 1.7639001607894897, 7.05142879486084, -0.1414717435836792, -0.6140516996383667, -1.3745824098587036, 0.60400390625, 0.189453125, -0.697509765625
161, 4117094167, -6.36332368850708, 1.7681621313095093, 7.0626912117004395, -0.14828473329544067, -0.6811057329177856, -1.3511724472045898, 0.606201171875, 0.1884765625, -0.6953125
162, 4117110834, -6.3711323738098145, 1.777832269668579, 7.071418762207031, -0.020374903455376625, -0.6797611117362976, -1.336944580078125, 0.604736328125, 0.188232421875, -0.696533203125
163, 4117127501, -6.378666400909424, 1.7923225164413452, 7.053092956542969, -0.1264883279800415, -0.7210872173309326, -1.2476587295532227, 0.6025390625, 0.187255859375, -0.698486328125
164, 4117144168, -6.359612941741943, 1.76238214969635, 7.059271335601807, -0.014381532557308674, -0.6989065408706665, -1.3200145959854126, 0.60205078125, 0.189453125, -0.6953125
165, 4117160835, -6.350307464599609, 1.7809128761291504, 7.069911003112793, -0.017813632264733315, -0.5885926485061646, -1.259120225906372, 0.604248046875, 0.18896484375, -0.693359375
166, 4117177502, -6.36294412612915, 1.7961547374725342, 7.0655975341796875, -0.08742894977331161, -0.6358992457389832, -1.4063676595687866, 0.60205078125, 0.186767578125, -0.696533203125
167, 4117194169, -6.366991996765137, 1.782321572303772, 7.040194511413574, -0.17179718613624573, -0.6615504026412964, -1.3419902324676514, 0.60302734375, 0.188232421875, -0.697021484375
168, 4117210836, -6.3658857345581055, 1.7830919027328491, 7.071256637573242, -0.12522050738334656, -0.6846402883529663, -1.3908592462539673, 0.60302734375, 0.188720703125, -0.696044921875
169, 4117227503, -6.380334854125977, 1.7679495811462402, 7.077244281768799, -0.0054555051028728485, -0.5509291887283325, -1.322473406791687, 0.604736328125, 0.188232421875, -0.6962890625
170, 4117244170, -6.377440452575684, 1.7739629745483398, 7.0694475173950195, -0.009617568925023079, -0.49126434326171875, -1.2784451246261597, 0.602783203125, 0.187255859375, -0.6953125
171, 4117260837, -6.36946964263916, 1.77462637424469, 7.056451320648193, -0.125041201710701, -0.6712320446968079, -1.2749617099761963, 0.60205078125, 0.187255859375, -0.69482421875
172, 4117277504, -6.366937160491943, 1.7841808795928955, 7.038139820098877, -0.15362496674060822, -0.8048278093338013, -1.2282441854476929, 0.60205078125, 0.188232421875, -0.69287109375
173, 4117294171, -6.3612823486328125, 1.7830435037612915, 7.038788795471191, -0.18517981469631195, -0.8416332602500916, -1.4277286529541016, 0.603759765625, 0.187744140625, -0.696044921875
174, 4117310838, -6.365087032318115, 1.7851934432983398, 7.064370155334473, -0.25414201617240906, -0.8236916065216064, -1.380499005317688, 0.603759765625, 0.18896484375, -0.69482421875
175, 4117327505, -6.36094856262207, 1.7770328521728516, 7.0576372146606445, -0.27278807759284973, -0.7648592591285706, -1.357575535774231, 0.60302734375, 0.188232421875, -0.697021484375
176, 4117344172, -6.380838394165039, 1.7743490934371948, 7.052535533905029, -0.2600201368331909, -0.8249978423118591, -1.4374486207962036, 0.604248046875, 0.1884765625, -0.69482421875
177, 4117360839, -6.373312473297119, 1.7757488489151, 7.070357322692871, -0.3142678737640381, -1.0479564666748047, -1.4532263278961182, 0.6015625, 0.187744140625, -0.697998046875
178, 4117377506, -6.367129802703857, 1.7695661783218384, 7.061145305633545, -0.3268052041530609, -1.096876621246338, -1.4749327898025513, 0.603271484375, 0.186767578125, -0.6953125
179, 4117394173, -6.3582353591918945, 1.77385413646698, 7.07097053527832, -0.24923717975616455, -0.9376682043075562, -1.3591636419296265, 0.605712890625, 0.187744140625, -0.6962890625
180, 4117410840, -6.351949691772461, 1.7668261528015137, 7.053393363952637, -0.23595699667930603, -0.9120170474052429, -1.3638252019882202, 0.604248046875, 0.187744140625, -0.697021484375
181, 4117427507, -6.364525318145752, 1.7918932437896729, 7.051325798034668, -0.23230719566345215, -0.9456465244293213, -1.4622547626495361, 0.603515625, 0.188720703125, -0.69580078125
182, 4117444174, -6.363811492919922, 1.7531508207321167, 7.069790840148926, -0.30279332399368286, -0.922377347946167, -1.5163999795913696, 0.60205078125, 0.189453125, -0.695556640625
183, 4117460841, -6.36638069152832, 1.7730400562286377, 7.054164886474609, -0.23339571058750153, -0.8259711265563965, -1.4544427394866943, 0.60400390625, 0.1884765625, -0.698486328125
184, 4117477508, -6.364779472351074, 1.7647892236709595, 7.0645432472229, -0.1955273449420929, -0.85533607006073, -1.4210693836212158, 0.60400390625, 0.18896484375, -0.697021484375
185, 4117494175, -6.364449977874756, 1.7765419483184814, 7.071982383728027, -0.33921459317207336, -0.8876593708992004, -1.5009554624557495, 0.6044921875, 0.18994140625, -0.697021484375
186, 4117510842, -6.362541675567627, 1.7722508907318115, 7.049746036529541, -0.277756929397583, -0.9444299936294556, -1.3886438608169556, 0.604248046875, 0.187744140625, -0.6962890625
187, 4117527509, -6.356135845184326, 1.7648589611053467, 7.0732245445251465, -0.1841040849685669, -0.754127562046051, -1.3509161472320557, 0.6015625, 0.187744140625, -0.697021484375
188, 4117544176, -6.362551212310791, 1.7555153369903564, 7.057333946228027, -0.0879283919930458, -0.5826504826545715, -1.3348058462142944, 0.6025390625, 0.188720703125, -0.693359375
189, 4117560843, -6.367784023284912, 1.77897047996521, 7.064557075500488, -0.07663319259881973, -0.6327104568481445, -1.2533446550369263, 0.60205078125, 0.187255859375, -0.69580078125
190, 4117577510, -6.372652530670166, 1.7769509553909302, 7.04794979095459, -0.05933181196451187, -0.5859801173210144, -1.353708028793335, 0.603515625, 0.1904296875, -0.6953125
191, 4117594177, -6.361711502075195, 1.793190836906433, 7.049313068389893, -0.11908625811338425, -0.5912563800811768, -1.4080454111099243, 0.602783203125, 0.187744140625, -0.6953125
192, 4117610844, -6.377777576446533, 1.7770963907241821, 7.048207759857178, -0.20966555178165436, -0.6528549194335938, -1.3954695463180542, 0.603515625, 0.188720703125, -0.697509765625
193, 4117627511, -6.369551658630371, 1.7672961950302124, 7.0611066818237305, -0.20599013566970825, -0.7418461441993713, -1.4014244079589844, 0.604248046875, 0.189453125, -0.696533203125
194, 4117644178, -6.388222694396973, 1.7725600004196167, 7.057103157043457, -0.26465606689453125, -0.9073042869567871, -1.392946720123291, 0.603759765625, 0.188232421875, -0.696533203125
195, 4117660845, -6.367215156555176, 1.7706981897354126, 7.043363094329834, -0.26117271184921265, -0.9365796446800232, -1.3881187438964844, 0.605712890625, 0.18798828125, -0.693359375
196, 4117677512, -6.367456912994385, 1.782341718673706, 7.081508636474609, -0.3995324671268463, -0.9299458265304565, -1.370471477508545, 0.604736328125, 0.18896484375, -0.69580078125
197, 4117694179, -6.365401744842529, 1.7697954177856445, 7.048756122589111, -0.21670904755592346, -0.857846200466156, -1.3483420610427856, 0.604248046875, 0.187744140625, -0.6962890625
198, 4117710846, -6.3586812019348145, 1.776293158531189, 7.06218957901001, -0.13009971380233765, -0.7253773212432861, -1.285911202430725, 0.603515625, 0.188720703125, -0.697509765625
199, 4117727513, -6.379476070404053, 1.7800636291503906, 7.047508716583252, -0.19559137523174286, -0.6947316527366638, -1.3513387441635132, 0.60400390625, 0.19091796875, -0.6953125
200, 4117744180, -6.362921237945557, 1.795479416847229, 7.0644378662109375, -0.1267700344324112, -0.6912482380867004, -1.2340326309204102, 0.603515625, 0.18896484375, -0.698486328125
201, 4117760847, -6.364302158355713, 1.7851009368896484, 7.055171489715576, -0.09609884768724442, -0.6853958368301392, -1.2127227783203125, 0.6025390625, 0.189453125, -0.6943359375
202, 4117777514, -6.353146553039551, 1.7818365097045898, 7.060364246368408, -0.047793298959732056, -0.7084600925445557, -1.3378154039382935, 0.603759765625, 0.1884765625, -0.696044921875
203, 4117794181, -6.3695831298828125, 1.7686748504638672, 7.059880256652832, -0.05878114327788353, -0.6487824320793152, -1.2314074039459229, 0.604248046875, 0.1884765625, -0.6953125
204, 4117810848, -6.371553897857666, 1.7797458171844482, 7.053924560546875, -0.02761048823595047, -0.6682225465774536, -1.256149172782898, 0.604248046875, 0.1884765625, -0.697509765625
205, 4117827515, -6.3632073402404785, 1.7763620615005493, 7.061531066894531, 0.02729673683643341, -0.6147944331169128, -1.2956953048706055, 0.604736328125, 0.187744140625, -0.697021484375
206, 4117844182, -6.370551586151123, 1.7743438482284546, 7.06207275390625, 0.047402702271938324, -0.5419134497642517, -1.15690016746521, 0.603515625, 0.1904296875, -0.693359375
207, 4117860849, -6.369721412658691, 1.7879931926727295, 7.052057266235352, -0.028173966333270073, -0.5264818072319031, -1.1986486911773682, 0.603759765625, 0.1884765625, -0.69482421875
208, 4117877516, -6.378138065338135, 1.7683788537979126, 7.045207977294922, -0.11480893194675446, -0.5618658065795898, -1.2212263345718384, 0.6005859375, 0.188720703125, -0.6953125
209, 4117894183, -6.365045070648193, 1.7772310972213745, 7.060029983520508, 0.013850065879523754, -0.7090363502502441, -1.1067888736724854, 0.602783203125, 0.187255859375, -0.69482421875
210, 4117910850, -6.369740962982178, 1.7699010372161865, 7.056521415710449, -0.08790278434753418, -0.6794537305831909, -1.0864009857177734, 0.602783203125, 0.188232421875, -0.69482421875
211, 4117927517, -6.384029388427734, 1.7831248044967651, 7.038177967071533, 0.011083896271884441, -0.7393362522125244, -0.989713191986084, 0.604248046875, 0.18896484375, -0.69580078125
212, 4117944184, -6.388050556182861, 1.789795160293579, 7.066669940948486, -0.08386878669261932, -0.8687700033187866, -1.1062766313552856, 0.603759765625, 0.186767578125, -0.6962890625
213, 4117960851, -6.365062236785889, 1.7729415893554688, 7.045191287994385, 0.11047398298978806, -0.7917270064353943, -1.0282987356185913, 0.603759765625, 0.18896484375, -0.6953125
214, 4117977518, -6.365184783935547, 1.7846896648406982, 7.070289611816406, 0.1682434231042862, -0.4800716042518616, -0.8262912631034851, 0.602783203125, 0.188232421875, -0.69482421875
215, 4117994185, -6.3675103187561035, 1.8108564615249634, 7.055332183837891, 0.14037680625915527, -0.6960635781288147, -1.0592389106750488, 0.602294921875, 0.187744140625, -0.69384765625
216, 4118010852, -6.365354061126709, 1.7967160940170288, 7.063666343688965, -0.2414253056049347, -0.8305302262306213, -1.3366243839263916, 0.60302734375, 0.18994140625, -0.6953125
217, 4118027519, -6.359086513519287, 1.7774759531021118, 7.04815149307251, -0.2720324695110321, -0.939717173576355, -1.4016294479370117, 0.605224609375, 0.18798828125, -0.69482421875
218, 4118044186, -6.385848045349121, 1.7837138175964355, 7.048867225646973, -0.2804846465587616, -1.0920230150222778, -1.4246934652328491, 0.603759765625, 0.1884765625, -0.69482421875
219, 4118060853, -6.3596906661987305, 1.7755979299545288, 7.05696439743042, -0.35139337182044983, -1.137946605682373, -1.382163643836975, 0.6015625, 0.187744140625, -0.693359375
220, 4118077520, -6.376401424407959, 1.7786799669265747, 7.060317039489746, -0.3308905065059662, -1.1234244108200073, -1.2956441640853882, 0.603515625, 0.189453125, -0.69482421875
221, 4118094187, -6.367197036743164, 1.7766337394714355, 7.078540325164795, -0.3544285297393799, -1.1130510568618774, -1.274782419204712, 0.60205078125, 0.187744140625, -0.696044921875
222, 4118110854, -6.36775541305542, 1.7829396724700928, 7.056583404541016, -0.27665555477142334, -1.1199663877487183, -1.211045265197754, 0.6025390625, 0.187255859375, -0.69580078125
223, 4118127521, -6.363074779510498, 1.7805073261260986, 7.0528788566589355, -0.22226698696613312, -1.0480461120605469, -1.2738348245620728, 0.603759765625, 0.187255859375, -0.6953125
224, 4118144188, -6.350065231323242, 1.7960984706878662, 7.056020736694336, -0.2237909734249115, -0.9940930604934692, -1.3665913343429565, 0.603759765625, 0.189453125, -0.693359375
225, 4118160855, -6.361633777618408, 1.7907888889312744, 7.06255578994751, -0.3036770224571228, -0.8762489557266235, -1.4696439504623413, 0.604736328125, 0.188232421875, -0.6962890625
226, 4118177522, -6.3625288009643555, 1.7784756422042847, 7.050432205200195, -0.27933210134506226, -0.9449037313461304, -1.3302595615386963, 0.6015625, 0.188232421875, -0.695556640625
227, 4118194189, -6.35350227355957, 1.7898613214492798, 7.076087474822998, -0.3604475259780884, -0.9168320894241333, -1.3557697534561157, 0.604248046875, 0.188232421875, -0.697509765625
228, 4118210856, -6.365683078765869, 1.7782204151153564, 7.06614875793457, -0.23421534895896912, -0.9419199228286743, -1.430751085281372, 0.60205078125, 0.188232421875, -0.696533203125
229, 4118227523, -6.357486724853516, 1.771742820739746, 7.0714545249938965, -0.19802460074424744, -0.9508458971977234, -1.3833036422729492, 0.603271484375, 0.187744140625, -0.6923828125
230, 4118244190, -6.3563079833984375, 1.7821074724197388, 7.075854778289795, -0.22493071854114532, -0.9708108901977539, -1.3523377180099487, 0.605224609375, 0.189453125, -0.69482421875
231, 4118260857, -6.351385116577148, 1.793439269065857, 7.0970683097839355, -0.33308038115501404, -0.9065487384796143, -1.4551087617874146, 0.60205078125, 0.18896484375, -0.69384765625
232, 4118277524, -6.35441255569458, 1.7909932136535645, 7.044609546661377, -0.3612799644470215, -0.9738845825195312, -1.4468997716903687, 0.603759765625, 0.1884765625, -0.69580078125
233, 4118294191, -6.376341342926025, 1.7999787330627441, 7.054039001464844, -0.5250347256660461, -1.076360821723938, -1.5371588468551636, 0.602783203125, 0.187255859375, -0.6953125
234, 4118310858, -6.370946407318115, 1.7737202644348145, 7.0749382972717285, -0.546562135219574, -1.074503779411316, -1.567535400390625, 0.60400390625, 0.18896484375, -0.696533203125
235, 4118327525, -6.353050231933594, 1.7716124057769775, 7.081002235412598, -0.5691141486167908, -1.1274453401565552, -1.5993081331253052, 0.6025390625, 0.188232421875, -0.696533203125
236, 4118344192, -6.353026390075684, 1.7755396366119385, 7.0774245262146, -0.4799050986766815, -1.1705001592636108, -1.5113283395767212, 0.60205078125, 0.189453125, -0.6943359375
237, 4118360859, -6.372863292694092, 1.770688772201538, 7.076210021972656, -0.5088731050491333, -1.1345785856246948, -1.4795687198638916, 0.60205078125, 0.187255859375, -0.696533203125
238, 4118377526, -6.343612194061279, 1.7541528940200806, 7.094992637634277, -0.3743296265602112, -1.0045045614242554, -1.4380635023117065, 0.605224609375, 0.189453125, -0.6953125
239, 4118394193, -6.346288681030273, 1.764114499092102, 7.049674034118652, -0.17744477093219757, -0.7700330018997192, -1.3974288702011108, 0.603271484375, 0.187744140625, -0.6943359375
240, 4118410860, -6.353297710418701, 1.7897347211837769, 7.056621074676514, -0.35970479249954224, -0.8700506091117859, -1.432377576828003, 0.6044921875, 0.18994140625, -0.697509765625
241, 4118427527, -6.35840368270874, 1.7530417442321777, 7.052949905395508, -0.39170780777931213, -0.9065228700637817, -1.455095887184143, 0.603759765625, 0.186767578125, -0.697998046875
242, 4118444194, -6.3648505210876465, 1.7564817667007446, 7.076516151428223, -0.31982582807540894, -0.8790023922920227, -1.412450909614563, 0.60205078125, 0.188720703125, -0.6953125
243, 4118460861, -6.358702659606934, 1.7728122472763062, 7.051853656768799, -0.28053590655326843, -0.9447500705718994, -1.402974009513855, 0.6044921875, 0.1904296875, -0.698486328125
244, 4118477528, -6.359489917755127, 1.778171420097351, 7.088462829589844, -0.2927403450012207, -0.9120297431945801, -1.312599539756775, 0.6005859375, 0.189453125, -0.698974609375
245, 4118494195, -6.350089073181152, 1.7764956951141357, 7.056307315826416, -0.2925354838371277, -0.979890763759613, -1.3640940189361572, 0.6015625, 0.188232421875, -0.697509765625
246, 4118510862, -6.363527774810791, 1.764793038368225, 7.086539268493652, -0.3170468211174011, -1.078794240951538, -1.3503528833389282, 0.6015625, 0.189208984375, -0.695556640625
247, 4118527529, -6.349697589874268, 1.774916410446167, 7.078161716461182, -0.17638187110424042, -1.0272743701934814, -1.297257661819458, 0.60400390625, 0.189453125, -0.697021484375
248, 4118544196, -6.3691301345825195, 1.775781273841858, 7.0877861976623535, -0.15507209300994873, -0.8875184059143066, -1.241972804069519, 0.6025390625, 0.188232421875, -0.696533203125
249, 4118560863, -6.354714870452881, 1.7689237594604492, 7.0495452880859375, -0.2237013280391693, -0.9284476041793823, -1.4042291641235352, 0.6025390625, 0.18896484375, -0.697509765625
250, 4118577530, -6.343536376953125, 1.769741177558899, 7.039355754852295, -0.2543085217475891, -0.9410106539726257, -1.3326159715652466, 0.6025390625, 0.187744140625, -0.6953125
251, 4118594197, -6.364985466003418, 1.78048837184906, 7.0587639808654785, -0.21699078381061554, -1.0862858295440674, -1.4295470714569092, 0.6025390625, 0.188232421875, -0.6953125
252, 4118610864, -6.358889579772949, 1.7576991319656372, 7.0852508544921875, -0.285812109708786, -0.9702988266944885, -1.4256670475006104, 0.603515625, 0.188720703125, -0.698486328125
253, 4118627531, -6.357097148895264, 1.7787739038467407, 7.060749530792236, -0.31921109557151794, -1.013071894645691, -1.3423361778259277, 0.604736328125, 0.18896484375, -0.698486328125
254, 4118644198, -6.34617805480957, 1.7587153911590576, 7.0944414138793945, -0.2838911712169647, -1.0540010929107666, -1.2952214479446411, 0.60107421875, 0.187744140625, -0.696533203125
255, 4118660865, -6.363544940948486, 1.7560455799102783, 7.080642223358154, -0.34501591324806213, -1.049710988998413, -1.4125148057937622, 0.6025390625, 0.18994140625, -0.697021484375
256, 4118677532, -6.337879657745361, 1.7757004499435425, 7.066170692443848, -0.3949349522590637, -1.050812005996704, -1.4357452392578125, 0.6025390625, 0.1904296875, -0.697509765625
257, 4118694199, -6.34525728225708, 1.7846877574920654, 7.0925421714782715, -0.21517230570316315, -0.9606171250343323, -1.4570808410644531, 0.60205078125, 0.18896484375, -0.697021484375
258, 4118710866, -6.3378095626831055, 1.7769466638565063, 7.083146095275879, -0.34735941886901855, -0.9565446376800537, -1.5349434614181519, 0.603515625, 0.186767578125, -0.698974609375
259, 4118727533, -6.353287220001221, 1.7513017654418945, 7.064162254333496, -0.2726215720176697, -0.9276663661003113, -1.4156779050827026, 0.6025390625, 0.188720703125, -0.699951171875
260, 4118744200, -6.3559041023254395, 1.7673505544662476, 7.078655242919922, -0.28524863719940186, -0.992940366268158, -1.3797178268432617, 0.6015625, 0.189453125, -0.697021484375
261, 4118760867, -6.337925910949707, 1.7655084133148193, 7.050048351287842, -0.2613391876220703, -1.0437688827514648, -1.388515830039978, 0.60009765625, 0.188232421875, -0.697998046875
262, 4118777534, -6.363880157470703, 1.7765048742294312, 7.087350845336914, -0.258777916431427, -1.0154411792755127, -1.2850532531738281, 0.605224609375, 0.18994140625, -0.698486328125
263, 4118794201, -6.331778049468994, 1.7543327808380127, 7.087730884552002, -0.191467747092247, -0.9432516694068909, -1.3053768873214722, 0.60205078125, 0.189453125, -0.698974609375
264, 4118810868, -6.342276096343994, 1.7797276973724365, 7.067671298980713, -0.2087050825357437, -0.9226974248886108, -1.3573577404022217, 0.60205078125, 0.18994140625, -0.697998046875
265, 4118827535, -6.340710163116455, 1.747418761253357, 7.098754405975342, -0.6478092074394226, -1.1646989583969116, -1.5663830041885376, 0.605224609375, 0.188232421875, -0.697509765625
266, 4118844202, -6.344611167907715, 1.7853902578353882, 7.084815502166748, -0.8622772097587585, -1.2602088451385498, -1.884710431098938, 0.60302734375, 0.18994140625, -0.695556640625
267, 4118860869, -6.332586765289307, 1.7857425212860107, 7.0734357833862305, -0.8788101673126221, -1.4005537033081055, -1.8338180780410767, 0.6025390625, 0.18896484375, -0.697509765625
268, 4118877536, -6.335268497467041, 1.7963191270828247, 7.089013576507568, -0.9277303218841553, -1.50867760181427, -1.9039583206176758, 0.604248046875, 0.188232421875, -0.697509765625
269, 4118894203, -6.339681625366211, 1.7977502346038818, 7.0660319328308105, -1.1818723678588867, -1.6972510814666748, -1.9929240942001343, 0.6005859375, 0.1904296875, -0.697509765625
270, 4118910870, -6.342342376708984, 1.7089768648147583, 7.110737323760986, -1.1513677835464478, -1.56743323802948, -2.128056764602661, 0.6025390625, 0.18994140625, -0.698486328125
271, 4118927537, -6.321412563323975, 1.7493810653686523, 7.103695392608643, -1.1281625032424927, -1.6628532409667969, -2.039116621017456, 0.60107421875, 0.189453125, -0.698486328125
272, 4118944204, -6.335309028625488, 1.7347526550292969, 7.090148448944092, -0.8991081714630127, -1.386069655418396, -1.9645195007324219, 0.60205078125, 0.19091796875, -0.697998046875
273, 4118960871, -6.33224630355835, 1.7358543872833252, 7.0845489501953125, -0.6462212204933167, -0.9851029515266418, -1.8453181982040405, 0.60205078125, 0.19091796875, -0.698486328125
274, 4118977538, -6.336580753326416, 1.72966730594635, 7.097006797790527, -0.5054794549942017, -0.8864042162895203, -1.676287055015564, 0.6025390625, 0.19091796875, -0.698486328125
275, 4118994205, -6.331797122955322, 1.7214453220367432, 7.0912299156188965, -0.42478659749031067, -0.8900540471076965, -1.6342693567276, 0.6025390625, 0.19287109375, -0.698486328125
276, 4119010872, -6.351534366607666, 1.7400078773498535, 7.097531795501709, -0.3419167399406433, -0.9387309551239014, -1.5482492446899414, 0.60107421875, 0.19189453125, -0.70068359375
277, 4119027539, -6.331813812255859, 1.7559881210327148, 7.09174919128418, -0.29674872756004333, -1.0386717319488525, -1.5066028833389282, 0.599853515625, 0.19140625, -0.701171875
278, 4119044206, -6.3286285400390625, 1.734914779663086, 7.103204250335693, -0.3895051181316376, -0.9721299409866333, -1.5557794570922852, 0.60302734375, 0.19287109375, -0.699951171875
279, 4119060873, -6.3429975509643555, 1.7365238666534424, 7.10965633392334, -0.3581167757511139, -0.8547855019569397, -1.5335603952407837, 0.60205078125, 0.1904296875, -0.699462890625
280, 4119077540, -6.330138206481934, 1.7440694570541382, 7.0979390144348145, -0.24688079953193665, -0.7620290517807007, -1.4422895908355713, 0.60205078125, 0.19140625, -0.70068359375
281, 4119094207, -6.33144998550415, 1.7476235628128052, 7.111268997192383, -0.22069178521633148, -0.7361985445022583, -1.4550188779830933, 0.60107421875, 0.19189453125, -0.699951171875
282, 4119110874, -6.327965259552002, 1.7522822618484497, 7.1106791496276855, -0.2603146433830261, -0.7278488278388977, -1.477622151374817, 0.60205078125, 0.19189453125, -0.700439453125
283, 4119127541, -6.344512939453125, 1.7488007545471191, 7.103184223175049, -0.18245206773281097, -0.5693830847740173, -1.456402063369751, 0.60205078125, 0.19189453125, -0.697509765625
284, 4119144208, -6.331251621246338, 1.7290245294570923, 7.088508605957031, -0.10110613703727722, -0.5162880420684814, -1.406137228012085, 0.60205078125, 0.1923828125, -0.699951171875
285, 4119160875, -6.342559337615967, 1.7566437721252441, 7.088259696960449, -0.046935271471738815, -0.3625093698501587, -1.3947139978408813, 0.599853515625, 0.19287109375, -0.698486328125
286, 4119177542, -6.354557514190674, 1.724977731704712, 7.065434455871582, 0.10741325467824936, -0.5010868310928345, -1.2582749128341675, 0.60205078125, 0.19287109375, -0.699462890625
287, 4119194209, -6.349345684051514, 1.7384443283081055, 7.079137325286865, 0.11610876023769379, -0.4363507330417633, -1.190824031829834, 0.6025390625, 0.19189453125, -0.698486328125
288, 4119210876, -6.3363037109375, 1.7400537729263306, 7.096218585968018, 0.27384456992149353, -0.1652275174856186, -1.094277024269104, 0.6025390625, 0.19091796875, -0.698974609375
289, 4119227543, -6.339993953704834, 1.7339726686477661, 7.102010726928711, 0.5681344866752625, -0.04911234974861145, -0.8953431248664856, 0.6015625, 0.19091796875, -0.700439453125
290, 4119244210, -6.350677967071533, 1.7651816606521606, 7.088761329650879, 0.31332653760910034, -0.31737977266311646, -0.9908657073974609, 0.599609375, 0.19091796875, -0.698974609375
291, 4119260877, -6.337526321411133, 1.7519358396530151, 7.074469566345215, -0.01759592443704605, -0.6463236808776855, -1.1460659503936768, 0.60302734375, 0.1904296875, -0.697998046875
292, 4119277544, -6.347995281219482, 1.749634027481079, 7.097525119781494, 0.03359746187925339, -0.6590532064437866, -1.234954833984375, 0.60205078125, 0.19091796875, -0.700439453125
293, 4119294211, -6.353676795959473, 1.7468369007110596, 7.076952934265137, -0.12644991278648376, -0.7268627882003784, -1.3941506147384644, 0.603515625, 0.19091796875, -0.697998046875
294, 4119310878, -6.344882965087891, 1.7557584047317505, 7.078904151916504, -0.14740107953548431, -0.6930156350135803, -1.4551599025726318, 0.60400390625, 0.19140625, -0.699462890625
295, 4119327545, -6.349512100219727, 1.7377939224243164, 7.078807830810547, -0.2509020268917084, -0.8352686166763306, -1.331079125404358, 0.6025390625, 0.188232421875, -0.697998046875
296, 4119344212, -6.355238914489746, 1.7453386783599854, 7.054131984710693, -0.21380199491977692, -0.8481134176254272, -1.3640300035476685, 0.603515625, 0.18994140625, -0.700439453125
297, 4119360879, -6.336800575256348, 1.7496577501296997, 7.09735631942749, -0.1386159360408783, -0.9248490333557129, -1.4143718481063843, 0.6025390625, 0.19140625, -0.700439453125
298, 4119377546, -6.343106269836426, 1.7506386041641235, 7.100832462310791, -0.2011236995458603, -0.8207973837852478, -1.3455246686935425, 0.603515625, 0.1904296875, -0.697998046875
299, 4119394213, -6.343896865844727, 1.747119665145874, 7.075496196746826, -0.19744831323623657, -0.8046614527702332, -1.4094797372817993, 0.60302734375, 0.19140625, -0.698974609375
300, 4119410880, -6.322964191436768, 1.7529549598693848, 7.0803327560424805, -0.31159132719039917, -0.8447197079658508, -1.5645005702972412, 0.6015625, 0.189453125, -0.699951171875
301, 4119427547, -6.350742340087891, 1.7606655359268188, 7.08261251449585, -0.39823904633522034, -0.7699945569038391, -1.6320924758911133, 0.59912109375, 0.18994140625, -0.699462890625
302, 4119444214, -6.340734958648682, 1.7405139207839966, 7.076452255249023, -0.4451870620250702, -0.7437158226966858, -1.7927989959716797, 0.60107421875, 0.1904296875, -0.698974609375
303, 4119460881, -6.33670711517334, 1.751786470413208, 7.090326309204102, -0.4975394308567047, -0.8672586679458618, -1.7853713035583496, 0.60205078125, 0.19091796875, -0.699951171875
304, 4119477548, -6.346839904785156, 1.752508282661438, 7.087142467498779, -0.5914741158485413, -0.9408185482025146, -1.8921382427215576, 0.60205078125, 0.19140625, -0.698486328125
305, 4119494215, -6.339260578155518, 1.7255043983459473, 7.094532012939453, -0.5278777480125427, -0.878041684627533, -1.8235727548599243, 0.603515625, 0.1904296875, -0.697509765625
306, 4119510882, -6.338812351226807, 1.7440311908721924, 7.094748020172119, -0.4801740348339081, -0.8163407444953918, -1.7812479734420776, 0.60205078125, 0.19287109375, -0.70166015625
307, 4119527549, -6.3458967208862305, 1.7363016605377197, 7.103727340698242, -0.44233131408691406, -0.8152650594711304, -1.779416561126709, 0.6025390625, 0.19287109375, -0.698974609375
308, 4119544216, -6.347217559814453, 1.7488136291503906, 7.070952892303467, -0.3878658711910248, -0.7648975849151611, -1.7136303186416626, 0.60302734375, 0.193359375, -0.698974609375
309, 4119560883, -6.354481220245361, 1.7225397825241089, 7.109367847442627, -0.30913248658180237, -0.7359424829483032, -1.5670617818832397, 0.6015625, 0.193359375, -0.699951171875
310, 4119577550, -6.366577625274658, 1.725542664527893, 7.103755474090576, -0.2597127854824066, -0.653789758682251, -1.4845633506774902, 0.6015625, 0.19189453125, -0.698486328125
311, 4119594217, -6.36966609954834, 1.7370774745941162, 7.08159065246582, -0.25160640478134155, -0.8231282234191895, -1.433670997619629, 0.6015625, 0.1943359375, -0.698974609375
312, 4119610884, -6.366126537322998, 1.7197132110595703, 7.107132911682129, -0.3354751467704773, -1.0029934644699097, -1.4805421829223633, 0.60107421875, 0.19384765625, -0.698974609375
313, 4119627551, -6.351132869720459, 1.7037785053253174, 7.109180450439453, -0.3101697564125061, -1.1755330562591553, -1.40395987033844, 0.6025390625, 0.193359375, -0.699951171875
314, 4119644218, -6.338840007781982, 1.7334766387939453, 7.105218887329102, -0.24123315513134003, -1.2768185138702393, -1.3720208406448364, 0.6015625, 0.193359375, -0.7001953125
315, 4119660885, -6.349252223968506, 1.7399988174438477, 7.116589069366455, -0.26042991876602173, -1.3215512037277222, -1.2765368223190308, 0.6025390625, 0.1923828125, -0.697509765625
316, 4119677552, -6.34780740737915, 1.7509534358978271, 7.1110758781433105, -0.36808010935783386, -1.2905726432800293, -1.4357069730758667, 0.6005859375, 0.1923828125, -0.697998046875
317, 4119694219, -6.324958324432373, 1.731062412261963, 7.104578018188477, -0.3976499140262604, -1.2597219944000244, -1.464828372001648, 0.60302734375, 0.19140625, -0.697998046875
318, 4119710886, -6.3501763343811035, 1.718008041381836, 7.120445251464844, -0.45240992307662964, -1.3191691637039185, -1.472012996673584, 0.60205078125, 0.1904296875, -0.700439453125
319, 4119727553, -6.317944526672363, 1.7235852479934692, 7.090940475463867, -0.5002544522285461, -1.1930139064788818, -1.3882594108581543, 0.6015625, 0.1923828125, -0.70166015625
320, 4119744220, -6.351240158081055, 1.717221736907959, 7.110734939575195, -0.34295403957366943, -1.0907808542251587, -1.312855839729309, 0.60107421875, 0.1923828125, -0.699951171875
321, 4119760887, -6.344995021820068, 1.752509593963623, 7.12165641784668, -0.4845154285430908, -1.2013635635375977, -1.4321852922439575, 0.60009765625, 0.1923828125, -0.699462890625
322, 4119777554, -6.335047245025635, 1.736844539642334, 7.105713844299316, -0.5127662420272827, -1.2024136781692505, -1.372289776802063, 0.6015625, 0.193359375, -0.699951171875
323, 4119794221, -6.3317718505859375, 1.7139030694961548, 7.098378658294678, -0.5033407807350159, -1.182935357093811, -1.4212230443954468, 0.6015625, 0.19287109375, -0.70068359375
324, 4119810888, -6.354953289031982, 1.7065144777297974, 7.118707180023193, -0.41158327460289, -1.111578345298767, -1.3166593313217163, 0.60302734375, 0.194091796875, -0.70068359375
325, 4119827555, -6.335427284240723, 1.725215196609497, 7.106415748596191, -0.28106099367141724, -1.1199665069580078, -1.327762484550476, 0.60107421875, 0.193359375, -0.70068359375
326, 4119844222, -6.328003883361816, 1.7064108848571777, 7.102356433868408, -0.21474969387054443, -1.1617920398712158, -1.1854325532913208, 0.60107421875, 0.1923828125, -0.699462890625
327, 4119860889, -6.327673435211182, 1.7057523727416992, 7.103560447692871, -0.05652722716331482, -1.1284185647964478, -1.0606346130371094, 0.6025390625, 0.194580078125, -0.697998046875
328, 4119877556, -6.325710296630859, 1.7324622869491577, 7.120394706726074, -0.07840047031641006, -0.9366307854652405, -1.0204099416732788, 0.60107421875, 0.19140625, -0.700439453125
329, 4119894223, -6.309181213378906, 1.7513275146484375, 7.1145524978637695, -0.0466151162981987, -0.9509995579719543, -1.0472776889801025, 0.599609375, 0.19091796875, -0.699462890625
330, 4119910890, -6.323221206665039, 1.7332210540771484, 7.100054740905762, -0.03077366203069687, -0.9788790345191956, -1.158756971359253, 0.600341796875, 0.193359375, -0.70166015625
331, 4119927557, -6.3269829750061035, 1.7216709852218628, 7.088135719299316, 0.03223998472094536, -0.784977912902832, -1.0952502489089966, 0.598388671875, 0.19287109375, -0.699951171875
332, 4119944224, -6.342602252960205, 1.7083940505981445, 7.1005682945251465, 0.10610701888799667, -0.78415846824646, -1.002468228340149, 0.600341796875, 0.195068359375, -0.699462890625
333, 4119960891, -6.3322062492370605, 1.7389721870422363, 7.110972881317139, 0.08849828690290451, -0.6785957217216492, -1.0178359746932983, 0.60107421875, 0.1923828125, -0.700439453125
334, 4119977558, -6.321685791015625, 1.7316819429397583, 7.120201110839844, -0.03916181996464729, -0.7249035239219666, -1.138138771057129, 0.600830078125, 0.193359375, -0.7021484375
335, 4119994225, -6.321343898773193, 1.753345251083374, 7.106940269470215, -0.05468311905860901, -0.762656569480896, -1.3126252889633179, 0.6015625, 0.1923828125, -0.7021484375
336, 4120010892, -6.320396900177002, 1.7205859422683716, 7.13323974609375, -0.11968815326690674, -0.679364025592804, -1.3857495784759521, 0.60400390625, 0.19189453125, -0.700927734375
337, 4120027559, -6.305246353149414, 1.7385507822036743, 7.067661762237549, -0.0667082741856575, -0.5018295645713806, -1.4680430889129639, 0.6005859375, 0.19189453125, -0.70068359375
338, 4120044226, -6.326609134674072, 1.7296199798583984, 7.075558185577393, 0.03281627222895622, -0.22274085879325867, -1.3083094358444214, 0.600830078125, 0.19384765625, -0.701171875
339, 4120060893, -6.325544834136963, 1.7533886432647705, 7.093133449554443, 0.2309817373752594, -0.09612446278333664, -1.3184521198272705, 0.60205078125, 0.1923828125, -0.698974609375
340, 4120077560, -6.325538158416748, 1.7399708032608032, 7.115843296051025, 0.20867307484149933, 0.2272166758775711, -1.3555264472961426, 0.6005859375, 0.19140625, -0.70068359375
341, 4120094227, -6.3065571784973145, 1.7480957508087158, 7.069364070892334, 0.2173045426607132, 0.37553977966308594, -1.4637401103973389, 0.6025390625, 0.1923828125, -0.699951171875
342, 4120110894, -6.3408637046813965, 1.7522203922271729, 7.089766025543213, 0.19587953388690948, 0.39188075065612793, -1.561145305633545, 0.60302734375, 0.19384765625, -0.699462890625
343, 4120127561, -6.348756790161133, 1.7150079011917114, 7.114997386932373, 0.32478824257850647, 0.4131392538547516, -1.4051640033721924, 0.6015625, 0.193359375, -0.7001953125
344, 4120144228, -6.346274375915527, 1.7105978727340698, 7.08332633972168, 0.286458820104599, 0.3511180579662323, -1.1987512111663818, 0.60205078125, 0.19091796875, -0.697021484375
345, 4120160895, -6.350778102874756, 1.7602829933166504, 7.08654260635376, 0.22514203190803528, 0.2576061487197876, -1.26889169216156, 0.60400390625, 0.193359375, -0.698486328125
346, 4120177562, -6.3513078689575195, 1.7725961208343506, 7.063911437988281, 0.002670123940333724, 0.09810303896665573, -1.4210693836212158, 0.60107421875, 0.19140625, -0.698486328125
347, 4120194229, -6.360878944396973, 1.7408599853515625, 7.087587833404541, -0.028596581891179085, -0.14125403761863708, -1.5035808086395264, 0.60302734375, 0.19189453125, -0.697509765625
348, 4120210896, -6.3588128089904785, 1.7517147064208984, 7.06033182144165, 0.00666570570319891, 0.07469303160905838, -1.4966524839401245, 0.60498046875, 0.19287109375, -0.697998046875
349, 4120227563, -6.372041702270508, 1.733826756477356, 7.098689556121826, 0.04171668738126755, 0.3136851489543915, -1.5087802410125732, 0.6025390625, 0.19091796875, -0.696533203125
350, 4120244230, -6.360537528991699, 1.7385280132293701, 7.08983850479126, 0.12879987061023712, 0.39944928884506226, -1.4846402406692505, 0.605224609375, 0.18994140625, -0.697998046875
351, 4120260897, -6.369658946990967, 1.7247037887573242, 7.0989580154418945, 0.06332099437713623, 0.15218426287174225, -1.465008020401001, 0.603515625, 0.19189453125, -0.6953125
352, 4120277564, -6.361908912658691, 1.75568425655365, 7.071643352508545, -0.05706509202718735, 0.053524136543273926, -1.4633175134658813, 0.60302734375, 0.19287109375, -0.69482421875
353, 4120294231, -6.377601623535156, 1.7326358556747437, 7.065959453582764, -0.08228080719709396, 0.10104850679636002, -1.6820884943008423, 0.60302734375, 0.19140625, -0.697509765625
354, 4120310898, -6.375603199005127, 1.7288604974746704, 7.0553436279296875, -0.03252812474966049, -0.05572042986750603, -1.5580588579177856, 0.605712890625, 0.19140625, -0.696044921875
355, 4120327565, -6.372463226318359, 1.741999864578247, 7.0835041999816895, -0.04571866989135742, -0.10612621158361435, -1.4900827407836914, 0.603515625, 0.19287109375, -0.697021484375
356, 4120344232, -6.364775657653809, 1.7464152574539185, 7.075924396514893, -0.14865611493587494, -0.18551279604434967, -1.6642109155654907, 0.60498046875, 0.193359375, -0.697509765625
357, 4120360899, -6.372824192047119, 1.7673238515853882, 7.074222564697266, -0.19793495535850525, -0.1692103147506714, -1.6813201904296875, 0.6025390625, 0.1923828125, -0.697021484375
358, 4120377566, -6.361234664916992, 1.73272705078125, 7.0888776779174805, -0.27077746391296387, -0.08179415017366409, -1.7440582513809204, 0.60400390625, 0.19091796875, -0.697998046875
359, 4120394233, -6.380091190338135, 1.722330093383789, 7.075143337249756, -0.2486737221479416, -0.06647776812314987, -1.6290446519851685, 0.60205078125, 0.18994140625, -0.695556640625
360, 4120410900, -6.376000881195068, 1.723562240600586, 7.069403171539307, -0.241438090801239, -0.19171105325222015, -1.6103343963623047, 0.603515625, 0.1904296875, -0.697998046875
361, 4120427567, -6.38594388961792, 1.7402535676956177, 7.049264430999756, -0.3149593472480774, -0.24011904001235962, -1.5928151607513428, 0.60546875, 0.193359375, -0.696044921875
362, 4120444234, -6.387358665466309, 1.72451651096344, 7.058712482452393, -0.2740558683872223, -0.27492669224739075, -1.6655040979385376, 0.60302734375, 0.19189453125, -0.69482421875
363, 4120460901, -6.365383148193359, 1.7286231517791748, 7.057337760925293, -0.1365797370672226, -0.0683346837759018, -1.6805006265640259, 0.60400390625, 0.19287109375, -0.695556640625
364, 4120477568, -6.3857197761535645, 1.732848048210144, 7.05811071395874, -0.09744350612163544, 0.23173730075359344, -1.5656274557113647, 0.605712890625, 0.1923828125, -0.6953125
365, 4120494235, -6.3694376945495605, 1.746131420135498, 7.069497585296631, -0.1100577712059021, 0.10165040194988251, -1.6588833332061768, 0.605712890625, 0.19287109375, -0.6953125
366, 4120510902, -6.370201110839844, 1.730617880821228, 7.064211368560791, -0.22219017148017883, -0.03976372256875038, -1.6955480575561523, 0.60546875, 0.193359375, -0.696044921875
367, 4120527569, -6.391350269317627, 1.7144417762756348, 7.046898365020752, -0.29696646332740784, -0.11724213510751724, -1.6352940797805786, 0.60546875, 0.193603515625, -0.696044921875
368, 4120544236, -6.402369499206543, 1.740763545036316, 7.048328876495361, -0.3820774257183075, -0.35387784242630005, -1.7020279169082642, 0.603515625, 0.19189453125, -0.69384765625
369, 4120560903, -6.398703575134277, 1.7289916276931763, 7.074477672576904, -0.4224046766757965, -0.1862683743238449, -1.6632119417190552, 0.60400390625, 0.19287109375, -0.69482421875
370, 4120577570, -6.4053802490234375, 1.7104148864746094, 7.053660869598389, -0.4037458002567291, -0.30531617999076843, -1.5830953121185303, 0.603515625, 0.194091796875, -0.69287109375
371, 4120594237, -6.385473728179932, 1.6944408416748047, 7.038125038146973, -0.25106847286224365, -0.47416797280311584, -1.3261871337890625, 0.606689453125, 0.19287109375, -0.696533203125
372, 4120610904, -6.399203300476074, 1.6879112720489502, 7.049105644226074, -0.10205379873514175, -0.5522738099098206, -1.0617871284484863, 0.60595703125, 0.193603515625, -0.69482421875
373, 4120627571, -6.399858474731445, 1.731848120689392, 7.0423173904418945, 0.0809425339102745, -0.6020137071609497, -0.8502391576766968, 0.60302734375, 0.19189453125, -0.696533203125
374, 4120644238, -6.383191108703613, 1.7332985401153564, 7.0596466064453125, -0.012819156982004642, -0.5537466406822205, -0.9027965068817139, 0.60498046875, 0.19287109375, -0.69384765625
375, 4120660905, -6.399167060852051, 1.7334064245224, 7.070012092590332, -0.06780962646007538, -0.8485231399536133, -0.9041923880577087, 0.603515625, 0.1923828125, -0.693359375
376, 4120677572, -6.392397880554199, 1.751340627670288, 7.0420684814453125, -0.24120759963989258, -1.1538649797439575, -1.0767706632614136, 0.605712890625, 0.193603515625, -0.6943359375
377, 4120694239, -6.401061058044434, 1.761074423789978, 7.052189350128174, -0.47556376457214355, -1.3626724481582642, -1.3370981216430664, 0.6044921875, 0.194091796875, -0.693359375
378, 4120710906, -6.39249849319458, 1.7387545108795166, 7.066242694854736, -0.7023770809173584, -1.406828761100769, -1.5232385396957397, 0.604248046875, 0.19189453125, -0.69287109375
379, 4120727573, -6.412532329559326, 1.7289917469024658, 7.050738334655762, -0.7885510325431824, -1.5036320686340332, -1.523033618927002, 0.60546875, 0.1923828125, -0.696533203125
380, 4120744240, -6.385730743408203, 1.733705759048462, 7.050394535064697, -0.8232818245887756, -1.5365827083587646, -1.624728798866272, 0.60498046875, 0.193603515625, -0.69189453125
381, 4120760907, -6.377975940704346, 1.7131773233413696, 7.06907320022583, -0.9495396614074707, -1.780684471130371, -1.710825800895691, 0.60205078125, 0.195556640625, -0.69287109375
382, 4120777574, -6.398554801940918, 1.6784247159957886, 7.067712306976318, -0.9851797819137573, -1.8564469814300537, -1.5871933698654175, 0.60400390625, 0.193359375, -0.69482421875
383, 4120794241, -6.382421970367432, 1.7249289751052856, 7.037197589874268, -0.9401782155036926, -2.0740909576416016, -1.3853141069412231, 0.60546875, 0.195556640625, -0.69482421875
384, 4120810908, -6.381053447723389, 1.659856915473938, 7.031010627746582, -0.8707037568092346, -2.1887335777282715, -1.252998948097229, 0.60498046875, 0.195068359375, -0.697509765625
385, 4120827575, -6.3872880935668945, 1.6496433019638062, 7.048750877380371, -0.898890495300293, -2.7650957107543945, -0.8084904551506042, 0.60205078125, 0.194091796875, -0.694580078125
386, 4120844242, -6.376709938049316, 1.6855247020721436, 7.078239440917969, -0.41989463567733765, -2.9380199909210205, -0.23244807124137878, 0.60302734375, 0.1923828125, -0.697509765625
387, 4120860909, -6.3516154289245605, 1.6403694152832031, 7.099480152130127, -0.2661031484603882, -3.0591554641723633, 0.11092220991849899, 0.6005859375, 0.19384765625, -0.697509765625
388, 4120877576, -6.338840484619141, 1.555064082145691, 7.0984697341918945, 0.2361682802438736, -3.3888673782348633, 1.065558671951294, 0.6015625, 0.193359375, -0.696533203125
389, 4120894243, -6.366358757019043, 1.676910161972046, 7.078544616699219, 1.1394129991531372, -3.578580617904663, 2.1693637371063232, 0.60302734375, 0.193359375, -0.699462890625
390, 4120910910, -6.330955982208252, 1.8461087942123413, 7.13349723815918, 1.2910656929016113, -2.718519449234009, 1.893694281578064, 0.60205078125, 0.19189453125, -0.698974609375
391, 4120927577, -6.331699848175049, 1.935545563697815, 7.109523773193359, 0.5503848791122437, -2.504089593887329, 0.7216313481330872, 0.599609375, 0.1904296875, -0.698974609375
392, 4120944244, -6.329010009765625, 1.9044480323791504, 7.110646724700928, -0.6922088265419006, -2.2878289222717285, -0.8598183989524841, 0.6015625, 0.19189453125, -0.70166015625
393, 4120960911, -6.324336528778076, 1.8401516675949097, 7.136662006378174, -1.1227326393127441, -1.4827061891555786, -1.8871307373046875, 0.6005859375, 0.18994140625, -0.70068359375
394, 4120977578, -6.290069103240967, 1.7055268287658691, 7.173556327819824, -0.1838095337152481, 1.2823060750961304, -2.2146148681640625, 0.6015625, 0.189208984375, -0.698486328125
395, 4120994245, -6.211657524108887, 1.7651275396347046, 7.2074809074401855, 2.2645020484924316, 8.012979507446289, -2.662722110748291, 0.6025390625, 0.19140625, -0.697021484375
396, 4121010912, -6.132898330688477, 1.5119396448135376, 7.303542613983154, 7.695187568664551, 19.813766479492188, -2.681692123413086, 0.606201171875, 0.18896484375, -0.69189453125
397, 4121027579, -6.168722629547119, -0.7479643821716309, 8.19275951385498, 17.937837600708008, 35.99917221069336, 6.157373428344727, 0.607421875, 0.187255859375, -0.685791015625
398, 4121044246, -6.614346027374268, -1.3058583736419678, 8.079556465148926, 32.49068069458008, 51.34307098388672, 27.04345703125, 0.6142578125, 0.17919921875, -0.67578125
399, 4121060913, -7.714858531951904, -0.35772794485092163, 10.029048919677734, 37.85227584838867, 61.674198150634766, 64.96829223632812, 0.622802734375, 0.160888671875, -0.6591796875
400, 4121077580, 2.1062211990356445, -7.917227268218994, 16.775239944458008, -85.67155456542969, 95.67389678955078, 133.75314331054688, 0.632080078125, 0.1376953125, -0.64111328125
401, 4121094247, -3.1219215393066406, -29.45429229736328, 27.83745765686035, -158.2594757080078, 92.8287353515625, 162.43927001953125, 0.639404296875, 0.113525390625, -0.617431640625
402, 4121110914, -12.266072273254395, -37.07736587524414, 33.020503997802734, -87.75589752197266, -24.200054168701172, 43.25039291381836, 0.63623046875, 0.103271484375, -0.620849609375
403, 4121127581, -13.911890983581543, -33.07586669921875, 31.268739700317383, -23.277145385742188, -180.04541015625, -147.94265747070312, 0.61962890625, 0.127197265625, -0.657470703125
404, 4121144248, -14.622994422912598, -21.370410919189453, 26.73927879333496, 5.332039833068848, -258.5158996582031, -270.58184814453125, 0.596923828125, 0.177490234375, -0.71435546875
405, 4121160915, -17.485544204711914, -11.566977500915527, 23.01781463623047, -5.598214149475098, -280.690185546875, -311.17413330078125, 0.56005859375, 0.23779296875, -0.77978515625
406, 4121177582, -18.296724319458008, -4.112483501434326, 19.95318031311035, -48.793006896972656, -270.37750244140625, -313.5816955566406, 0.510498046875, 0.301513671875, -0.83837890625
407, 4121194249, -18.482601165771484, -1.008888602256775, 18.257719039916992, -87.45011138916016, -240.60723876953125, -310.7705078125, 0.458251953125, 0.377197265625, -0.8916015625
408, 4121210916, -18.288192749023438, 1.7332754135131836, 17.16000747680664, -89.50654602050781, -219.3929443359375, -293.49273681640625, 0.399658203125, 0.4453125, -0.931396484375
409, 4121227583, -17.15400505065918, 6.631608009338379, 13.751980781555176, -98.90142822265625, -212.1468505859375, -258.3386535644531, 0.33935546875, 0.510009765625, -0.9619140625
410, 4121244250, -15.406373977661133, 11.260303497314453, 9.628787994384766, -145.7487335205078, -204.53274536132812, -241.0252227783203, 0.27001953125, 0.572021484375, -0.98291015625
411, 4121260917, -14.653983116149902, 11.869579315185547, 7.840613842010498, -139.52354431152344, -181.64906311035156, -191.06350708007812, 0.20458984375, 0.6328125, -0.9921875
412, 4121277584, -17.93203353881836, 21.13304901123047, 3.201077699661255, -141.89981079101562, -159.01470947265625, -134.47572326660156, 0.14892578125, 0.6748046875, -0.995361328125
413, 4121294251, -22.948307037353516, 23.87533950805664, -6.7259979248046875, -180.72860717773438, -142.1960906982422, -135.22023010253906, 0.094970703125, 0.728515625, -0.98291015625
414, 4121310918, -20.01514434814453, 18.999027252197266, -15.312982559204102, -58.23697280883789, -101.08314514160156, -146.54507446289062, 0.04541015625, 0.76171875, -0.974853515625
415, 4121327585, -16.975027084350586, 25.63928985595703, -17.346769332885742, 110.60718536376953, -40.82884216308594, -107.34317016601562, 0.010986328125, 0.7509765625, -0.994873046875
416, 4121344252, -16.60264015197754, 29.733394622802734, -16.315532684326172, 114.9681396484375, 14.099146842956543, -36.86290740966797, 0.004150390625, 0.72509765625, -1.0146484375
417, 4121360919, -15.843701362609863, 26.034284591674805, -14.82926082611084, 51.664207458496094, 59.197303771972656, 53.27196502685547, 0.02001953125, 0.7099609375, -1.02001953125
418, 4121377586, -15.917747497558594, 19.19769287109375, -12.477011680603027, 23.804920196533203, 102.09458923339844, 119.6644515991211, 0.0556640625, 0.697265625, -1.01708984375
419, 4121394253, -16.978343963623047, 14.068224906921387, -9.152113914489746, 44.10897445678711, 137.9828338623047, 141.6538543701172, 0.105712890625, 0.67578125, -1.010986328125
420, 4121410920, -18.890138626098633, 13.834294319152832, -5.495179176330566, 57.29695510864258, 166.58035278320312, 133.4453125, 0.16162109375, 0.650634765625, -1.001708984375
421, 4121427587, -19.736587524414062, 13.613131523132324, -0.8650938272476196, 50.13764953613281, 189.57803344726562, 121.14495086669922, 0.21826171875, 0.626708984375, -0.9853515625
422, 4121444254, -19.53755760192871, 12.494309425354004, 4.354204177856445, 62.393306732177734, 206.65966796875, 127.38276672363281, 0.277587890625, 0.5947265625, -0.962158203125
423, 4121460921, -19.636680603027344, 11.350218772888184, 9.563859939575195, 91.99285888671875, 217.9347381591797, 147.37643432617188, 0.33837890625, 0.557373046875, -0.937744140625
424, 4121477588, -19.9648380279541, 9.713030815124512, 14.199931144714355, 110.52031707763672, 217.80162048339844, 169.2766876220703, 0.3955078125, 0.50634765625, -0.90087890625
425, 4121494255, -15.967292785644531, 4.014251708984375, 16.324369430541992, 135.04100036621094, 225.00787353515625, 202.26174926757812, 0.449951171875, 0.44921875, -0.86962890625
426, 4121510922, -13.744319915771484, 3.4562416076660156, 19.453344345092773, 125.45632934570312, 241.3833465576172, 221.26211547851562, 0.50244140625, 0.3818359375, -0.826416015625
427, 4121527589, -12.156545639038086, -2.6646668910980225, 26.60721206665039, 113.41065979003906, 255.14840698242188, 260.63604736328125, 0.548583984375, 0.31396484375, -0.7724609375
428, 4121544256, -10.537076950073242, -5.071338653564453, 31.305524826049805, 79.53759765625, 230.6227569580078, 311.4072265625, 0.588623046875, 0.23876953125, -0.718994140625
429, 4121560923, -6.953636646270752, -13.599282264709473, 31.060510635375977, 6.932445049285889, 168.82394409179688, 311.15875244140625, 0.6103515625, 0.169921875, -0.673828125
430, 4121577590, -5.341804504394531, -22.119203567504883, 28.7148494720459, 6.543893337249756, 96.6452407836914, 272.4663391113281, 0.620361328125, 0.11083984375, -0.646240234375
431, 4121594257, -5.37887716293335, -25.06689453125, 25.202518463134766, 46.43381118774414, 35.39015197753906, 194.36582946777344, 0.62158203125, 0.0615234375, -0.637451171875
432, 4121610924, -7.320860385894775, -21.751483917236328, 22.009687423706055, 66.54536437988281, -8.933043479919434, 56.5069580078125, 0.62060546875, 0.032958984375, -0.637451171875
433, 4121627591, -11.313516616821289, -19.0832576751709, 20.678234100341797, -130.76678466796875, -68.34419250488281, -151.7819061279297, 0.621337890625, 0.06884765625, -0.65234375
434, 4121644258, -6.813665866851807, -18.984703063964844, 11.54399299621582, -180.0135498046875, -19.550880432128906, -213.3414306640625, 0.62353515625, 0.145751953125, -0.66796875
435, 4121660925, -11.216320991516113, -5.098593235015869, 9.060797691345215, -62.45906066894531, 9.25755786895752, -57.78525161743164, 0.626953125, 0.176513671875, -0.66650390625
436, 4121677592, -9.002978324890137, -0.09571254253387451, 8.206753730773926, -37.56985092163086, -16.60432243347168, -32.43303298950195, 0.625, 0.193359375, -0.6708984375
437, 4121694259, -6.996139049530029, -0.08767206221818924, 7.889316558837891, -7.636631488800049, -20.508291244506836, 3.3617560863494873, 0.623046875, 0.19580078125, -0.676025390625
438, 4121710926, -6.663557529449463, 1.5669914484024048, 7.396132946014404, 2.1824426651000977, -17.11822509765625, 13.867141723632812, 0.620361328125, 0.193115234375, -0.68212890625
439, 4121727593, -6.451582431793213, 3.206709623336792, 6.995967388153076, 3.785400152206421, -12.233994483947754, 12.348784446716309, 0.618896484375, 0.190185546875, -0.687255859375
440, 4121744260, -6.437787055969238, 3.8222413063049316, 6.7093186378479, -3.8382701873779297, -12.720683097839355, -0.9029763340950012, 0.616455078125, 0.18798828125, -0.688720703125
441, 4121760927, -6.515653610229492, 1.9055777788162231, 6.951768398284912, -9.708699226379395, -15.461395263671875, -8.37596607208252, 0.61376953125, 0.18896484375, -0.689208984375
442, 4121777594, -6.402552127838135, 1.1142401695251465, 7.244335651397705, -7.812880992889404, -14.703676223754883, -6.352148532867432, 0.6123046875, 0.192138671875, -0.69482421875
443, 4121794261, -6.2897047996521, 0.9775058031082153, 7.353358268737793, -2.9320273399353027, -9.20685863494873, -1.97518789768219, 0.611572265625, 0.195556640625, -0.69482421875
444, 4121810928, -6.327296257019043, 1.2444998025894165, 7.268161773681641, 1.8792742490768433, -3.6266303062438965, 1.9613373279571533, 0.612060546875, 0.193115234375, -0.698974609375
445, 4121827595, -6.5096564292907715, 1.1902611255645752, 7.341537952423096, 8.604172706604004, 3.7083168029785156, 5.771984100341797, 0.611083984375, 0.19140625, -0.697509765625
446, 4121844262, -6.507064342498779, 1.4834671020507812, 7.070729732513428, 12.804473876953125, 5.423462390899658, 8.921238899230957, 0.61181640625, 0.18798828125, -0.69482421875
447, 4121860929, -6.456508159637451, 1.9372884035110474, 6.986325740814209, 13.246613502502441, 2.46979022026062, 9.572762489318848, 0.613525390625, 0.180908203125, -0.69384765625
448, 4121877596, -6.759803771972656, 1.7301666736602783, 7.039912223815918, 14.163599967956543, -0.6341582536697388, 8.82522964477539, 0.613525390625, 0.180908203125, -0.691650390625
449, 4121894263, -6.136059761047363, 2.2629106044769287, 6.86267614364624, 13.362215995788574, -7.387786388397217, 8.51586627960205, 0.613037109375, 0.173583984375, -0.6953125
450, 4121910930, -6.030359745025635, 2.04580020904541, 6.9497151374816895, 9.98354721069336, -6.1374335289001465, 7.083215713500977, 0.610107421875, 0.16845703125, -0.695068359375
451, 4121927597, -6.475757598876953, 1.6874914169311523, 7.223235607147217, 12.250659942626953, -4.516816139221191, 8.186652183532715, 0.611572265625, 0.16845703125, -0.697265625
452, 4121944264, -6.141656398773193, 2.2906877994537354, 6.964945316314697, 13.13174057006836, -4.866290092468262, 9.03626537322998, 0.609130859375, 0.164306640625, -0.69873046875
453, 4121960931, -6.1096062660217285, 2.3731281757354736, 6.945474147796631, 9.694366455078125, -2.7088005542755127, 7.25941801071167, 0.609375, 0.160888671875, -0.695556640625
454, 4121977598, -6.202142238616943, 2.383021354675293, 6.986886501312256, 5.663256645202637, -1.577601432800293, 4.4135613441467285, 0.6083984375, 0.15673828125, -0.69677734375
455, 4121994265, -6.2691826820373535, 2.2642338275909424, 6.977348327636719, 3.584721088409424, -1.6348201036453247, 2.88106369972229, 0.6083984375, 0.155517578125, -0.695556640625
456, 4122010932, -6.0770673751831055, 2.3254828453063965, 6.999634265899658, 1.210078477859497, -0.9307399392127991, 0.6838526725769043, 0.60888671875, 0.153076171875, -0.69921875
457, 4122027599, -6.114960193634033, 2.35060977935791, 6.9537672996521, -1.5806877613067627, -0.006095822434872389, -1.832038164138794, 0.609375, 0.15576171875, -0.69921875
458, 4122044266, -6.171119689941406, 2.260239362716675, 7.012466907501221, -4.371716499328613, 1.255233645439148, -4.288258075714111, 0.6083984375, 0.154052734375, -0.697021484375
459, 4122060933, -6.292819976806641, 2.1233067512512207, 7.039422512054443, -4.836165428161621, 1.0359379053115845, -5.127407073974609, 0.61083984375, 0.15771484375, -0.696044921875
460, 4122077600, -6.313706398010254, 2.0952653884887695, 7.028934955596924, -4.6888275146484375, 0.7279449701309204, -5.4240403175354, 0.609375, 0.15869140625, -0.696044921875
461, 4122094267, -6.271055221557617, 2.1197361946105957, 6.994453430175781, -5.191784858703613, 0.3474043011665344, -5.610641956329346, 0.6083984375, 0.1591796875, -0.696044921875
462, 4122110934, -6.3470458984375, 2.064784288406372, 7.013426780700684, -5.319182395935059, -0.08222958445549011, -5.331847667694092, 0.611328125, 0.16015625, -0.69677734375
463, 4122127601, -6.319006443023682, 2.1130504608154297, 7.0086236000061035, -5.44508171081543, -1.0236629247665405, -5.149639129638672, 0.608154296875, 0.163818359375, -0.69775390625
464, 4122144268, -6.267448902130127, 2.128173828125, 6.999178886413574, -6.027054786682129, -1.9009497165679932, -5.45650577545166, 0.611083984375, 0.164306640625, -0.69580078125
465, 4122160935, -6.244548797607422, 2.131051540374756, 7.008930683135986, -6.6514787673950195, -2.4473321437835693, -5.791172981262207, 0.609130859375, 0.16845703125, -0.697265625
466, 4122177602, -6.36493444442749, 1.9033184051513672, 7.0932230949401855, -6.321393966674805, -2.456270933151245, -5.554677963256836, 0.609130859375, 0.1689453125, -0.6982421875
467, 4122194269, -6.330240249633789, 1.9493259191513062, 7.093825340270996, -5.961061954498291, -2.087460994720459, -5.481297969818115, 0.609130859375, 0.1708984375, -0.697265625
468, 4122210936, -6.285691738128662, 1.9753285646438599, 7.113788604736328, -5.973753452301025, -1.9165605306625366, -5.7756266593933105, 0.609619140625, 0.172607421875, -0.69873046875
469, 4122227603, -6.34241247177124, 1.8352538347244263, 7.106438159942627, -5.700735569000244, -1.3788856267929077, -5.908044338226318, 0.607421875, 0.172607421875, -0.699462890625
470, 4122244270, -6.343505859375, 1.7750747203826904, 7.114020347595215, -4.705629825592041, -1.108914852142334, -5.215873718261719, 0.60888671875, 0.176025390625, -0.699462890625
471, 4122260937, -6.329186916351318, 1.7775050401687622, 7.095180511474609, -3.8708086013793945, -0.7845681309700012, -4.670668125152588, 0.60888671875, 0.176025390625, -0.699951171875
472, 4122277604, -6.339432716369629, 1.805190920829773, 7.102477073669434, -3.112339735031128, -0.6616528034210205, -3.8549160957336426, 0.6103515625, 0.1767578125, -0.697265625
473, 4122294271, -6.354913711547852, 1.7529064416885376, 7.117280960083008, -2.06136155128479, 0.2697722017765045, -3.2802958488464355, 0.60986328125, 0.177734375, -0.700927734375
474, 4122310938, -6.378296852111816, 1.7857822179794312, 7.080416202545166, -1.2010819911956787, 0.8312281370162964, -2.6458301544189453, 0.60888671875, 0.17822265625, -0.701416015625
475, 4122327605, -6.36790132522583, 1.847913384437561, 7.089290618896484, -1.0270309448242188, 0.40382906794548035, -2.538180351257324, 0.6083984375, 0.1787109375, -0.698974609375
476, 4122344272, -6.391574382781982, 1.8074284791946411, 7.060361385345459, -0.880398154258728, 0.05481758341193199, -2.3471734523773193, 0.60986328125, 0.1787109375, -0.698974609375
477, 4122360939, -6.38388204574585, 1.7974649667739868, 7.082530498504639, -0.4735531806945801, -0.3094654083251953, -1.8915873765945435, 0.60791015625, 0.1806640625, -0.698486328125
478, 4122377606, -6.3662614822387695, 1.850044846534729, 7.0722575187683105, -0.30582836270332336, -0.7118664383888245, -1.6604583263397217, 0.61083984375, 0.181884765625, -0.69677734375
479, 4122394273, -6.328885555267334, 1.810506820678711, 7.095013618469238, -0.2853126525878906, -0.8119866251945496, -1.5597749948501587, 0.6103515625, 0.1796875, -0.69775390625
480, 4122410940, -6.3290181159973145, 1.7901313304901123, 7.089090824127197, -0.05190413072705269, -0.7409369349479675, -1.3455374240875244, 0.60986328125, 0.181640625, -0.698974609375
481, 4122427607, -6.342855453491211, 1.8437554836273193, 7.08676815032959, 0.15840815007686615, -0.6794152855873108, -1.1729464530944824, 0.6103515625, 0.1796875, -0.6982421875
482, 4122444274, -6.312804222106934, 1.8727947473526, 7.064186096191406, 0.034173741936683655, -0.6599111557006836, -1.228039264678955, 0.61083984375, 0.18017578125, -0.6982421875
483, 4122460941, -6.3223114013671875, 1.8564238548278809, 7.08742618560791, -0.13227678835391998, -0.7094973921775818, -1.342502474784851, 0.60986328125, 0.18017578125, -0.698974609375
484, 4122477608, -6.339193820953369, 1.817582130432129, 7.073394298553467, 0.02996045909821987, -0.6748178005218506, -1.2043348550796509, 0.60986328125, 0.17822265625, -0.69873046875
485, 4122494275, -6.329653739929199, 1.8157501220703125, 7.073302268981934, 0.15925335884094238, -0.7430116534233093, -1.0857479572296143, 0.609375, 0.181640625, -0.699951171875
486, 4122510942, -6.33082389831543, 1.8810443878173828, 7.077502250671387, 0.060862183570861816, -0.7236484885215759, -1.190516710281372, 0.61181640625, 0.1796875, -0.69873046875
487, 4122527609, -6.332833290100098, 1.8695473670959473, 7.081722736358643, -0.13469716906547546, -0.7887046337127686, -1.3550527095794678, 0.60986328125, 0.17919921875, -0.6982421875
488, 4122544276, -6.320066452026367, 1.861182689666748, 7.10154390335083, -0.15466228127479553, -0.7088187336921692, -1.6152265071868896, 0.60888671875, 0.1787109375, -0.697265625
489, 4122560943, -6.3248748779296875, 1.8741463422775269, 7.0825724601745605, -0.38652119040489197, -0.5424768924713135, -1.7570948600769043, 0.6103515625, 0.18017578125, -0.697265625
490, 4122577610, -6.322259902954102, 1.8677922487258911, 7.083286285400391, -0.5130735635757446, -0.3361538350582123, -1.9235776662826538, 0.60986328125, 0.18115234375, -0.6982421875
491, 4122594277, -6.331806659698486, 1.848393201828003, 7.079894065856934, -0.5683457851409912, -0.095573790371418, -2.1701128482818604, 0.611328125, 0.181396484375, -0.699462890625
492, 4122610944, -6.347980499267578, 1.8743655681610107, 7.086576461791992, -0.671680212020874, 0.029115239158272743, -2.2723329067230225, 0.60986328125, 0.181640625, -0.69775390625
493, 4122627611, -6.349143028259277, 1.8211965560913086, 7.062373161315918, -0.6871888041496277, -0.025599893182516098, -2.303618907928467, 0.609375, 0.18115234375, -0.699951171875
494, 4122644278, -6.37672233581543, 1.797097086906433, 7.040169715881348, -0.6083655953407288, -0.27637383341789246, -2.042292594909668, 0.609375, 0.1806640625, -0.69677734375
495, 4122660945, -6.343112945556641, 1.8112027645111084, 7.074746131896973, -0.33155643939971924, -0.40816399455070496, -1.6556434631347656, 0.611328125, 0.1806640625, -0.6982421875
496, 4122677612, -6.349617004394531, 1.8132452964782715, 7.04946756362915, -0.2878483533859253, -0.480558305978775, -1.5940320491790771, 0.60888671875, 0.181640625, -0.699462890625
497, 4122694279, -6.350400447845459, 1.8287855386734009, 7.060525417327881, -0.32583194971084595, -0.581177830696106, -1.4855749607086182, 0.61181640625, 0.181396484375, -0.69580078125
498, 4122710946, -6.325898170471191, 1.8560819625854492, 7.06128454208374, -0.4076005220413208, -0.6468872427940369, -1.5889863967895508, 0.6103515625, 0.1806640625, -0.69677734375
499, 4122727613, -6.328422546386719, 1.8785438537597656, 7.057077884674072, -0.5261361002922058, -0.6761881113052368, -1.9173924922943115, 0.61083984375, 0.181396484375, -0.6943359375
500, 4122744280, -6.318207263946533, 1.8124611377716064, 7.056506633758545, -0.47158101201057434, -0.336166650056839, -1.7786099910736084, 0.6103515625, 0.181884765625, -0.698486328125
501, 4122760947, -6.343538761138916, 1.8114941120147705, 7.078295707702637, -0.23415128886699677, -0.031196266412734985, -1.6311447620391846, 0.611328125, 0.181396484375, -0.6962890625
502, 4122777614, -6.351770401000977, 1.8371673822402954, 7.065759181976318, -0.18364304304122925, 0.21389804780483246, -1.549811601638794, 0.611328125, 0.181884765625, -0.69580078125
503, 4122794281, -6.365816116333008, 1.8161877393722534, 7.062662601470947, -0.21804089844226837, 0.2808624505996704, -1.512801170349121, 0.6103515625, 0.182373046875, -0.697265625
504, 4122810948, -6.368239879608154, 1.7940195798873901, 7.0733466148376465, 0.04724902659654617, 0.2831932306289673, -1.3549118041992188, 0.611328125, 0.181884765625, -0.6962890625
505, 4122827615, -6.368636608123779, 1.817580223083496, 7.0494160652160645, 0.19271636009216309, 0.19102591276168823, -1.082968831062317, 0.61181640625, 0.184326171875, -0.697998046875
506, 4122844282, -6.37678337097168, 1.8307563066482544, 7.032322883605957, 0.09166144579648972, -0.12032845616340637, -1.2916098833084106, 0.609375, 0.181640625, -0.6962890625
507, 4122860949, -6.368971347808838, 1.8330931663513184, 7.051294326782227, 0.08790918439626694, -0.24440917372703552, -1.2229551076889038, 0.60986328125, 0.18115234375, -0.69384765625
508, 4122877616, -6.366836071014404, 1.8286374807357788, 7.043009281158447, 0.2480909824371338, -0.10823926329612732, -1.007603645324707, 0.60986328125, 0.1806640625, -0.697265625
509, 4122894283, -6.355676174163818, 1.830811858177185, 7.0430216789245605, 0.030370259657502174, -0.3487553596496582, -1.0939055681228638, 0.61181640625, 0.183349609375, -0.693359375
510, 4122910950, -6.369287967681885, 1.8232717514038086, 7.069629192352295, 0.008189661428332329, -0.5414268374443054, -1.1898764371871948, 0.611328125, 0.181396484375, -0.69384765625
511, 4122927617, -6.3712615966796875, 1.8305121660232544, 7.048756122589111, 0.19964458048343658, -0.2701883316040039, -1.0543978214263916, 0.6103515625, 0.181396484375, -0.6962890625
512, 4122944284, -6.376319408416748, 1.8379504680633545, 7.055914878845215, 0.18494290113449097, -0.3348604440689087, -1.0237268209457397, 0.61181640625, 0.181396484375, -0.69580078125
513, 4122960951, -6.375820636749268, 1.8617796897888184, 7.024778366088867, -0.009758438915014267, -0.8180311918258667, -1.1909265518188477, 0.6083984375, 0.1806640625, -0.69482421875
514, 4122977618, -6.372244834899902, 1.8392417430877686, 7.058448791503906, -0.2477772831916809, -1.0409386157989502, -1.3264178037643433, 0.611328125, 0.181884765625, -0.69287109375
515, 4122994285, -6.3643879890441895, 1.8372960090637207, 7.025500297546387, -0.18784353137016296, -1.2191259860992432, -1.2945938110351562, 0.60888671875, 0.181640625, -0.69287109375
516, 4123010952, -6.374335765838623, 1.8332722187042236, 7.050027847290039, -0.2585602104663849, -1.1785171031951904, -1.320757269859314, 0.61279296875, 0.180908203125, -0.69677734375
517, 4123027619, -6.355612754821777, 1.8455169200897217, 7.050487041473389, -0.2575485408306122, -1.035956859588623, -1.344974160194397, 0.611328125, 0.181396484375, -0.698486328125
518, 4123044286, -6.364879131317139, 1.8377481698989868, 7.059479713439941, -0.08695511519908905, -0.9567367434501648, -1.333755612373352, 0.61181640625, 0.181884765625, -0.69482421875
519, 4123060953, -6.362821578979492, 1.8141837120056152, 7.0582146644592285, -0.10584449023008347, -0.9365284442901611, -1.182922601699829, 0.61181640625, 0.182373046875, -0.69580078125
520, 4123077620, -6.358185768127441, 1.8307228088378906, 7.054412841796875, 0.015847856178879738, -0.9066638946533203, -1.1141396760940552, 0.609375, 0.1796875, -0.6943359375
521, 4123094287, -6.356740474700928, 1.8315534591674805, 7.052497386932373, 0.19910670816898346, -0.6568887829780579, -0.9201874136924744, 0.61083984375, 0.181396484375, -0.69677734375
522, 4123110954, -6.352856636047363, 1.8160204887390137, 7.0448713302612305, 0.430248498916626, -0.4554322063922882, -0.7629895210266113, 0.611328125, 0.1796875, -0.69873046875
523, 4123127621, -6.357008457183838, 1.8308700323104858, 7.032209873199463, 0.6622611284255981, -0.2967871427536011, -0.5475866794586182, 0.611328125, 0.18017578125, -0.69775390625
524, 4123144288, -6.372926235198975, 1.83085036277771, 7.037082195281982, 0.8578909039497375, -0.28576087951660156, -0.35163676738739014, 0.61279296875, 0.180908203125, -0.69482421875
525, 4123160955, -6.354511260986328, 1.874193787574768, 7.0678181648254395, 0.8888310194015503, -0.03387279435992241, -0.21057480573654175, 0.609375, 0.18017578125, -0.6953125
526, 4123177622, -6.358451843261719, 1.8633302450180054, 7.045604228973389, 0.7231936454772949, 0.05150073394179344, -0.449221134185791, 0.612060546875, 0.1796875, -0.692626953125
527, 4123194289, -6.3467793464660645, 1.864098072052002, 7.045869827270508, 0.7021273970603943, 0.04521281644701958, -0.5561798214912415, 0.611083984375, 0.17822265625, -0.693115234375
528, 4123210956, -6.358523368835449, 1.8630129098892212, 7.056405067443848, 0.712602972984314, 0.2573243975639343, -0.6042932271957397, 0.612060546875, 0.1787109375, -0.69580078125
529, 4123227623, -6.3778862953186035, 1.8809179067611694, 7.025294780731201, 0.605721116065979, 0.1675390601158142, -0.7272597551345825, 0.613037109375, 0.1767578125, -0.6962890625
530, 4123244290, -6.392090320587158, 1.877218246459961, 7.016948223114014, 0.2496277242898941, -0.3818597197532654, -0.8112437725067139, 0.612060546875, 0.17822265625, -0.69580078125
531, 4123260957, -6.375429630279541, 1.8511579036712646, 7.0226240158081055, -0.0035985843278467655, -0.9059467911720276, -0.999266505241394, 0.611572265625, 0.17822265625, -0.69482421875
532, 4123277624, -6.37556266784668, 1.868032693862915, 7.019786357879639, 0.18033261597156525, -1.0272486209869385, -0.6984326839447021, 0.611572265625, 0.177734375, -0.692626953125
533, 4123294291, -6.388818740844727, 1.8918081521987915, 7.052937030792236, 0.1692551225423813, -1.1004879474639893, -0.7610301375389099, 0.612548828125, 0.17822265625, -0.693115234375
534, 4123310958, -6.3670430183410645, 1.8768049478530884, 7.019657135009766, 0.23094329237937927, -1.206255555152893, -0.8032654523849487, 0.612060546875, 0.17919921875, -0.69482421875
535, 4123327625, -6.376422882080078, 1.861090898513794, 7.043966293334961, 0.28050389885902405, -1.0735435485839844, -0.6736524701118469, 0.612060546875, 0.1767578125, -0.6953125
536, 4123344292, -6.370943546295166, 1.859687089920044, 7.04060697555542, 0.47856685519218445, -0.9596821665763855, -0.5075412392616272, 0.611572265625, 0.17822265625, -0.69384765625
537, 4123360959, -6.34704065322876, 1.8585731983184814, 7.049813270568848, 0.5837582349777222, -0.8878387212753296, -0.402682900428772, 0.612548828125, 0.1767578125, -0.6953125
538, 4123377626, -6.3819899559021, 1.863224744796753, 7.05295991897583, 0.5893033742904663, -0.9413051009178162, -0.29738903045654297, 0.610107421875, 0.176025390625, -0.69384765625
539, 4123394293, -6.371988773345947, 1.9010729789733887, 7.03631067276001, 0.5875489115715027, -1.0291438102722168, -0.34743624925613403, 0.6103515625, 0.17626953125, -0.6943359375
540, 4123410960, -6.364202976226807, 1.8717546463012695, 7.048640727996826, 0.7796184420585632, -0.9900844693183899, -0.12073825299739838, 0.611572265625, 0.17626953125, -0.697265625
541, 4123427627, -6.335739612579346, 1.8809367418289185, 7.065595626831055, 0.8714144229888916, -0.7777935862541199, -0.014983429573476315, 0.610595703125, 0.175048828125, -0.6953125
542, 4123444294, -6.341492652893066, 1.9516187906265259, 7.0354485511779785, 0.8000190258026123, -0.5488929748535156, -0.33825406432151794, 0.613037109375, 0.172607421875, -0.694091796875
543, 4123460961, -6.341529846191406, 1.9302109479904175, 7.007597923278809, 0.432848185300827, -0.5248810052871704, -0.702120840549469, 0.612060546875, 0.175048828125, -0.6943359375
544, 4123477628, -6.362527847290039, 1.9701722860336304, 7.024171352386475, 0.04412428289651871, -0.6438776850700378, -1.1181224584579468, 0.613037109375, 0.175537109375, -0.694091796875
545, 4123494295, -6.355014324188232, 1.941512107849121, 7.0015363693237305, -0.18069760501384735, -0.8342441320419312, -1.3732634782791138, 0.609130859375, 0.174560546875, -0.691650390625
546, 4123510962, -6.36229944229126, 1.8925076723098755, 7.048929214477539, -0.3475003242492676, -0.890002965927124, -1.3579214811325073, 0.613525390625, 0.175048828125, -0.69580078125
547, 4123527629, -6.382540702819824, 1.898173451423645, 7.026239395141602, -0.35278934240341187, -1.051414132118225, -1.4257822036743164, 0.613525390625, 0.173095703125, -0.69580078125
548, 4123544296, -6.3634934425354, 1.912468671798706, 7.026365756988525, -0.3938976228237152, -1.3020597696304321, -1.4720513820648193, 0.611083984375, 0.175048828125, -0.693603515625
549, 4123560963, -6.367812633514404, 1.8915987014770508, 7.046284198760986, -0.41253089904785156, -1.326507329940796, -1.3127658367156982, 0.609619140625, 0.172607421875, -0.693115234375
550, 4123577630, -6.3465800285339355, 1.8859195709228516, 7.027607440948486, -0.4196256399154663, -1.2742574214935303, -1.2446362972259521, 0.610107421875, 0.176025390625, -0.693115234375
551, 4123594297, -6.348508358001709, 1.9119293689727783, 7.015838146209717, -0.2535529136657715, -1.1879554986953735, -1.2702875137329102, 0.613037109375, 0.174560546875, -0.6943359375
552, 4123610964, -6.374115467071533, 1.8880727291107178, 7.028191566467285, -0.24177108705043793, -1.1817315816879272, -1.2164368629455566, 0.612548828125, 0.175537109375, -0.69482421875
553, 4123627631, -6.358325481414795, 1.8982094526290894, 7.037125110626221, -0.2615184783935547, -1.1431972980499268, -1.1702827215194702, 0.612060546875, 0.175537109375, -0.69580078125
554, 4123644298, -6.354389667510986, 1.9005376100540161, 7.045858383178711, -0.09293568134307861, -1.0198209285736084, -1.1961643695831299, 0.611572265625, 0.173095703125, -0.69482421875
555, 4123660965, -6.359157562255859, 1.9245080947875977, 7.041268825531006, -0.1034240871667862, -1.0737611055374146, -1.147103190422058, 0.611083984375, 0.174560546875, -0.6943359375
556, 4123677632, -6.34663724899292, 1.9083151817321777, 7.026449680328369, -0.2845954895019531, -1.2989990711212158, -1.2740908861160278, 0.610595703125, 0.173583984375, -0.6953125
557, 4123694299, -6.345341205596924, 1.8972814083099365, 7.044065475463867, -0.2749522924423218, -1.3927031755447388, -1.2817744016647339, 0.611572265625, 0.173583984375, -0.6953125
558, 4123710966, -6.327651500701904, 1.9265375137329102, 7.021247863769531, -0.37649381160736084, -1.3495714664459229, -1.28520667552948, 0.60986328125, 0.175048828125, -0.69775390625
559, 4123727633, -6.330118179321289, 1.9412944316864014, 7.040411472320557, -0.4184858500957489, -1.2910720109939575, -1.5073200464248657, 0.610107421875, 0.173583984375, -0.6962890625
560, 4123744300, -6.3542399406433105, 1.9404655694961548, 7.04058313369751, -0.5808320641517639, -1.0875792503356934, -1.8102161884307861, 0.61083984375, 0.17626953125, -0.6962890625
561, 4123760967, -6.335287094116211, 1.9050909280776978, 7.035561561584473, -0.7758471965789795, -1.0652579069137573, -1.8567159175872803, 0.60986328125, 0.175537109375, -0.6953125
562, 4123777634, -6.356051921844482, 1.8689589500427246, 7.06062650680542, -0.6774942874908447, -1.1035104990005493, -1.8450748920440674, 0.611572265625, 0.175537109375, -0.693603515625
563, 4123794301, -6.350905418395996, 1.8638811111450195, 7.066044330596924, -0.6678383350372314, -1.101025938987732, -1.678131341934204, 0.612060546875, 0.175048828125, -0.69775390625
564, 4123810968, -6.358644485473633, 1.8892335891723633, 7.045679092407227, -0.46169447898864746, -1.1424416303634644, -1.5918036699295044, 0.612060546875, 0.174560546875, -0.6982421875
565, 4123827635, -6.345830917358398, 1.906116008758545, 7.066593170166016, -0.491546094417572, -1.1494593620300293, -1.5745277404785156, 0.60986328125, 0.1767578125, -0.6962890625
566, 4123844302, -6.354277610778809, 1.886069893836975, 7.036642551422119, -0.3750082850456238, -1.0861704349517822, -1.4629074335098267, 0.612060546875, 0.175537109375, -0.69775390625
567, 4123860969, -6.33253812789917, 1.8962304592132568, 7.049434185028076, -0.3458995223045349, -0.9615007042884827, -1.3763751983642578, 0.6103515625, 0.176025390625, -0.697265625
568, 4123877636, -6.343969821929932, 1.8911166191101074, 7.0558271408081055, -0.27747514843940735, -0.9052936434745789, -1.3185416460037231, 0.611083984375, 0.17626953125, -0.69482421875
569, 4123894303, -6.348682403564453, 1.862318754196167, 7.059103012084961, -0.2153259813785553, -0.7463797330856323, -1.2739756107330322, 0.611572265625, 0.174560546875, -0.6962890625
570, 4123910970, -6.343510627746582, 1.893405795097351, 7.040457725524902, -0.04356720298528671, -0.723609983921051, -1.1385486125946045, 0.612548828125, 0.174560546875, -0.6982421875
571, 4123927637, -6.345020294189453, 1.896460771560669, 7.055486679077148, -0.07694055140018463, -0.8152906894683838, -1.0268131494522095, 0.6103515625, 0.175537109375, -0.69873046875
572, 4123944304, -6.341167449951172, 1.892499566078186, 7.024109363555908, -0.028391676023602486, -0.977739155292511, -1.0250202417373657, 0.612060546875, 0.1767578125, -0.697265625
573, 4123960971, -6.342141151428223, 1.882965087890625, 7.032290935516357, 0.06977539509534836, -1.0347145795822144, -0.896713376045227, 0.61083984375, 0.174560546875, -0.69921875
574, 4123977638, -6.345714092254639, 1.8962054252624512, 7.052276134490967, 0.2775712311267853, -0.9326224327087402, -0.9063436985015869, 0.611083984375, 0.1767578125, -0.6962890625
575, 4123994305, -6.330902576446533, 1.8894951343536377, 7.0707316398620605, 0.38647645711898804, -0.8304789662361145, -0.8433109521865845, 0.614013671875, 0.17578125, -0.69580078125
576, 4124010972, -6.339080333709717, 1.8839290142059326, 7.06975793838501, 0.39777159690856934, -0.7926361560821533, -0.6699769496917725, 0.610595703125, 0.174560546875, -0.6962890625
577, 4124027639, -6.343327045440674, 1.9084581136703491, 7.04435396194458, 0.6690869927406311, -0.6844353079795837, -0.5234082937240601, 0.611083984375, 0.174072265625, -0.6943359375
578, 4124044306, -6.345262050628662, 1.8803032636642456, 7.072017192840576, 1.0949877500534058, -0.44061529636383057, -0.3423137366771698, 0.609375, 0.173583984375, -0.69677734375
579, 4124060973, -6.344944477081299, 1.8930091857910156, 7.043089866638184, 1.556874394416809, -0.2681521475315094, -0.02415277622640133, 0.611083984375, 0.172119140625, -0.697265625
580, 4124077640, -6.357120990753174, 1.932621717453003, 7.072391033172607, 1.4850819110870361, -0.4792775809764862, 0.08437462896108627, 0.610595703125, 0.173095703125, -0.69580078125
581, 4124094307, -6.331491947174072, 1.9565590620040894, 7.0584235191345215, 1.248651146888733, -0.6982021927833557, -0.1657525897026062, 0.613525390625, 0.171142578125, -0.6953125
582, 4124110974, -6.3442487716674805, 1.876510739326477, 7.0505290031433105, 1.660208821296692, -0.41488733887672424, 0.14197759330272675, 0.611572265625, 0.171142578125, -0.69775390625
583, 4124127641, -6.3397297859191895, 1.9938488006591797, 7.034583568572998, 1.4069632291793823, -0.5542716383934021, 0.11590386927127838, 0.612060546875, 0.1689453125, -0.69775390625
584, 4124144308, -6.340872287750244, 1.9630271196365356, 7.044851779937744, 1.0917861461639404, -0.8750706911087036, -0.1310601830482483, 0.610595703125, 0.1708984375, -0.69580078125
585, 4124160975, -6.338247776031494, 1.8988648653030396, 7.082047939300537, 1.4136608839035034, -0.48066070675849915, -0.05583568289875984, 0.612060546875, 0.1689453125, -0.69580078125
586, 4124177642, -6.354753017425537, 1.937294840812683, 7.03659200668335, 2.0077474117279053, 0.004091627895832062, 0.31152084469795227, 0.611083984375, 0.171142578125, -0.693115234375
587, 4124194309, -6.3506035804748535, 1.948967695236206, 7.042616367340088, 2.218130111694336, 0.14817588031291962, 0.49146291613578796, 0.612548828125, 0.17041015625, -0.6962890625
588, 4124210976, -6.332324504852295, 1.9764671325683594, 7.032258987426758, 1.9475189447402954, -0.08931147307157516, 0.3853110074996948, 0.611572265625, 0.169921875, -0.69482421875
589, 4124227643, -6.342265605926514, 1.9670302867889404, 7.045246601104736, 1.556003451347351, -0.4936079680919647, 0.22880466282367706, 0.611083984375, 0.166015625, -0.695556640625
590, 4124244310, -6.355428695678711, 1.9757353067398071, 7.0415449142456055, 1.6437270641326904, -0.35399314761161804, 0.3153243958950043, 0.611572265625, 0.16650390625, -0.694580078125
591, 4124260977, -6.331355094909668, 2.0186212062835693, 7.007169723510742, 1.5284314155578613, -0.41915181279182434, 0.258105605840683, 0.611572265625, 0.16650390625, -0.694580078125
592, 4124277644, -6.327071189880371, 2.0336084365844727, 7.007274627685547, 1.0598982572555542, -0.664687991142273, -0.0016776317497715354, 0.609619140625, 0.162841796875, -0.694580078125
593, 4124294311, -6.332214832305908, 2.02498459815979, 7.019634246826172, 0.7211959362030029, -0.6213512420654297, -0.2953528165817261, 0.61181640625, 0.165283203125, -0.695556640625
594, 4124310978, -6.345790386199951, 2.0123372077941895, 7.0146164894104, 0.7162527441978455, -0.4907265305519104, -0.47320741415023804, 0.611083984375, 0.164794921875, -0.695068359375
595, 4124327645, -6.366231441497803, 1.9670040607452393, 7.040216445922852, 1.1251466274261475, -0.3189293146133423, -0.15292061865329742, 0.610107421875, 0.164306640625, -0.695556640625
596, 4124344312, -6.3433661460876465, 2.058865547180176, 7.008681297302246, 1.2376632690429688, -0.06526115536689758, 0.010353933088481426, 0.610595703125, 0.165283203125, -0.694580078125
597, 4124360979, -6.3426594734191895, 2.0336265563964844, 7.041173458099365, 1.2429523468017578, -0.33521902561187744, 0.042549096047878265, 0.6103515625, 0.164306640625, -0.693603515625
598, 4124377646, -6.329200744628906, 2.0386836528778076, 7.02372407913208, 0.8601705431938171, -0.5721621513366699, -0.16477932035923004, 0.609375, 0.160888671875, -0.695556640625
599, 4124394313, -6.320664405822754, 2.067354679107666, 7.025966167449951, 0.52473384141922, -0.7199217677116394, -0.4973473846912384, 0.6123046875, 0.162841796875, -0.693115234375
600, 4124410980, -6.3182830810546875, 2.083787441253662, 7.009377479553223, 0.13849428296089172, -0.819542407989502, -0.9831691384315491, 0.61328125, 0.160400390625, -0.694580078125
601, 4124427647, -6.322299480438232, 2.0458638668060303, 7.02091646194458, -0.18998222053050995, -0.8023306727409363, -1.3115111589431763, 0.6103515625, 0.162353515625, -0.696044921875
602, 4124444314, -6.368793964385986, 1.9896246194839478, 7.02446985244751, 0.09733467549085617, -0.4665353298187256, -1.1652498245239258, 0.6103515625, 0.162353515625, -0.692626953125
603, 4124460981, -6.3385910987854, 2.003458023071289, 7.006942272186279, -0.3203764259815216, -0.3680289089679718, -1.2385661602020264, 0.61181640625, 0.162841796875, -0.694580078125
604, 4124477648, -6.381120204925537, 2.0375266075134277, 7.0563764572143555, 0.37852370738983154, -0.3935263156890869, -0.7102529406547546, 0.61083984375, 0.162353515625, -0.694580078125
605, 4124494315, -6.36983060836792, 1.9969061613082886, 7.033753871917725, 0.7844337821006775, -0.2630808651447296, -0.2768348753452301, 0.611328125, 0.162353515625, -0.694091796875
606, 4124510982, -6.367290496826172, 2.047445297241211, 7.001440048217773, 1.125441074371338, -0.5854166150093079, 0.06063166260719299, 0.6123046875, 0.161376953125, -0.694091796875
607, 4124527649, -6.35117244720459, 2.0719759464263916, 7.0076985359191895, 0.8686866760253906, -0.6866123676300049, -0.10225869715213776, 0.611328125, 0.15966796875, -0.694091796875
608, 4124544316, -6.324519157409668, 2.0914721488952637, 7.020871162414551, 0.4546702802181244, -1.008628010749817, -0.4859113395214081, 0.61083984375, 0.162841796875, -0.692626953125
609, 4124560983, -6.336440563201904, 2.0842487812042236, 6.998921871185303, 0.11161375045776367, -1.3006129264831543, -0.7580847144126892, 0.61083984375, 0.163818359375, -0.694091796875
610, 4124577650, -6.312952995300293, 2.085094451904297, 7.01607608795166, -0.14387933909893036, -1.2728358507156372, -1.0278377532958984, 0.611328125, 0.160400390625, -0.692138671875
611, 4124594317, -6.334481716156006, 2.0716803073883057, 7.001370429992676, -0.25251561403274536, -1.1918870210647583, -1.1291102170944214, 0.61279296875, 0.162353515625, -0.693115234375
612, 4124610984, -6.333810806274414, 2.060929536819458, 7.013117790222168, -0.31566372513771057, -1.186841368675232, -1.1047396659851074, 0.61279296875, 0.159912109375, -0.693603515625
613, 4124627651, -6.3366851806640625, 2.0327835083007812, 7.018280982971191, -0.34214726090431213, -1.037276029586792, -1.2265026569366455, 0.611328125, 0.160888671875, -0.693115234375
614, 4124644318, -6.333603382110596, 2.0557916164398193, 7.038600444793701, -0.3429412245750427, -1.0956473350524902, -1.2150280475616455, 0.61083984375, 0.15869140625, -0.695068359375
615, 4124660985, -6.319324493408203, 2.0970351696014404, 7.006657600402832, -0.490547239780426, -1.2743343114852905, -1.3071951866149902, 0.611328125, 0.16015625, -0.694580078125
616, 4124677652, -6.339849948883057, 2.062119960784912, 7.017943859100342, -0.6759704351425171, -1.2738604545593262, -1.6255356073379517, 0.61328125, 0.15966796875, -0.691650390625
617, 4124694319, -6.324177265167236, 2.0782089233398438, 7.021229267120361, -0.5607772469520569, -1.4614734649658203, -1.5826983451843262, 0.61181640625, 0.160888671875, -0.694091796875
618, 4124710986, -6.314023494720459, 2.0539329051971436, 7.0145134925842285, -0.6686196327209473, -1.429060697555542, -1.7260911464691162, 0.6103515625, 0.160400390625, -0.693603515625
619, 4124727653, -6.348504066467285, 2.0450456142425537, 7.02656888961792, -0.7086521983146667, -1.4086984395980835, -1.7246694564819336, 0.61328125, 0.160400390625, -0.69677734375
620, 4124744320, -6.315570831298828, 2.0347228050231934, 7.028496265411377, -0.5000879764556885, -1.4221837520599365, -1.542781114578247, 0.6103515625, 0.16064453125, -0.695556640625
621, 4124760987, -6.352759838104248, 2.013669967651367, 7.058468818664551, -0.03394963592290878, -1.202260136604309, -1.0531302690505981, 0.609619140625, 0.161376953125, -0.696044921875
622, 4124777654, -6.321391582489014, 2.0369315147399902, 7.037657737731934, 0.11902862787246704, -1.171332836151123, -0.8866732716560364, 0.61083984375, 0.160888671875, -0.694580078125
623, 4124794321, -6.328636646270752, 2.035318613052368, 7.028814792633057, 0.322457492351532, -1.2703642845153809, -0.7570602297782898, 0.61279296875, 0.160400390625, -0.695068359375
624, 4124810988, -6.323211669921875, 2.059706211090088, 7.0356526374816895, 0.46847549080848694, -1.0616590976715088, -0.692298412322998, 0.6103515625, 0.15966796875, -0.693115234375
625, 4124827655, -6.328058242797852, 2.071382522583008, 7.025664329528809, 0.27671322226524353, -1.0675630569458008, -0.8650177717208862, 0.6103515625, 0.16064453125, -0.695556640625
626, 4124844322, -6.282278537750244, 2.0825552940368652, 6.996766090393066, -0.019222332164645195, -1.0055289268493652, -1.0027244091033936, 0.6103515625, 0.16064453125, -0.695068359375
627, 4124860989, -6.3006792068481445, 2.0758144855499268, 6.9902448654174805, -0.19546329975128174, -0.9714255928993225, -1.2483372688293457, 0.61083984375, 0.16015625, -0.696044921875
628, 4124877656, -6.319100379943848, 2.042711019515991, 7.043184757232666, -0.27879419922828674, -0.7771404981613159, -1.31102454662323, 0.61181640625, 0.15869140625, -0.694580078125
629, 4124894323, -6.3298163414001465, 2.0618348121643066, 7.024730205535889, -0.04939408600330353, -0.929151713848114, -1.0726596117019653, 0.61083984375, 0.16015625, -0.695068359375
630, 4124910990, -6.3216118812561035, 2.0346310138702393, 7.050252437591553, 0.3024027645587921, -0.9326352477073669, -0.8163279294967651, 0.61083984375, 0.160400390625, -0.697265625
631, 4124927657, -6.333897590637207, 2.0513834953308105, 7.026572227478027, 0.5834124684333801, -0.8847138285636902, -0.5792824029922485, 0.61181640625, 0.1591796875, -0.695068359375
632, 4124944324, -6.344476699829102, 2.0425310134887695, 7.041065216064453, 0.9117031693458557, -0.7672796845436096, -0.32876458764076233, 0.61083984375, 0.1591796875, -0.696533203125
633, 4124960991, -6.315617561340332, 2.0622994899749756, 7.022040367126465, 0.9804606437683105, -0.7474170327186584, -0.1618722826242447, 0.60888671875, 0.1572265625, -0.694091796875
634, 4124977658, -6.335435390472412, 2.068267583847046, 7.04558801651001, 1.117283582687378, -0.7542172074317932, -0.09495909512042999, 0.611328125, 0.1591796875, -0.693603515625
635, 4124994325, -6.350678443908691, 2.040952444076538, 7.069103240966797, 1.5775567293167114, -0.7519633173942566, 0.3384142518043518, 0.61083984375, 0.1572265625, -0.695556640625
636, 4125010992, -6.30436372756958, 2.064868688583374, 7.034855365753174, 1.7122409343719482, -0.8623539209365845, 0.5425986051559448, 0.611328125, 0.15576171875, -0.695068359375
637, 4125027659, -6.302613735198975, 2.115997076034546, 6.99922513961792, 1.6121463775634766, -0.9520494937896729, 0.516486406326294, 0.6123046875, 0.15576171875, -0.695068359375
638, 4125044326, -6.289094924926758, 2.1245365142822266, 7.003664016723633, 1.3662645816802979, -0.8499830961227417, 0.2277161329984665, 0.611328125, 0.15576171875, -0.694091796875
639, 4125060993, -6.3223443031311035, 2.1090846061706543, 7.038995265960693, 1.5201458930969238, -0.7808416485786438, 0.359941691160202, 0.610595703125, 0.152587890625, -0.692626953125
640, 4125077660, -6.310811519622803, 2.1012320518493652, 7.039999008178711, 1.645097017288208, -0.8378040790557861, 0.42212921380996704, 0.613037109375, 0.1552734375, -0.69189453125
641, 4125094327, -6.290488243103027, 2.146054744720459, 7.028382778167725, 1.5229377746582031, -0.798565685749054, 0.4038034677505493, 0.611083984375, 0.153076171875, -0.6923828125
642, 4125110994, -6.306503772735596, 2.1395037174224854, 7.024496555328369, 1.5200176239013672, -0.6248089671134949, 0.257990300655365, 0.6103515625, 0.154541015625, -0.692138671875
643, 4125127661, -6.274668216705322, 2.173140287399292, 6.986993312835693, 1.257359504699707, -0.5912180542945862, 0.06431989371776581, 0.611083984375, 0.152099609375, -0.695068359375
644, 4125144328, -6.327062129974365, 2.1092641353607178, 6.991219997406006, 1.2311961650848389, -0.6703484058380127, 0.055726826190948486, 0.611083984375, 0.152587890625, -0.693115234375
645, 4125160995, -6.293217658996582, 2.193415880203247, 7.013294219970703, 0.9686658978462219, -0.7599800229072571, -0.052646901458501816, 0.60888671875, 0.151611328125, -0.69140625
646, 4125177662, -6.339304447174072, 2.1465628147125244, 7.026344299316406, 0.8239926695823669, -0.83599853515625, -0.18131230771541595, 0.610107421875, 0.151123046875, -0.6923828125
647, 4125194329, -6.322984218597412, 2.1630709171295166, 7.0200324058532715, 0.9293760657310486, -0.9388334155082703, -0.15928539633750916, 0.611083984375, 0.151611328125, -0.693603515625
648, 4125210996, -6.270082473754883, 2.2130064964294434, 6.989500045776367, 0.6278120875358582, -1.082828164100647, -0.4720676839351654, 0.610107421875, 0.150146484375, -0.693603515625
649, 4125227663, -6.2761921882629395, 2.194408416748047, 6.99213171005249, 0.15646158158779144, -1.168476939201355, -0.7271830439567566, 0.610595703125, 0.1494140625, -0.695068359375
650, 4125244330, -6.293333530426025, 2.178576707839966, 6.998233318328857, -0.03717683255672455, -1.0752211809158325, -0.9088795185089111, 0.610595703125, 0.1484375, -0.693603515625
651, 4125260997, -6.294155597686768, 2.1779086589813232, 7.003396987915039, -0.1669691801071167, -1.3105506896972656, -1.0292718410491943, 0.608642578125, 0.14892578125, -0.693115234375
652, 4125277664, -6.26388692855835, 2.1721115112304688, 7.0206756591796875, -0.15587890148162842, -1.194973349571228, -1.1631109714508057, 0.608154296875, 0.1474609375, -0.69091796875
653, 4125294331, -6.320364952087402, 2.1295433044433594, 7.061262130737305, -0.008605866692960262, -1.1085689067840576, -1.084928274154663, 0.60986328125, 0.151123046875, -0.692626953125
