sep=,
DeviceTag:,A,,,,,,,,,,,,,,,,,
FirmwareVersion:,2.2.1,,,,,,,,,,,,,,,,,
AppVersion:,2023.6.1,,,,,,,,,,,,,,,,,
SyncStatus:,Synced,,,,,,,,,,,,,,,,,
OutputRate:,60Hz,,,,,,,,,,,,,,,,,
FilterProfile:,General,,,,,,,,,,,,,,,,,
Measurement Mode:,Inertial Mode - Rate quantities (with mag),,,,,,,,,,,,,,,,,
StartTime:,2023-12-07 13:13:36.573 +0200,,,,,,,,,,,,,,,,,
 2023,,,,,,,,,,,,,,,,,,,

PacketCounter,SampleTimeFine,Acc_X,Acc_Y,Acc_Z,Gyr_X,Gyr_Y,Gyr_Z,Mag_X,Mag_Y,Mag_Z
1, 2855252264, -6.821442127227783, -0.8541009426116943, 7.112233638763428, -2.474519729614258, -1.5810848474502563, -2.3697638511657715, 1.11669921875, -0.397216796875, 0.056884765625
2, 2855268931, -6.825467586517334, -0.8524701595306396, 7.105232238769531, -2.55513596534729, -1.5579566955566406, -2.376858949661255, 1.11572265625, -0.39892578125, 0.057861328125
3, 2855285598, -6.833578109741211, -0.8448061943054199, 7.130886077880859, -2.514911413192749, -1.5146968364715576, -2.3918418884277344, 1.1162109375, -0.3974609375, 0.058837890625
4, 2855302265, -6.834697246551514, -0.8619416356086731, 7.112238883972168, -2.564100742340088, -1.5196657180786133, -2.5095455646514893, 1.11767578125, -0.3984375, 0.059814453125
5, 2855318932, -6.8251237869262695, -0.8539252281188965, 7.105892181396484, -2.638620615005493, -1.4803502559661865, -2.4578845500946045, 1.1171875, -0.3984375, 0.058837890625
6, 2855335599, -6.801895618438721, -0.86793452501297, 7.099250316619873, -2.5935678482055664, -1.4403560161590576, -2.524810791015625, 1.1181640625, -0.397216796875, 0.057861328125
7, 2855352266, -6.827526092529297, -0.8612840175628662, 7.110732555389404, -2.6742351055145264, -1.3612253665924072, -2.50799560546875, 1.11767578125, -0.396728515625, 0.056884765625
8, 2855368933, -6.8166399002075195, -0.8632620573043823, 7.101024150848389, -2.6376218795776367, -1.373494029045105, -2.567814588546753, 1.1162109375, -0.395751953125, 0.058837890625
9, 2855385600, -6.8282151222229, -0.8534847497940063, 7.103323459625244, -2.6953914165496826, -1.3563976287841797, -2.5157310962677, 1.114013671875, -0.3974609375, 0.058837890625
10, 2855402267, -6.823914527893066, -0.8473803997039795, 7.117814540863037, -2.540741443634033, -1.4016165733337402, -2.390036106109619, 1.1171875, -0.396240234375, 0.057373046875
11, 2855418934, -6.8224334716796875, -0.8485329151153564, 7.100327491760254, -2.5399858951568604, -1.5049638748168945, -2.3395535945892334, 1.1181640625, -0.397705078125, 0.058349609375
12, 2855435601, -6.82029390335083, -0.8536221981048584, 7.11084508895874, -2.4507129192352295, -1.580047369003296, -2.2758421897888184, 1.1162109375, -0.3974609375, 0.058349609375
13, 2855452268, -6.827853679656982, -0.8765289783477783, 7.126549243927002, -2.4020614624023438, -1.642043113708496, -2.334418535232544, 1.11865234375, -0.395751953125, 0.057373046875
14, 2855468935, -6.81261682510376, -0.8586682677268982, 7.112796306610107, -2.366255044937134, -1.654785394668579, -2.182163715362549, 1.11767578125, -0.396240234375, 0.057373046875
15, 2855485602, -6.813686847686768, -0.8619938492774963, 7.081035614013672, -2.3017749786376953, -1.6359599828720093, -2.202192783355713, 1.11767578125, -0.3994140625, 0.056396484375
16, 2855502269, -6.823604106903076, -0.8640422821044922, 7.123275279998779, -2.223604917526245, -1.6173906326293945, -2.2486157417297363, 1.1162109375, -0.39794921875, 0.059326171875
17, 2855518936, -6.821547508239746, -0.8631467223167419, 7.102248191833496, -2.4189915657043457, -1.4768155813217163, -2.3485820293426514, 1.1181640625, -0.39794921875, 0.058837890625
18, 2855535603, -6.804710865020752, -0.8639347553253174, 7.128807067871094, -2.4614832401275635, -1.4652643203735352, -2.351553201675415, 1.11767578125, -0.397216796875, 0.057373046875
19, 2855552270, -6.8353095054626465, -0.8600805997848511, 7.134518623352051, -2.4311320781707764, -1.439113736152649, -2.4459104537963867, 1.1162109375, -0.3984375, 0.059814453125
20, 2855568937, -6.815649032592773, -0.873321533203125, 7.127711296081543, -2.4558355808258057, -1.498125433921814, -2.4312217235565186, 1.119140625, -0.397705078125, 0.058349609375
21, 2855585604, -6.817562580108643, -0.8583537936210632, 7.106499195098877, -2.442516565322876, -1.544087290763855, -2.3485052585601807, 1.119140625, -0.396240234375, 0.058837890625
22, 2855602271, -6.824681282043457, -0.8642799258232117, 7.127837181091309, -2.4529666900634766, -1.4114902019500732, -2.434218168258667, 1.1171875, -0.396728515625, 0.05615234375
23, 2855618938, -6.815677165985107, -0.8482481241226196, 7.1086225509643555, -2.4812734127044678, -1.422123908996582, -2.425351619720459, 1.1181640625, -0.397705078125, 0.058837890625
24, 2855635605, -6.810940265655518, -0.8640407919883728, 7.108849048614502, -2.547823905944824, -1.2879347801208496, -2.555917501449585, 1.11865234375, -0.3984375, 0.057861328125
25, 2855652272, -6.823122024536133, -0.8490700721740723, 7.113021373748779, -2.6622486114501953, -1.2719653844833374, -2.594592571258545, 1.1171875, -0.39794921875, 0.058349609375
26, 2855668939, -6.8164448738098145, -0.8790196776390076, 7.096506118774414, -2.623739719390869, -1.3441035747528076, -2.5218141078948975, 1.11767578125, -0.394775390625, 0.057861328125
27, 2855685606, -6.820581436157227, -0.8814927935600281, 7.1245951652526855, -2.5680320262908936, -1.3217178583145142, -2.4409801959991455, 1.1171875, -0.397216796875, 0.058837890625
28, 2855702273, -6.83668851852417, -0.8882877230644226, 7.100832462310791, -2.4569878578186035, -1.3974673748016357, -2.44115948677063, 1.1162109375, -0.395751953125, 0.058349609375
29, 2855718940, -6.8315815925598145, -0.8603207468986511, 7.10577392578125, -2.4029576778411865, -1.5667799711227417, -2.2876362800598145, 1.119873046875, -0.397216796875, 0.056396484375
30, 2855735607, -6.82861328125, -0.8760433197021484, 7.1011481285095215, -2.316028356552124, -1.637048602104187, -2.232992172241211, 1.1171875, -0.396728515625, 0.05615234375
31, 2855752274, -6.820170879364014, -0.8582854270935059, 7.112969398498535, -2.261793375015259, -1.5701992511749268, -2.2000155448913574, 1.120361328125, -0.396728515625, 0.057373046875
32, 2855768941, -6.829957485198975, -0.8679811954498291, 7.123719215393066, -2.362579584121704, -1.5463669300079346, -2.151761531829834, 1.11572265625, -0.395751953125, 0.058349609375
33, 2855785608, -6.823794841766357, -0.8688662648200989, 7.109356880187988, -2.3254024982452393, -1.4273186922073364, -2.2562482357025146, 1.1171875, -0.3984375, 0.056884765625
34, 2855802275, -6.827043056488037, -0.8712289333343506, 7.122492790222168, -2.319742202758789, -1.49051833152771, -2.126315116882324, 1.1171875, -0.39794921875, 0.059814453125
35, 2855818942, -6.829185962677002, -0.8659692406654358, 7.104978561401367, -2.234682559967041, -1.5438951253890991, -2.143244981765747, 1.11767578125, -0.396728515625, 0.059326171875
36, 2855835609, -6.832114219665527, -0.8622626662254333, 7.122649192810059, -2.1612634658813477, -1.634307861328125, -2.146958827972412, 1.11865234375, -0.395263671875, 0.057373046875
37, 2855852276, -6.816362380981445, -0.8528934121131897, 7.115385055541992, -2.1180548667907715, -1.7256042957305908, -2.132641315460205, 1.11962890625, -0.397216796875, 0.057373046875
38, 2855868943, -6.8256330490112305, -0.8777371644973755, 7.111474514007568, -2.187964677810669, -1.7550973892211914, -2.1109731197357178, 1.11669921875, -0.396728515625, 0.060302734375
39, 2855885610, -6.82674503326416, -0.8526007533073425, 7.0889973640441895, -2.106708526611328, -1.763549566268921, -2.020163059234619, 1.1171875, -0.395751953125, 0.057861328125
40, 2855902277, -6.831153392791748, -0.8647379875183105, 7.1135149002075195, -2.1689348220825195, -1.670857310295105, -2.0436630249023438, 1.1171875, -0.397216796875, 0.059326171875
41, 2855918944, -6.804972171783447, -0.8656045794487, 7.11119270324707, -2.2186102867126465, -1.5650383234024048, -2.089407205581665, 1.11767578125, -0.397705078125, 0.056396484375
42, 2855935611, -6.817474842071533, -0.8634040355682373, 7.093766689300537, -2.2081987857818604, -1.6430164575576782, -2.0529861450195312, 1.11767578125, -0.395263671875, 0.057373046875
43, 2855952278, -6.818999767303467, -0.8726987838745117, 7.126778602600098, -2.254366159439087, -1.622743844985962, -2.075140953063965, 1.1181640625, -0.396728515625, 0.059326171875
44, 2855968945, -6.823519229888916, -0.8662539720535278, 7.10292387008667, -2.1399025917053223, -1.6567189693450928, -1.9973293542861938, 1.1171875, -0.397705078125, 0.058837890625
45, 2855985612, -6.813939571380615, -0.8525494933128357, 7.109218597412109, -2.189847230911255, -1.7355676889419556, -2.0042450428009033, 1.1181640625, -0.39794921875, 0.059326171875
46, 2856002279, -6.821651935577393, -0.8608421683311462, 7.1131391525268555, -2.190199375152588, -1.76718008518219, -1.8988806009292603, 1.119140625, -0.397216796875, 0.058349609375
47, 2856018946, -6.834007740020752, -0.855105459690094, 7.138615131378174, -2.1927926540374756, -1.7654705047607422, -2.0176658630371094, 1.11767578125, -0.397216796875, 0.058837890625
48, 2856035613, -6.824663162231445, -0.8582438826560974, 7.124486923217773, -2.1975440979003906, -1.6539400815963745, -2.054842948913574, 1.11767578125, -0.396728515625, 0.057861328125
49, 2856052280, -6.815536022186279, -0.8607482314109802, 7.094229221343994, -2.3379530906677246, -1.6428755521774292, -2.1655666828155518, 1.119873046875, -0.39794921875, 0.057373046875
50, 2856068947, -6.823444366455078, -0.8655096888542175, 7.123452186584473, -2.377396583557129, -1.7442634105682373, -2.1113317012786865, 1.11767578125, -0.39892578125, 0.056884765625
51, 2856085614, -6.81033182144165, -0.85866379737854, 7.123314380645752, -2.1979026794433594, -1.7211735248565674, -2.1355998516082764, 1.1162109375, -0.3984375, 0.058837890625
52, 2856102281, -6.813348770141602, -0.8501628637313843, 7.089221477508545, -2.337043523788452, -1.6580126285552979, -2.1490464210510254, 1.11865234375, -0.397705078125, 0.058349609375
53, 2856118948, -6.819321155548096, -0.8574662208557129, 7.1265668869018555, -2.402573823928833, -1.5763849020004272, -2.265904426574707, 1.1162109375, -0.397216796875, 0.058349609375
54, 2856135615, -6.8210954666137695, -0.8624765872955322, 7.115278720855713, -2.3163485527038574, -1.5646671056747437, -2.2498068809509277, 1.11767578125, -0.39794921875, 0.056396484375
55, 2856152282, -6.804390907287598, -0.8509411215782166, 7.122689723968506, -2.4171857833862305, -1.5329456329345703, -2.2640602588653564, 1.11767578125, -0.397705078125, 0.056884765625
56, 2856168949, -6.818544864654541, -0.8526495695114136, 7.103540420532227, -2.4821393489837646, -1.3959304094314575, -2.313556671142578, 1.1181640625, -0.397705078125, 0.057373046875
57, 2856185616, -6.814233779907227, -0.8769994974136353, 7.12497091293335, -2.402432680130005, -1.3850066661834717, -2.3051555156707764, 1.11767578125, -0.3984375, 0.058349609375
58, 2856202283, -6.82621955871582, -0.8518548011779785, 7.10883092880249, -2.450584650039673, -1.464137077331543, -2.2431600093841553, 1.11669921875, -0.3994140625, 0.058837890625
59, 2856218950, -6.823588848114014, -0.8470664620399475, 7.112517356872559, -2.3783676624298096, -1.50754976272583, -2.1792407035827637, 1.1162109375, -0.3974609375, 0.0537109375
60, 2856235617, -6.811085224151611, -0.8626390099525452, 7.130819320678711, -2.401843786239624, -1.4961146116256714, -2.1381866931915283, 1.11669921875, -0.396240234375, 0.057373046875
61, 2856252284, -6.822192192077637, -0.8491965532302856, 7.135114669799805, -2.319485902786255, -1.5723122358322144, -2.157114267349243, 1.11865234375, -0.3984375, 0.057861328125
62, 2856268951, -6.809007167816162, -0.846511721611023, 7.108177661895752, -2.3675098419189453, -1.5334066152572632, -2.1714189052581787, 1.1181640625, -0.39794921875, 0.059814453125
63, 2856285618, -6.810287952423096, -0.8618301153182983, 7.110818386077881, -2.3515403270721436, -1.4980355501174927, -2.166027307510376, 1.11767578125, -0.3994140625, 0.057861328125
64, 2856302285, -6.8285956382751465, -0.8500170707702637, 7.129138946533203, -2.3403217792510986, -1.4355789422988892, -2.0967578887939453, 1.1171875, -0.39892578125, 0.058349609375
65, 2856318952, -6.823034286499023, -0.8436461091041565, 7.108674049377441, -2.4239602088928223, -1.4619088172912598, -2.079789400100708, 1.11865234375, -0.397705078125, 0.056884765625
66, 2856335619, -6.816049575805664, -0.8508753776550293, 7.1034464836120605, -2.3678555488586426, -1.3556030988693237, -2.141106367111206, 1.119384765625, -0.39794921875, 0.056396484375
67, 2856352286, -6.825076580047607, -0.8285934329032898, 7.126063823699951, -2.4108850955963135, -1.3187339305877686, -2.27048921585083, 1.11767578125, -0.397705078125, 0.055908203125
68, 2856368953, -6.831567287445068, -0.8507460951805115, 7.120886325836182, -2.3895750045776367, -1.4454526901245117, -2.1648108959198, 1.1181640625, -0.39892578125, 0.056884765625
69, 2856385620, -6.816656589508057, -0.8527864813804626, 7.0958404541015625, -2.30232572555542, -1.3794103860855103, -2.086026430130005, 1.118896484375, -0.39990234375, 0.056396484375
70, 2856402287, -6.835463047027588, -0.8509842753410339, 7.125750541687012, -2.2573494911193848, -1.5711853504180908, -2.128031015396118, 1.1162109375, -0.39892578125, 0.057373046875
71, 2856418954, -6.821441173553467, -0.8539336919784546, 7.111374378204346, -2.275239944458008, -1.6728293895721436, -2.087524652481079, 1.1171875, -0.39794921875, 0.057861328125
72, 2856435621, -6.820184707641602, -0.8499118089675903, 7.098477363586426, -2.2697205543518066, -1.6214886903762817, -2.1512744426727295, 1.11669921875, -0.39892578125, 0.057373046875
73, 2856452288, -6.821836948394775, -0.8481862545013428, 7.1215949058532715, -2.2687344551086426, -1.5156954526901245, -2.09907603263855, 1.119873046875, -0.397705078125, 0.057861328125
74, 2856468955, -6.83279275894165, -0.8438610434532166, 7.134438514709473, -2.3297438621520996, -1.4573113918304443, -2.1270833015441895, 1.11669921875, -0.40087890625, 0.058837890625
75, 2856485622, -6.823354721069336, -0.8469803929328918, 7.107524871826172, -2.365051031112671, -1.4525600671768188, -2.129286050796509, 1.1171875, -0.3994140625, 0.058349609375
76, 2856502289, -6.816778659820557, -0.8515337109565735, 7.1158833503723145, -2.3281302452087402, -1.53286874294281, -2.04605770111084, 1.11767578125, -0.3984375, 0.058837890625
77, 2856518956, -6.814356327056885, -0.84761643409729, 7.116062164306641, -2.2522780895233154, -1.653645634651184, -2.100407838821411, 1.11865234375, -0.397705078125, 0.056396484375
78, 2856535623, -6.818508625030518, -0.8476482033729553, 7.121389389038086, -2.2634453773498535, -1.6113203763961792, -2.1168127059936523, 1.119384765625, -0.39892578125, 0.057373046875
79, 2856552290, -6.817996501922607, -0.8476773500442505, 7.123666763305664, -2.275047779083252, -1.6132925748825073, -2.1625185012817383, 1.11767578125, -0.395751953125, 0.05517578125
80, 2856568957, -6.814999103546143, -0.8352112174034119, 7.136477947235107, -2.269758939743042, -1.6065820455551147, -2.1314120292663574, 1.1162109375, -0.39892578125, 0.058349609375
81, 2856585624, -6.824195861816406, -0.8452293276786804, 7.104958534240723, -2.297433614730835, -1.591496467590332, -2.064396619796753, 1.1171875, -0.39990234375, 0.057861328125
82, 2856602291, -6.818097114562988, -0.8402349948883057, 7.109715938568115, -2.342639923095703, -1.5517454147338867, -2.077906847000122, 1.11572265625, -0.3994140625, 0.059326171875
83, 2856618958, -6.819912433624268, -0.8509839177131653, 7.136850833892822, -2.373298168182373, -1.531024694442749, -2.0234673023223877, 1.1181640625, -0.3984375, 0.058837890625
84, 2856635625, -6.826221942901611, -0.8442995548248291, 7.118795394897461, -2.3084723949432373, -1.6007808446884155, -2.111882209777832, 1.1181640625, -0.3984375, 0.056396484375
85, 2856652292, -6.828456401824951, -0.8470879793167114, 7.1087727546691895, -2.2925543785095215, -1.5849651098251343, -2.110588788986206, 1.1181640625, -0.397705078125, 0.05419921875
86, 2856668959, -6.820531368255615, -0.8423541188240051, 7.100253582000732, -2.3154585361480713, -1.6173204183578491, -2.0365233421325684, 1.1162109375, -0.400390625, 0.057861328125
87, 2856685626, -6.81447172164917, -0.8465989232063293, 7.109658718109131, -2.2106833457946777, -1.5206772089004517, -2.05326771736145, 1.11767578125, -0.39794921875, 0.057861328125
88, 2856702293, -6.838172912597656, -0.835228443145752, 7.098537445068359, -2.2742409706115723, -1.3873885869979858, -2.0384633541107178, 1.119384765625, -0.3984375, 0.056396484375
89, 2856718960, -6.808060646057129, -0.84878009557724, 7.121544361114502, -2.245734214782715, -1.4371540546417236, -2.005589246749878, 1.11669921875, -0.3984375, 0.056884765625
90, 2856735627, -6.816832065582275, -0.8465569615364075, 7.101912498474121, -2.2348616123199463, -1.592175006866455, -1.953595757484436, 1.11767578125, -0.3984375, 0.056396484375
91, 2856752294, -6.812912464141846, -0.8392934799194336, 7.11714506149292, -2.171572685241699, -1.6016260385513306, -1.9460017681121826, 1.11669921875, -0.39990234375, 0.058349609375
92, 2856768961, -6.840593338012695, -0.8231803178787231, 7.119817733764648, -2.108424425125122, -1.5045667886734009, -1.973240613937378, 1.11669921875, -0.40087890625, 0.057861328125
93, 2856785628, -6.8217387199401855, -0.8429763317108154, 7.1134934425354, -2.1334738731384277, -1.5676380395889282, -1.9251912832260132, 1.119140625, -0.39794921875, 0.058837890625
94, 2856802295, -6.829680442810059, -0.8325128555297852, 7.114622592926025, -2.0773820877075195, -1.7913776636123657, -1.9833447933197021, 1.119384765625, -0.4013671875, 0.058349609375
95, 2856818962, -6.810263633728027, -0.8237443566322327, 7.097513198852539, -2.0546553134918213, -1.8427741527557373, -1.9154586791992188, 1.1162109375, -0.400390625, 0.056396484375
96, 2856835629, -6.8245697021484375, -0.8430866599082947, 7.124270439147949, -2.0218665599823, -1.8135712146759033, -1.9273686408996582, 1.1181640625, -0.39990234375, 0.057373046875
97, 2856852296, -6.808693885803223, -0.8378658294677734, 7.145040512084961, -2.083926200866699, -1.7806974649429321, -2.08555269241333, 1.1171875, -0.39990234375, 0.058349609375
98, 2856868963, -6.8165764808654785, -0.8245904445648193, 7.115768909454346, -2.21525502204895, -1.6263166666030884, -2.004411458969116, 1.11767578125, -0.39990234375, 0.057861328125
99, 2856885630, -6.812252521514893, -0.8112819194793701, 7.137986660003662, -2.2980480194091797, -1.5408728122711182, -2.200425386428833, 1.1181640625, -0.39892578125, 0.057373046875
100, 2856902297, -6.8124895095825195, -0.8328282237052917, 7.124396324157715, -2.448420524597168, -1.3937535285949707, -2.254058599472046, 1.1181640625, -0.400390625, 0.058349609375
101, 2856918964, -6.820155620574951, -0.8182134032249451, 7.1252288818359375, -2.414560317993164, -1.3359582424163818, -2.2419049739837646, 1.11865234375, -0.39990234375, 0.056884765625
102, 2856935631, -6.810102462768555, -0.8419061899185181, 7.120315074920654, -2.442119836807251, -1.3835468292236328, -2.298022747039795, 1.11669921875, -0.3994140625, 0.056884765625
103, 2856952298, -6.82006311416626, -0.8399012684822083, 7.120986461639404, -2.381507158279419, -1.5051301717758179, -2.1454861164093018, 1.1171875, -0.3994140625, 0.056884765625
104, 2856968965, -6.828987121582031, -0.8330067992210388, 7.122131824493408, -2.3461742401123047, -1.466378092765808, -2.1746203899383545, 1.11865234375, -0.39990234375, 0.056396484375
105, 2856985632, -6.823705673217773, -0.8263286352157593, 7.1319260597229, -2.326772689819336, -1.4421101808547974, -2.214268922805786, 1.118896484375, -0.3994140625, 0.057861328125
106, 2857002299, -6.808773517608643, -0.8407610654830933, 7.131525993347168, -2.3376455307006836, -1.543779969215393, -2.222593307495117, 1.11669921875, -0.3974609375, 0.056884765625
107, 2857018966, -6.820561408996582, -0.8267765045166016, 7.120232582092285, -2.421334981918335, -1.4810545444488525, -2.201936721801758, 1.11572265625, -0.4013671875, 0.057861328125
108, 2857035633, -6.808776378631592, -0.8213717341423035, 7.1200361251831055, -2.4000892639160156, -1.3928824663162231, -2.2158570289611816, 1.11865234375, -0.39990234375, 0.056884765625
109, 2857052300, -6.8239521980285645, -0.8160831332206726, 7.110813617706299, -2.4399168491363525, -1.4149351119995117, -2.314389228820801, 1.119384765625, -0.39990234375, 0.058349609375
110, 2857068967, -6.814932346343994, -0.8405590057373047, 7.118722915649414, -2.3610424995422363, -1.4253082275390625, -2.1977105140686035, 1.1171875, -0.39990234375, 0.058837890625
111, 2857085634, -6.81334114074707, -0.829975426197052, 7.108888149261475, -2.2868940830230713, -1.5634377002716064, -2.1230368614196777, 1.11767578125, -0.4013671875, 0.055908203125
112, 2857102301, -6.820415019989014, -0.8304761648178101, 7.121074676513672, -2.304234027862549, -1.5139411687850952, -2.0985255241394043, 1.11474609375, -0.3994140625, 0.057373046875
113, 2857118968, -6.8243489265441895, -0.8202613592147827, 7.097921371459961, -2.300327777862549, -1.4319547414779663, -2.097167730331421, 1.118896484375, -0.40087890625, 0.057861328125
114, 2857135635, -6.814280033111572, -0.834010899066925, 7.112192153930664, -2.3570470809936523, -1.381753921508789, -2.172520637512207, 1.1171875, -0.4013671875, 0.057861328125
115, 2857152302, -6.81956672668457, -0.8137138485908508, 7.13184928894043, -2.4050133228302, -1.4605833292007446, -2.143341064453125, 1.1181640625, -0.400390625, 0.056884765625
116, 2857168969, -6.830525875091553, -0.8359697461128235, 7.128029823303223, -2.3328559398651123, -1.4459394216537476, -2.165144205093384, 1.11767578125, -0.40283203125, 0.058349609375
117, 2857185636, -6.817728519439697, -0.8251944184303284, 7.124767780303955, -2.379368305206299, -1.5180262327194214, -2.1390700340270996, 1.11865234375, -0.400390625, 0.056396484375
118, 2857202303, -6.822021961212158, -0.8455884456634521, 7.112165927886963, -2.383312940597534, -1.5425376892089844, -2.2013604640960693, 1.1181640625, -0.400390625, 0.057373046875
119, 2857218970, -6.827621936798096, -0.8243207931518555, 7.115272045135498, -2.2551467418670654, -1.5619136095046997, -2.0966427326202393, 1.1181640625, -0.40185546875, 0.055419921875
120, 2857235637, -6.826648235321045, -0.8154367804527283, 7.15326452255249, -2.323622703552246, -1.5410267114639282, -2.106337547302246, 1.118896484375, -0.400390625, 0.055419921875
121, 2857252304, -6.819662094116211, -0.819024920463562, 7.119896411895752, -2.3332271575927734, -1.5172960758209229, -2.2331581115722656, 1.1181640625, -0.3994140625, 0.056884765625
122, 2857268971, -6.807961940765381, -0.8370863199234009, 7.119558334350586, -2.329807758331299, -1.4687601327896118, -2.1668341159820557, 1.11767578125, -0.39990234375, 0.056396484375
123, 2857285638, -6.816174030303955, -0.8244296908378601, 7.123599052429199, -2.345777750015259, -1.4618192911148071, -2.1737117767333984, 1.118896484375, -0.40234375, 0.057861328125
124, 2857302305, -6.833766937255859, -0.8366861939430237, 7.099956512451172, -2.291184425354004, -1.452009677886963, -2.1689093112945557, 1.1171875, -0.3994140625, 0.056884765625
125, 2857318972, -6.827541351318359, -0.8406089544296265, 7.101258754730225, -2.3519625663757324, -1.4633045196533203, -2.150864839553833, 1.1181640625, -0.40087890625, 0.056396484375
126, 2857335639, -6.829186916351318, -0.8417416214942932, 7.127806663513184, -2.274650812149048, -1.49749755859375, -2.122575521469116, 1.1181640625, -0.3994140625, 0.056396484375
127, 2857352306, -6.827408790588379, -0.8232764601707458, 7.10730504989624, -2.260141611099243, -1.5411674976348877, -2.0818514823913574, 1.1171875, -0.40087890625, 0.0546875
128, 2857368973, -6.8184332847595215, -0.8126842379570007, 7.098299980163574, -2.292989730834961, -1.6283657550811768, -2.114238739013672, 1.117919921875, -0.403564453125, 0.058837890625
129, 2857385640, -6.8170976638793945, -0.8028368949890137, 7.112265110015869, -2.3259530067443848, -1.4356685876846313, -2.124739646911621, 1.117919921875, -0.40185546875, 0.056884765625
130, 2857402307, -6.825476169586182, -0.8150334358215332, 7.1115875244140625, -2.2924134731292725, -1.393625259399414, -2.1320266723632812, 1.11669921875, -0.4013671875, 0.056396484375
131, 2857418974, -6.824575901031494, -0.8325676918029785, 7.120977401733398, -2.3260953426361084, -1.506871223449707, -2.1543984413146973, 1.11669921875, -0.3994140625, 0.0556640625
132, 2857435641, -6.832394599914551, -0.8246991634368896, 7.125715732574463, -2.2404067516326904, -1.5797271728515625, -2.127544403076172, 1.1171875, -0.4013671875, 0.058837890625
133, 2857452308, -6.836030006408691, -0.8235224485397339, 7.116767883300781, -2.259655237197876, -1.7875871658325195, -2.1124589443206787, 1.11767578125, -0.3994140625, 0.059326171875
134, 2857468975, -6.82197904586792, -0.825122058391571, 7.116274356842041, -2.218578338623047, -1.7741211652755737, -2.225186347961426, 1.1171875, -0.40087890625, 0.058349609375
135, 2857485642, -6.831172466278076, -0.83001708984375, 7.1157941818237305, -2.301173210144043, -1.7251050472259521, -2.107016086578369, 1.11767578125, -0.39990234375, 0.057861328125
136, 2857502309, -6.806456089019775, -0.8238797783851624, 7.110363483428955, -2.2711164951324463, -1.6528769731521606, -2.1729557514190674, 1.118896484375, -0.40185546875, 0.056884765625
137, 2857518976, -6.818955898284912, -0.8337460160255432, 7.112325191497803, -2.2810542583465576, -1.6399809122085571, -2.210555076599121, 1.118408203125, -0.40234375, 0.056884765625
138, 2857535643, -6.812581539154053, -0.8255956768989563, 7.106480121612549, -2.2536356449127197, -1.608221411705017, -2.1917171478271484, 1.11767578125, -0.400390625, 0.057373046875
139, 2857552310, -6.818111419677734, -0.8272370100021362, 7.097513675689697, -2.311584711074829, -1.6444635391235352, -2.2243096828460693, 1.1181640625, -0.4013671875, 0.055908203125
140, 2857568977, -6.806670188903809, -0.8146870732307434, 7.129948616027832, -2.3577258586883545, -1.659408450126648, -2.18430233001709, 1.1171875, -0.400390625, 0.057373046875
141, 2857585644, -6.820485591888428, -0.8292770981788635, 7.113951206207275, -2.3321003913879395, -1.606979250907898, -2.2220041751861572, 1.118408203125, -0.4013671875, 0.056884765625
142, 2857602311, -6.80779504776001, -0.821968138217926, 7.116666793823242, -2.3370308876037598, -1.570557951927185, -2.2718465328216553, 1.11669921875, -0.40283203125, 0.059326171875
143, 2857618978, -6.823019981384277, -0.8316493034362793, 7.142720699310303, -2.2322492599487305, -1.620874285697937, -2.179410219192505, 1.1171875, -0.4013671875, 0.057373046875
144, 2857635645, -6.810916423797607, -0.8258141279220581, 7.120682239532471, -2.359902858734131, -1.5236355066299438, -2.1920886039733887, 1.115234375, -0.40185546875, 0.05517578125
145, 2857652312, -6.8191938400268555, -0.8243380784988403, 7.137434482574463, -2.327195644378662, -1.5844017267227173, -2.2164719104766846, 1.1171875, -0.3994140625, 0.057373046875
146, 2857668979, -6.805441856384277, -0.8046262860298157, 7.110712051391602, -2.298214912414551, -1.4904671907424927, -2.232236385345459, 1.117919921875, -0.403076171875, 0.057373046875
147, 2857685646, -6.805807113647461, -0.811497688293457, 7.103302001953125, -2.328796148300171, -1.6868394613265991, -2.166257858276367, 1.11767578125, -0.40185546875, 0.056396484375
148, 2857702313, -6.812689781188965, -0.8248370289802551, 7.1294026374816895, -2.3525266647338867, -1.6629301309585571, -2.210939407348633, 1.118408203125, -0.40087890625, 0.055908203125
149, 2857718980, -6.81142520904541, -0.8245577216148376, 7.119290351867676, -2.336928367614746, -1.6612653732299805, -2.3072049617767334, 1.1171875, -0.39990234375, 0.055908203125
150, 2857735647, -6.821261882781982, -0.8175317049026489, 7.1197190284729, -2.3860790729522705, -1.5827752351760864, -2.240278720855713, 1.1171875, -0.40185546875, 0.055419921875
151, 2857752314, -6.8160223960876465, -0.8158055543899536, 7.1223907470703125, -2.402996301651001, -1.6001023054122925, -2.242110252380371, 1.117919921875, -0.40234375, 0.0546875
152, 2857768981, -6.815953254699707, -0.8191028833389282, 7.1195783615112305, -2.497481346130371, -1.5965675115585327, -2.2487950325012207, 1.11572265625, -0.400390625, 0.057861328125
153, 2857785648, -6.816932678222656, -0.8288735747337341, 7.106414318084717, -2.504115343093872, -1.4161006212234497, -2.2528932094573975, 1.1171875, -0.40087890625, 0.056396484375
154, 2857802315, -6.81125545501709, -0.8355913758277893, 7.127012252807617, -2.4301841259002686, -1.4977025985717773, -2.2097740173339844, 1.11767578125, -0.40185546875, 0.056396484375
155, 2857818982, -6.816590309143066, -0.8095152378082275, 7.12082576751709, -2.440186023712158, -1.502223253250122, -2.1733529567718506, 1.115234375, -0.40087890625, 0.057373046875
156, 2857835649, -6.814971923828125, -0.8169111013412476, 7.129911422729492, -2.4008960723876953, -1.5261584520339966, -2.1992859840393066, 1.118896484375, -0.40185546875, 0.055419921875
157, 2857852316, -6.8157525062561035, -0.834726095199585, 7.137742519378662, -2.3366591930389404, -1.407392144203186, -2.200002670288086, 1.118408203125, -0.40087890625, 0.054931640625
158, 2857868983, -6.818148612976074, -0.8136012554168701, 7.104618549346924, -2.4880564212799072, -1.3527220487594604, -2.202000856399536, 1.1171875, -0.40087890625, 0.056884765625
159, 2857885650, -6.817592144012451, -0.8252112865447998, 7.112666606903076, -2.4092202186584473, -1.357114315032959, -2.1717007160186768, 1.1171875, -0.40283203125, 0.057861328125
160, 2857902317, -6.815483093261719, -0.8274761438369751, 7.118146896362305, -2.3159384727478027, -1.369715929031372, -2.2505621910095215, 1.1162109375, -0.4013671875, 0.0556640625
161, 2857918984, -6.811108589172363, -0.8224070072174072, 7.1439127922058105, -2.348261833190918, -1.3673210144042969, -2.1926774978637695, 1.1171875, -0.40087890625, 0.057861328125
162, 2857935651, -6.83404541015625, -0.8361876606941223, 7.1134796142578125, -2.339489459991455, -1.4523167610168457, -2.234323740005493, 1.1171875, -0.40087890625, 0.056396484375
163, 2857952318, -6.820799350738525, -0.8305274248123169, 7.117912292480469, -2.3078322410583496, -1.4694771766662598, -2.270437717437744, 1.11669921875, -0.4013671875, 0.057861328125
164, 2857968985, -6.824213981628418, -0.8201999068260193, 7.12673282623291, -2.411550760269165, -1.5716208219528198, -2.237858533859253, 1.11767578125, -0.40283203125, 0.055908203125
165, 2857985652, -6.813731670379639, -0.8217103481292725, 7.125133514404297, -2.314235210418701, -1.5388749837875366, -2.1684350967407227, 1.11669921875, -0.40234375, 0.058349609375
166, 2858002319, -6.8184967041015625, -0.81620192527771, 7.119835376739502, -2.361234664916992, -1.595056414604187, -2.1789746284484863, 1.1162109375, -0.40185546875, 0.056884765625
167, 2858018986, -6.813344955444336, -0.8197687864303589, 7.123842239379883, -2.299882173538208, -1.546798825263977, -2.1573946475982666, 1.11767578125, -0.40185546875, 0.055419921875
168, 2858035653, -6.828619480133057, -0.8280190229415894, 7.131530284881592, -2.331191301345825, -1.5625412464141846, -2.1072208881378174, 1.11767578125, -0.400390625, 0.055908203125
169, 2858052320, -6.8182525634765625, -0.8258348107337952, 7.124026298522949, -2.2756245136260986, -1.5286427736282349, -2.160226345062256, 1.11767578125, -0.40234375, 0.055908203125
170, 2858068987, -6.8155083656311035, -0.8208460211753845, 7.129667282104492, -2.3084468841552734, -1.5551389455795288, -2.1455628871917725, 1.11572265625, -0.404541015625, 0.057861328125
171, 2858085654, -6.815406799316406, -0.8249666690826416, 7.123623371124268, -2.365115165710449, -1.418060064315796, -2.180588483810425, 1.1171875, -0.40087890625, 0.058349609375
172, 2858102321, -6.8184638023376465, -0.8267359137535095, 7.121852874755859, -2.4126265048980713, -1.4116822481155396, -2.1650795936584473, 1.1181640625, -0.40087890625, 0.057373046875
173, 2858118988, -6.81810188293457, -0.8171393871307373, 7.123841285705566, -2.346686840057373, -1.4384987354278564, -2.178295850753784, 1.117919921875, -0.40185546875, 0.057861328125
174, 2858135655, -6.820112705230713, -0.8151997923851013, 7.137890338897705, -2.3389899730682373, -1.5352250337600708, -2.173455238342285, 1.1181640625, -0.40087890625, 0.056884765625
175, 2858152322, -6.8280558586120605, -0.8124867677688599, 7.145272254943848, -2.3363776206970215, -1.5608251094818115, -2.169677495956421, 1.11767578125, -0.40185546875, 0.055908203125
176, 2858168989, -6.827129364013672, -0.8119466304779053, 7.133199691772461, -2.3301665782928467, -1.4838589429855347, -2.335993766784668, 1.11767578125, -0.40283203125, 0.056396484375
177, 2858185656, -6.826542854309082, -0.8123852610588074, 7.116397380828857, -2.359710931777954, -1.4889047145843506, -2.2924392223358154, 1.1162109375, -0.4013671875, 0.058349609375
178, 2858202323, -6.80829381942749, -0.8275843858718872, 7.120545864105225, -2.304015874862671, -1.5492351055145264, -2.1693058013916016, 1.1162109375, -0.40185546875, 0.057373046875
179, 2858218990, -6.820894718170166, -0.8159647583961487, 7.127954483032227, -2.257106304168701, -1.5653072595596313, -2.2609097957611084, 1.11572265625, -0.40234375, 0.056396484375
180, 2858235657, -6.810370445251465, -0.8232879042625427, 7.114834785461426, -2.3006350994110107, -1.5779471397399902, -2.147125244140625, 1.1171875, -0.40185546875, 0.055908203125
181, 2858252324, -6.810421943664551, -0.8158805966377258, 7.117176532745361, -2.2840635776519775, -1.5604921579360962, -2.25282883644104, 1.115234375, -0.40087890625, 0.0556640625
182, 2858268991, -6.820357322692871, -0.8214492201805115, 7.125185012817383, -2.3175652027130127, -1.5726325511932373, -2.193535804748535, 1.11669921875, -0.403076171875, 0.057861328125
183, 2858285658, -6.805054187774658, -0.8259536027908325, 7.104541301727295, -2.3202929496765137, -1.5947749614715576, -2.1912689208984375, 1.11669921875, -0.4013671875, 0.056884765625
184, 2858302325, -6.82135009765625, -0.8010475039482117, 7.12727689743042, -2.416801691055298, -1.5657556056976318, -2.1283516883850098, 1.115234375, -0.39990234375, 0.05615234375
185, 2858318992, -6.821832180023193, -0.8188454508781433, 7.1237101554870605, -2.322291135787964, -1.5778064727783203, -2.232915163040161, 1.1171875, -0.4013671875, 0.056884765625
186, 2858335659, -6.829093933105469, -0.8212410807609558, 7.137388706207275, -2.398040533065796, -1.6045973300933838, -2.2948338985443115, 1.117919921875, -0.40283203125, 0.055908203125
187, 2858352326, -6.82441520690918, -0.8157558441162109, 7.116994857788086, -2.2903707027435303, -1.6058458089828491, -2.1673784255981445, 1.11669921875, -0.40185546875, 0.056396484375
188, 2858368993, -6.816095352172852, -0.805313766002655, 7.129288196563721, -2.3500421047210693, -1.636164903640747, -2.251356363296509, 1.11767578125, -0.40234375, 0.057373046875
189, 2858385660, -6.810547351837158, -0.8205162882804871, 7.110660076141357, -2.3303332328796387, -1.6275206804275513, -2.2621264457702637, 1.115234375, -0.40185546875, 0.056884765625
190, 2858402327, -6.822164535522461, -0.8250558376312256, 7.097715854644775, -2.407606601715088, -1.6126012802124023, -2.2293806076049805, 1.1171875, -0.403076171875, 0.055908203125
191, 2858418994, -6.80576229095459, -0.8205872774124146, 7.127427577972412, -2.380662202835083, -1.6191965341567993, -2.220198392868042, 1.115234375, -0.4013671875, 0.058349609375
192, 2858435661, -6.81583833694458, -0.8076891899108887, 7.138387203216553, -2.434307336807251, -1.6021255254745483, -2.2020130157470703, 1.117919921875, -0.40283203125, 0.056884765625
193, 2858452328, -6.820902347564697, -0.7991315126419067, 7.127716064453125, -2.4151110649108887, -1.5428706407546997, -2.3124043941497803, 1.1171875, -0.40185546875, 0.058837890625
194, 2858468995, -6.799982070922852, -0.8081534504890442, 7.1346435546875, -2.4187097549438477, -1.5336500406265259, -2.3600053787231445, 1.118408203125, -0.4013671875, 0.055419921875
195, 2858485662, -6.8179097175598145, -0.831523060798645, 7.113309383392334, -2.4076836109161377, -1.5145303010940552, -2.229304075241089, 1.118408203125, -0.40185546875, 0.057373046875
196, 2858502329, -6.818782806396484, -0.7975780963897705, 7.130771636962891, -2.3547935485839844, -1.5223934650421143, -2.2303411960601807, 1.1162109375, -0.40234375, 0.057861328125
197, 2858518996, -6.804646015167236, -0.8160064816474915, 7.124951362609863, -2.4518654346466064, -1.5290911197662354, -2.2049717903137207, 1.1162109375, -0.404052734375, 0.056884765625
198, 2858535663, -6.809228420257568, -0.8064972162246704, 7.128756999969482, -2.417262554168701, -1.5119688510894775, -2.2503318786621094, 1.1162109375, -0.40234375, 0.056396484375
199, 2858552330, -6.817281246185303, -0.8190246224403381, 7.123518943786621, -2.4014341831207275, -1.5528980493545532, -2.2078914642333984, 1.1171875, -0.40185546875, 0.056396484375
200, 2858568997, -6.823573589324951, -0.8216128349304199, 7.121990203857422, -2.3716847896575928, -1.5400021076202393, -2.2738828659057617, 1.117919921875, -0.403076171875, 0.056396484375
201, 2858585664, -6.796207904815674, -0.8059394955635071, 7.113699436187744, -2.3334193229675293, -1.557111382484436, -2.209786891937256, 1.11572265625, -0.404052734375, 0.058349609375
202, 2858602331, -6.8194661140441895, -0.8105366826057434, 7.127483367919922, -2.386425018310547, -1.6468454599380493, -2.2143075466156006, 1.1171875, -0.40283203125, 0.055419921875
203, 2858618998, -6.810677528381348, -0.8050510287284851, 7.131345272064209, -2.394810199737549, -1.5869700908660889, -2.2264041900634766, 1.11767578125, -0.40283203125, 0.056396484375
204, 2858635665, -6.8089118003845215, -0.812922477722168, 7.123736381530762, -2.348453998565674, -1.5960553884506226, -2.2441208362579346, 1.1171875, -0.403564453125, 0.055908203125
205, 2858652332, -6.815887451171875, -0.8060489296913147, 7.132937431335449, -2.3664088249206543, -1.6096301078796387, -2.2146408557891846, 1.1162109375, -0.40185546875, 0.055908203125
206, 2858668999, -6.821982383728027, -0.8176118731498718, 7.128350734710693, -2.3686883449554443, -1.6264705657958984, -2.2475273609161377, 1.1142578125, -0.40234375, 0.0556640625
207, 2858685666, -6.818930625915527, -0.8154390454292297, 7.142397880554199, -2.405327081680298, -1.564308524131775, -2.2597830295562744, 1.1162109375, -0.403076171875, 0.05517578125
208, 2858702333, -6.812618732452393, -0.821485698223114, 7.11104154586792, -2.3089334964752197, -1.5911376476287842, -2.1466002464294434, 1.115234375, -0.40185546875, 0.0556640625
209, 2858719000, -6.808663845062256, -0.80781489610672, 7.127009391784668, -2.392085075378418, -1.4173811674118042, -2.204984426498413, 1.1171875, -0.4013671875, 0.05517578125
210, 2858735667, -6.799070358276367, -0.8095624446868896, 7.125768184661865, -2.360300064086914, -1.5410010814666748, -2.2768282890319824, 1.11669921875, -0.40087890625, 0.0556640625
211, 2858752334, -6.8159403800964355, -0.810104250907898, 7.097667694091797, -2.367074728012085, -1.6501238346099854, -2.1950855255126953, 1.1162109375, -0.40234375, 0.056884765625
212, 2858769001, -6.825107574462891, -0.8100437521934509, 7.134797096252441, -2.338388204574585, -1.6955480575561523, -2.281374454498291, 1.1171875, -0.403564453125, 0.055908203125
213, 2858785668, -6.798903942108154, -0.8070176839828491, 7.129659652709961, -2.3288345336914062, -1.6322588920593262, -2.1997082233428955, 1.11669921875, -0.4013671875, 0.057861328125
214, 2858802335, -6.805813789367676, -0.7871859073638916, 7.12506103515625, -2.281938076019287, -1.646960735321045, -2.265622615814209, 1.1171875, -0.4013671875, 0.058837890625
215, 2858819002, -6.7928643226623535, -0.8091592192649841, 7.131241798400879, -2.293386459350586, -1.5949411392211914, -2.2632787227630615, 1.1171875, -0.4013671875, 0.058349609375
216, 2858835669, -6.80741024017334, -0.8144938349723816, 7.118055820465088, -2.3027355670928955, -1.5506954193115234, -2.2381789684295654, 1.11572265625, -0.40185546875, 0.05517578125
217, 2858852336, -6.803374767303467, -0.8110066652297974, 7.134819984436035, -2.388461112976074, -1.5793046951293945, -2.2026281356811523, 1.1162109375, -0.403076171875, 0.05419921875
218, 2858869003, -6.8042988777160645, -0.799664318561554, 7.127923011779785, -2.3688158988952637, -1.4756884574890137, -2.2051124572753906, 1.115234375, -0.40185546875, 0.056396484375
219, 2858885670, -6.816853046417236, -0.8164303302764893, 7.123785972595215, -2.3937501907348633, -1.4549806118011475, -2.1866202354431152, 1.11767578125, -0.4013671875, 0.056884765625
220, 2858902337, -6.82944917678833, -0.8185420632362366, 7.147360801696777, -2.384042978286743, -1.5438951253890991, -2.203268527984619, 1.1162109375, -0.403564453125, 0.0546875
221, 2858919004, -6.808854103088379, -0.8215955495834351, 7.117930889129639, -2.3870012760162354, -1.5265681743621826, -2.234938621520996, 1.117431640625, -0.403564453125, 0.055908203125
222, 2858935671, -6.803896903991699, -0.8026254177093506, 7.142242431640625, -2.336646556854248, -1.5562790632247925, -2.2083396911621094, 1.11767578125, -0.40234375, 0.05419921875
223, 2858952338, -6.807563781738281, -0.8115840554237366, 7.125604629516602, -2.389780044555664, -1.4948853254318237, -2.182189464569092, 1.11669921875, -0.40185546875, 0.056396484375
224, 2858969005, -6.802727222442627, -0.805143415927887, 7.125427722930908, -2.307422399520874, -1.50323486328125, -2.307563304901123, 1.11669921875, -0.40185546875, 0.055419921875
225, 2858985672, -6.81347131729126, -0.827103316783905, 7.141833305358887, -2.396862030029297, -1.555215835571289, -2.1796534061431885, 1.11669921875, -0.40185546875, 0.055908203125
226, 2859002339, -6.804921627044678, -0.7947874069213867, 7.137529373168945, -2.3588013648986816, -1.571710467338562, -2.1177988052368164, 1.1162109375, -0.40283203125, 0.057861328125
227, 2859019006, -6.803738594055176, -0.8036324381828308, 7.131706714630127, -2.4490222930908203, -1.441969394683838, -2.1907951831817627, 1.11767578125, -0.40234375, 0.055908203125
228, 2859035673, -6.813927173614502, -0.811466634273529, 7.131995677947998, -2.3717362880706787, -1.424591302871704, -2.24761700630188, 1.1162109375, -0.40283203125, 0.05517578125
229, 2859052340, -6.806576251983643, -0.8061698079109192, 7.11400032043457, -2.470076084136963, -1.441367506980896, -2.1589457988739014, 1.118408203125, -0.40283203125, 0.057373046875
230, 2859069007, -6.819645881652832, -0.8157323598861694, 7.12285041809082, -2.326183557510376, -1.4330945014953613, -2.1365983486175537, 1.11767578125, -0.40283203125, 0.054931640625
231, 2859085674, -6.8091511726379395, -0.8082988858222961, 7.127092361450195, -2.361612319946289, -1.4025834798812866, -2.2389917373657227, 1.119873046875, -0.40283203125, 0.057373046875
232, 2859102341, -6.819313049316406, -0.8237855434417725, 7.125129222869873, -2.407811164855957, -1.3427456617355347, -2.1962890625, 1.11572265625, -0.403076171875, 0.056396484375
233, 2859119008, -6.809484481811523, -0.7996608018875122, 7.143167972564697, -2.4042129516601562, -1.3908722400665283, -2.183098554611206, 1.115234375, -0.4013671875, 0.056884765625
234, 2859135675, -6.823522090911865, -0.8039268851280212, 7.136602878570557, -2.3669466972351074, -1.4820406436920166, -2.1476120948791504, 1.1181640625, -0.40185546875, 0.055908203125
235, 2859152342, -6.805474281311035, -0.7952280044555664, 7.1311116218566895, -2.398437261581421, -1.4328129291534424, -2.1179912090301514, 1.11767578125, -0.40185546875, 0.055908203125
236, 2859169009, -6.819881916046143, -0.8031806349754333, 7.129605770111084, -2.3379271030426025, -1.4353100061416626, -2.149199962615967, 1.11572265625, -0.403564453125, 0.056396484375
237, 2859185676, -6.805766582489014, -0.8095120191574097, 7.122199058532715, -2.334866523742676, -1.4718081951141357, -2.2201855182647705, 1.1162109375, -0.40185546875, 0.057373046875
238, 2859202343, -6.826430797576904, -0.8107312321662903, 7.127325534820557, -2.4452059268951416, -1.4185723066329956, -2.185826301574707, 1.118896484375, -0.40283203125, 0.057373046875
239, 2859219010, -6.820692539215088, -0.818450927734375, 7.121966361999512, -2.3625147342681885, -1.394233226776123, -2.1771023273468018, 1.11474609375, -0.403076171875, 0.057861328125
240, 2859235677, -6.820029258728027, -0.818119466304779, 7.1319122314453125, -2.3380680084228516, -1.4779552221298218, -2.1972107887268066, 1.11669921875, -0.40185546875, 0.057373046875
241, 2859252344, -6.80943489074707, -0.8077717423439026, 7.11158561706543, -2.368201494216919, -1.4883668422698975, -2.262638807296753, 1.1162109375, -0.40087890625, 0.0556640625
242, 2859269011, -6.81584358215332, -0.8115301728248596, 7.104461669921875, -2.4016902446746826, -1.4858952760696411, -2.229931354522705, 1.11669921875, -0.4013671875, 0.056396484375
243, 2859285678, -6.816280364990234, -0.8005955815315247, 7.117882251739502, -2.3739259243011475, -1.4946163892745972, -2.2337093353271484, 1.117431640625, -0.403564453125, 0.055908203125
244, 2859302345, -6.8301005363464355, -0.7984268665313721, 7.130951881408691, -2.4776573181152344, -1.5729527473449707, -2.2755091190338135, 1.11669921875, -0.40283203125, 0.055908203125
245, 2859319012, -6.812475681304932, -0.8248105049133301, 7.125152111053467, -2.398833990097046, -1.6242676973342896, -2.2861380577087402, 1.1171875, -0.403076171875, 0.058349609375
246, 2859335679, -6.8113603591918945, -0.8016287684440613, 7.133332252502441, -2.323673725128174, -1.5797911882400513, -2.18672251701355, 1.118896484375, -0.4013671875, 0.056884765625
247, 2859352346, -6.813457489013672, -0.8054426312446594, 7.124191761016846, -2.3834409713745117, -1.514863133430481, -2.2636632919311523, 1.1162109375, -0.40283203125, 0.0556640625
248, 2859369013, -6.816132068634033, -0.804995596408844, 7.116352558135986, -2.4009854793548584, -1.519972801208496, -2.2024998664855957, 1.118408203125, -0.40087890625, 0.055419921875
249, 2859385680, -6.8231730461120605, -0.7952510118484497, 7.1293864250183105, -2.4025354385375977, -1.595632791519165, -2.2311222553253174, 1.11669921875, -0.40185546875, 0.055908203125
250, 2859402347, -6.82086181640625, -0.8105230927467346, 7.121156215667725, -2.313697576522827, -1.6531715393066406, -2.1918835639953613, 1.1171875, -0.40283203125, 0.057373046875
251, 2859419014, -6.822086811065674, -0.8103057146072388, 7.120241165161133, -2.2796459197998047, -1.5500935316085815, -2.309420347213745, 1.118408203125, -0.405029296875, 0.058349609375
252, 2859435681, -6.817570209503174, -0.782477617263794, 7.107450485229492, -2.3004560470581055, -1.6361137628555298, -2.3703529834747314, 1.11669921875, -0.403564453125, 0.056884765625
253, 2859452348, -6.8084797859191895, -0.8170610070228577, 7.11771821975708, -2.2991881370544434, -1.7116968631744385, -2.277967929840088, 1.1171875, -0.404052734375, 0.055419921875
254, 2859469015, -6.818480968475342, -0.8008780479431152, 7.137156963348389, -2.244300127029419, -1.7149368524551392, -2.2622289657592773, 1.11767578125, -0.403076171875, 0.05419921875
255, 2859485682, -6.816178321838379, -0.7947807908058167, 7.13023042678833, -2.3747329711914062, -1.6657475233078003, -2.2717695236206055, 1.1171875, -0.40283203125, 0.057373046875
256, 2859502349, -6.813192367553711, -0.8048118352890015, 7.135247230529785, -2.3813023567199707, -1.6364978551864624, -2.259719133377075, 1.11572265625, -0.40283203125, 0.055908203125
257, 2859519016, -6.815274715423584, -0.8093620538711548, 7.120550632476807, -2.37314510345459, -1.5976051092147827, -2.2450942993164062, 1.117431640625, -0.403564453125, 0.056396484375
258, 2859535683, -6.817174434661865, -0.7990498542785645, 7.132574558258057, -2.3274900913238525, -1.6585121154785156, -2.2107601165771484, 1.11572265625, -0.40185546875, 0.05517578125
259, 2859552350, -6.816610813140869, -0.7949095368385315, 7.12108039855957, -2.3944289684295654, -1.638214111328125, -2.195213556289673, 1.1162109375, -0.40234375, 0.056396484375
260, 2859569017, -6.8124189376831055, -0.8249719142913818, 7.138148784637451, -2.4652352333068848, -1.5997051000595093, -2.211810350418091, 1.1171875, -0.40283203125, 0.057373046875
261, 2859585684, -6.81061315536499, -0.8074604868888855, 7.096080780029297, -2.477055549621582, -1.523443579673767, -2.24232816696167, 1.11767578125, -0.40283203125, 0.055419921875
262, 2859602351, -6.808764934539795, -0.8123416900634766, 7.144672870635986, -2.362349033355713, -1.5416028499603271, -2.241431474685669, 1.11865234375, -0.39990234375, 0.056884765625
263, 2859619018, -6.807607650756836, -0.8056408762931824, 7.124484539031982, -2.3572518825531006, -1.5501831769943237, -2.1813955307006836, 1.1162109375, -0.40185546875, 0.057373046875
264, 2859635685, -6.820155143737793, -0.7988937497138977, 7.130152702331543, -2.3504645824432373, -1.4811567068099976, -2.193983793258667, 1.1162109375, -0.403564453125, 0.05322265625
265, 2859652352, -6.805951118469238, -0.8095632195472717, 7.136785507202148, -2.3058600425720215, -1.5778961181640625, -2.2280490398406982, 1.1171875, -0.4013671875, 0.055419921875
266, 2859669019, -6.810920715332031, -0.8100233674049377, 7.147033214569092, -2.3721585273742676, -1.5846192836761475, -2.171905517578125, 1.11669921875, -0.40283203125, 0.05517578125
267, 2859685686, -6.819532871246338, -0.7815397381782532, 7.1395697593688965, -2.3549857139587402, -1.5122764110565186, -2.2513949871063232, 1.117919921875, -0.40283203125, 0.055419921875
268, 2859702353, -6.813284397125244, -0.8007464408874512, 7.12811279296875, -2.3989624977111816, -1.4991754293441772, -2.2827446460723877, 1.11669921875, -0.40185546875, 0.059326171875
269, 2859719020, -6.814180850982666, -0.8035259246826172, 7.115232467651367, -2.404200315475464, -1.4547759294509888, -2.188131332397461, 1.1162109375, -0.40283203125, 0.057861328125
270, 2859735687, -6.80959939956665, -0.8211724758148193, 7.1408467292785645, -2.4114866256713867, -1.5074739456176758, -2.250293254852295, 1.1171875, -0.40234375, 0.055908203125
271, 2859752354, -6.809695243835449, -0.8211292624473572, 7.139088153839111, -2.32997465133667, -1.4969213008880615, -2.2018213272094727, 1.115234375, -0.40283203125, 0.057373046875
272, 2859769021, -6.81577205657959, -0.8046050071716309, 7.1529645919799805, -2.309920072555542, -1.5855414867401123, -2.2205185890197754, 1.11572265625, -0.4013671875, 0.057373046875
273, 2859785688, -6.8095316886901855, -0.7939286231994629, 7.131178855895996, -2.4177494049072266, -1.5653971433639526, -2.309420585632324, 1.11767578125, -0.40283203125, 0.055419921875
274, 2859802355, -6.808450698852539, -0.8084440231323242, 7.139779567718506, -2.3942878246307373, -1.4513819217681885, -2.325338363647461, 1.1162109375, -0.40283203125, 0.057373046875
275, 2859819022, -6.818263053894043, -0.8005430102348328, 7.1234049797058105, -2.40789794921875, -1.4282960891723633, -2.2718639373779297, 1.118408203125, -0.404052734375, 0.055908203125
276, 2859835689, -6.818014144897461, -0.7959566116333008, 7.13116455078125, -2.455451250076294, -1.4234257936477661, -2.28041410446167, 1.1162109375, -0.404052734375, 0.057861328125
277, 2859852356, -6.814076900482178, -0.8220171332359314, 7.121570110321045, -2.4674253463745117, -1.4490642547607422, -2.2280490398406982, 1.1171875, -0.40185546875, 0.056396484375
278, 2859869023, -6.80384635925293, -0.8026809096336365, 7.121096134185791, -2.4583325386047363, -1.4413291215896606, -2.2340292930603027, 1.117919921875, -0.403076171875, 0.054931640625
279, 2859885690, -6.809910774230957, -0.8166239857673645, 7.1077351570129395, -2.4087464809417725, -1.4128351211547852, -2.220672369003296, 1.11669921875, -0.404052734375, 0.057373046875
280, 2859902357, -6.810231685638428, -0.8158913850784302, 7.105705738067627, -2.390702486038208, -1.407302737236023, -2.2695159912109375, 1.119384765625, -0.40283203125, 0.056884765625
281, 2859919024, -6.809689044952393, -0.7871311902999878, 7.150981903076172, -2.435703754425049, -1.4720003604888916, -2.276059865951538, 1.117919921875, -0.40283203125, 0.056884765625
282, 2859935691, -6.799926280975342, -0.8033674359321594, 7.11760139465332, -2.426290988922119, -1.5493505001068115, -2.302581548690796, 1.118408203125, -0.40283203125, 0.055908203125
283, 2859952358, -6.806515693664551, -0.8141319751739502, 7.130649566650391, -2.3851699829101562, -1.427754521369934, -2.232992172241211, 1.11572265625, -0.40283203125, 0.055908203125
284, 2859969025, -6.808310508728027, -0.8198229670524597, 7.125351905822754, -2.459587574005127, -1.4690676927566528, -2.351796865463257, 1.1171875, -0.403564453125, 0.055419921875
285, 2859985692, -6.809429168701172, -0.797074019908905, 7.126173496246338, -2.4812941551208496, -1.4236690998077393, -2.216766357421875, 1.118408203125, -0.405029296875, 0.056884765625
286, 2860002359, -6.808054447174072, -0.816319465637207, 7.102483749389648, -2.3486716747283936, -1.4702715873718262, -2.26747989654541, 1.117431640625, -0.404541015625, 0.056884765625
287, 2860019026, -6.801107406616211, -0.8099858164787292, 7.1440300941467285, -2.4122934341430664, -1.5305637121200562, -2.2788004875183105, 1.1171875, -0.40283203125, 0.058837890625
288, 2860035693, -6.812097549438477, -0.8112745881080627, 7.125871181488037, -2.449713945388794, -1.5830955505371094, -2.340975284576416, 1.118896484375, -0.40234375, 0.056396484375
289, 2860052360, -6.816527366638184, -0.8142331838607788, 7.135962009429932, -2.3210484981536865, -1.4392672777175903, -2.312737226486206, 1.11767578125, -0.40234375, 0.056396484375
290, 2860069027, -6.806725025177002, -0.8082959651947021, 7.122005939483643, -2.403674840927124, -1.6114100217819214, -2.2820656299591064, 1.119873046875, -0.40234375, 0.056396484375
291, 2860085694, -6.814535617828369, -0.8070259690284729, 7.133767604827881, -2.4203617572784424, -1.4463363885879517, -2.3145811557769775, 1.118408203125, -0.403076171875, 0.057861328125
292, 2860102361, -6.811651706695557, -0.8118403553962708, 7.128779411315918, -2.3836333751678467, -1.5374280214309692, -2.350336790084839, 1.119384765625, -0.404541015625, 0.056396484375
293, 2860119028, -6.812621116638184, -0.824531078338623, 7.1157073974609375, -2.488222122192383, -1.4776092767715454, -2.279325008392334, 1.1171875, -0.40185546875, 0.0546875
294, 2860135695, -6.828404426574707, -0.8092204332351685, 7.14150857925415, -2.471817970275879, -1.513159990310669, -2.284972906112671, 1.11669921875, -0.40234375, 0.057373046875
295, 2860152362, -6.816030025482178, -0.80887770652771, 7.131117820739746, -2.4481005668640137, -1.4936943054199219, -2.272128105163574, 1.1162109375, -0.40185546875, 0.057373046875
296, 2860169029, -6.81908655166626, -0.8065219521522522, 7.124814987182617, -2.4701015949249268, -1.459975242614746, -2.304489850997925, 1.11767578125, -0.40234375, 0.055908203125
297, 2860185696, -6.813728332519531, -0.8054664134979248, 7.127067565917969, -2.4846882820129395, -1.411157488822937, -2.3668060302734375, 1.1171875, -0.40283203125, 0.057373046875
298, 2860202363, -6.81593656539917, -0.8126723170280457, 7.127466201782227, -2.625058650970459, -1.4672235250473022, -2.3022360801696777, 1.11767578125, -0.40283203125, 0.057373046875
299, 2860219030, -6.815743923187256, -0.7981809377670288, 7.1253886222839355, -2.514206886291504, -1.3810625076293945, -2.334136724472046, 1.1181640625, -0.4013671875, 0.057373046875
300, 2860235697, -6.819109916687012, -0.8078559041023254, 7.135190010070801, -2.5096728801727295, -1.535494089126587, -2.3321897983551025, 1.115234375, -0.402587890625, 0.0546875
301, 2860252364, -6.819153308868408, -0.8113765716552734, 7.132071018218994, -2.504678964614868, -1.6153035163879395, -2.302581787109375, 1.1171875, -0.40087890625, 0.057373046875
302, 2860269031, -6.815771579742432, -0.8109007477760315, 7.139087200164795, -2.5631015300750732, -1.582634449005127, -2.320587635040283, 1.1162109375, -0.4013671875, 0.0556640625
303, 2860285698, -6.8157219886779785, -0.8060317039489746, 7.1209492683410645, -2.5446856021881104, -1.5680735111236572, -2.288072109222412, 1.1162109375, -0.40234375, 0.056396484375
304, 2860302365, -6.797626972198486, -0.8189419507980347, 7.1470465660095215, -2.461496114730835, -1.5240583419799805, -2.3011093139648438, 1.118896484375, -0.403076171875, 0.055908203125
305, 2860319032, -6.821619510650635, -0.8089640140533447, 7.130660533905029, -2.4842655658721924, -1.5226879119873047, -2.29827880859375, 1.1171875, -0.403564453125, 0.058349609375
306, 2860335699, -6.808603286743164, -0.8025756478309631, 7.101666450500488, -2.3751938343048096, -1.588781476020813, -2.3336243629455566, 1.11669921875, -0.40234375, 0.056396484375
307, 2860352366, -6.809086799621582, -0.8155759572982788, 7.132355213165283, -2.41924786567688, -1.5530645847320557, -2.3656020164489746, 1.1162109375, -0.40234375, 0.056884765625
308, 2860369033, -6.818813800811768, -0.8092564344406128, 7.14237117767334, -2.4842398166656494, -1.6154186725616455, -2.3126988410949707, 1.1171875, -0.4013671875, 0.055419921875
309, 2860385700, -6.805310249328613, -0.8140442371368408, 7.131708145141602, -2.488459348678589, -1.544874668121338, -2.299873113632202, 1.115234375, -0.402587890625, 0.05517578125
310, 2860402367, -6.824691295623779, -0.8210173845291138, 7.140000820159912, -2.430389165878296, -1.4329025745391846, -2.3253002166748047, 1.117919921875, -0.40234375, 0.057373046875
311, 2860419034, -6.809162616729736, -0.816375195980072, 7.122880935668945, -2.502504825592041, -1.4768035411834717, -2.3259286880493164, 1.11669921875, -0.403564453125, 0.059326171875
312, 2860435701, -6.801333427429199, -0.816814124584198, 7.159580707550049, -2.487236499786377, -1.5090235471725464, -2.311866521835327, 1.11669921875, -0.40087890625, 0.05517578125
313, 2860452368, -6.819206237792969, -0.8218817710876465, 7.1316118240356445, -2.4899513721466064, -1.3858393430709839, -2.280618906021118, 1.117919921875, -0.403564453125, 0.056396484375
314, 2860469035, -6.8228230476379395, -0.8105430603027344, 7.122419357299805, -2.539332628250122, -1.2733227014541626, -2.328847646713257, 1.11474609375, -0.40087890625, 0.0546875
315, 2860485702, -6.8217339515686035, -0.8244597911834717, 7.113999843597412, -2.40254807472229, -1.4215561151504517, -2.3787922859191895, 1.1162109375, -0.403076171875, 0.05517578125
316, 2860502369, -6.809231758117676, -0.8131749629974365, 7.115781307220459, -2.464146614074707, -1.411105990409851, -2.267364025115967, 1.119873046875, -0.403564453125, 0.055419921875
317, 2860519036, -6.819350242614746, -0.8281630873680115, 7.1187357902526855, -2.41776180267334, -1.5484412908554077, -2.3106496334075928, 1.1162109375, -0.4013671875, 0.057861328125
318, 2860535703, -6.81219482421875, -0.8105507493019104, 7.130960464477539, -2.496777057647705, -1.4951156377792358, -2.348492383956909, 1.11474609375, -0.40087890625, 0.0556640625
319, 2860552370, -6.795958042144775, -0.8197770118713379, 7.124863624572754, -2.4849698543548584, -1.37992262840271, -2.3683297634124756, 1.1171875, -0.400390625, 0.056884765625
320, 2860569037, -6.807857036590576, -0.8125471472740173, 7.131646633148193, -2.500593662261963, -1.357742190361023, -2.3800601959228516, 1.11767578125, -0.40234375, 0.055419921875
321, 2860585704, -6.793773651123047, -0.8268559575080872, 7.131437301635742, -2.554546594619751, -1.422311544418335, -2.384939193725586, 1.1171875, -0.4013671875, 0.057373046875
322, 2860602371, -6.807516574859619, -0.8202909827232361, 7.1315999031066895, -2.5417914390563965, -1.5343670845031738, -2.3680858612060547, 1.1181640625, -0.40087890625, 0.05517578125
323, 2860619038, -6.824300289154053, -0.8064237236976624, 7.113029479980469, -2.3911633491516113, -1.5775631666183472, -2.2974977493286133, 1.11767578125, -0.40185546875, 0.056396484375
324, 2860635705, -6.815239429473877, -0.8145701289176941, 7.126195430755615, -2.4070045948028564, -1.5653198957443237, -2.3535892963409424, 1.118408203125, -0.4013671875, 0.057373046875
325, 2860652372, -6.811714172363281, -0.8231199979782104, 7.117724895477295, -2.3516557216644287, -1.6131775379180908, -2.2777373790740967, 1.118408203125, -0.40185546875, 0.057861328125
326, 2860669039, -6.815229892730713, -0.8154272437095642, 7.131588935852051, -2.3314731121063232, -1.6512508392333984, -2.345790386199951, 1.11669921875, -0.400390625, 0.055908203125
327, 2860685706, -6.796069145202637, -0.8128789067268372, 7.126369476318359, -2.3735034465789795, -1.5951590538024902, -2.373183250427246, 1.1162109375, -0.400390625, 0.05419921875
328, 2860702373, -6.801783084869385, -0.817556619644165, 7.114895820617676, -2.360978603363037, -1.5924568176269531, -2.3284122943878174, 1.11767578125, -0.40185546875, 0.05517578125
329, 2860719040, -6.808658123016357, -0.8149899244308472, 7.142060279846191, -2.433706045150757, -1.6114871501922607, -2.3380298614501953, 1.118408203125, -0.40283203125, 0.054931640625
330, 2860735707, -6.820096492767334, -0.8156650066375732, 7.131374359130859, -2.4123318195343018, -1.662648320198059, -2.3134286403656006, 1.115234375, -0.4013671875, 0.057373046875
331, 2860752374, -6.81458854675293, -0.8108981251716614, 7.125191688537598, -2.357239246368408, -1.7304452657699585, -2.377703905105591, 1.1171875, -0.3994140625, 0.055908203125
332, 2860769041, -6.8230414390563965, -0.793704628944397, 7.1034440994262695, -2.5621793270111084, -1.7093021869659424, -2.400012493133545, 1.1181640625, -0.4013671875, 0.0537109375
333, 2860785708, -6.795929908752441, -0.8283273577690125, 7.163612365722656, -2.474660873413086, -1.5414364337921143, -2.568966865539551, 1.1181640625, -0.40185546875, 0.0546875
334, 2860802375, -6.792969226837158, -0.8204474449157715, 7.128025531768799, -2.470639944076538, -1.5587122440338135, -2.4386367797851562, 1.11669921875, -0.40234375, 0.05517578125
335, 2860819042, -6.802578449249268, -0.8135671019554138, 7.122767448425293, -2.5763814449310303, -1.4987784624099731, -2.4706778526306152, 1.11474609375, -0.400390625, 0.056396484375
336, 2860835709, -6.808432579040527, -0.8335227370262146, 7.127178192138672, -2.565534830093384, -1.431071400642395, -2.5325968265533447, 1.1171875, -0.39990234375, 0.056884765625
337, 2860852376, -6.810265064239502, -0.8166363835334778, 7.120819091796875, -2.4967386722564697, -1.5226879119873047, -2.3808414936065674, 1.1181640625, -0.400390625, 0.05517578125
338, 2860869043, -6.809567928314209, -0.8122634887695312, 7.115278244018555, -2.5143349170684814, -1.4511258602142334, -2.366908073425293, 1.1181640625, -0.40087890625, 0.05419921875
339, 2860885710, -6.812655448913574, -0.8269167542457581, 7.136663913726807, -2.497788906097412, -1.4397028684616089, -2.365896463394165, 1.117919921875, -0.40185546875, 0.058349609375
340, 2860902377, -6.80731201171875, -0.8300595283508301, 7.119013786315918, -2.4385852813720703, -1.3892199993133545, -2.327362298965454, 1.118896484375, -0.4013671875, 0.056884765625
341, 2860919044, -6.807721138000488, -0.8210186958312988, 7.106582164764404, -2.568838596343994, -1.2450846433639526, -2.279773712158203, 1.11572265625, -0.40087890625, 0.056884765625
342, 2860935711, -6.804376602172852, -0.8322352170944214, 7.128607273101807, -2.5106465816497803, -1.2420880794525146, -2.2135519981384277, 1.1171875, -0.40234375, 0.056396484375
343, 2860952378, -6.815206050872803, -0.8452218174934387, 7.106029510498047, -2.5016562938690186, -1.2325598001480103, -2.254852294921875, 1.1171875, -0.39990234375, 0.05419921875
344, 2860969045, -6.814528465270996, -0.8293209075927734, 7.147928714752197, -2.3361856937408447, -1.2486448287963867, -2.1977107524871826, 1.1181640625, -0.3994140625, 0.057373046875
345, 2860985712, -6.819601535797119, -0.8251093029975891, 7.1243109703063965, -2.3916242122650146, -1.21359384059906, -2.1768617630004883, 1.118408203125, -0.40185546875, 0.054931640625
346, 2861002379, -6.816967964172363, -0.8198395371437073, 7.0980448722839355, -2.5010030269622803, -1.227219581604004, -2.1674745082855225, 1.11669921875, -0.40087890625, 0.057861328125
347, 2861019046, -6.802018165588379, -0.8276841044425964, 7.104852676391602, -2.4264910221099854, -1.171979546546936, -2.178677558898926, 1.11669921875, -0.40185546875, 0.056396484375
348, 2861035713, -6.818622589111328, -0.8266223073005676, 7.110843658447266, -2.4799110889434814, -1.1447851657867432, -2.2011678218841553, 1.1171875, -0.3994140625, 0.058349609375
349, 2861052380, -6.804849147796631, -0.8200854063034058, 7.125842571258545, -2.5018744468688965, -1.2485294342041016, -2.2690165042877197, 1.11669921875, -0.39990234375, 0.055908203125
350, 2861069047, -6.810305118560791, -0.8171735405921936, 7.110983371734619, -2.5443274974823, -1.1187372207641602, -2.4320669174194336, 1.11572265625, -0.39990234375, 0.057373046875
351, 2861085714, -6.818722248077393, -0.8353403210639954, 7.118247985839844, -2.5786995887756348, -1.2257214784622192, -2.3443050384521484, 1.1171875, -0.39990234375, 0.057373046875
352, 2861102381, -6.814558982849121, -0.8398909568786621, 7.1059746742248535, -2.616567850112915, -1.2381947040557861, -2.30055832862854, 1.117919921875, -0.40234375, 0.057861328125
353, 2861119048, -6.810826778411865, -0.8096278309822083, 7.1428375244140625, -2.6580734252929688, -1.0343561172485352, -2.3046693801879883, 1.1181640625, -0.39990234375, 0.056396484375
354, 2861135715, -6.811026096343994, -0.824678897857666, 7.130147457122803, -2.7509710788726807, -0.979634702205658, -2.4452576637268066, 1.1162109375, -0.39794921875, 0.057373046875
355, 2861152382, -6.836361885070801, -0.843559741973877, 7.105628490447998, -2.7431583404541016, -0.9177541732788086, -2.4085795879364014, 1.11767578125, -0.400390625, 0.057861328125
356, 2861169049, -6.828219413757324, -0.8334276676177979, 7.106570243835449, -2.778158664703369, -0.8111029863357544, -2.4522624015808105, 1.11669921875, -0.3994140625, 0.057861328125
357, 2861185716, -6.831711769104004, -0.8222650289535522, 7.149912357330322, -2.87969970703125, -0.48249199986457825, -2.3547675609588623, 1.1171875, -0.3994140625, 0.057373046875
358, 2861202383, -6.819960117340088, -0.8135949373245239, 7.124433994293213, -3.0214149951934814, -0.11222206056118011, -2.398219585418701, 1.118896484375, -0.40087890625, 0.059326171875
359, 2861219050, -6.818131923675537, -0.8224067687988281, 7.138917446136475, -3.4178097248077393, 0.3290271461009979, -2.6022889614105225, 1.11767578125, -0.39892578125, 0.058349609375
360, 2861235717, -6.82772970199585, -0.7934677004814148, 7.145671844482422, -3.6999080181121826, 1.2083110809326172, -2.866278886795044, 1.11572265625, -0.39892578125, 0.058837890625
361, 2861252384, -6.839425563812256, -0.8192681670188904, 7.119080066680908, -4.187484264373779, 1.99638831615448, -3.190420389175415, 1.118896484375, -0.3994140625, 0.0625
362, 2861269051, -6.831091403961182, -0.8488171696662903, 7.067626476287842, -3.878185749053955, 2.1225051879882812, -3.022132396697998, 1.11865234375, -0.39892578125, 0.058837890625
363, 2861285718, -6.831690311431885, -0.8735913634300232, 7.085756301879883, -3.2306454181671143, 2.0328993797302246, -2.192946672439575, 1.120849609375, -0.39794921875, 0.06103515625
364, 2861302385, -6.829883098602295, -0.8969610929489136, 7.105934143066406, -2.718583822250366, 2.3362820148468018, -1.4416751861572266, 1.118896484375, -0.39990234375, 0.064697265625
365, 2861319052, -6.845526218414307, -0.7962234616279602, 7.062954902648926, -2.2737677097320557, 2.718679666519165, -0.5979925394058228, 1.118408203125, -0.400390625, 0.066162109375
366, 2861335719, -6.895750999450684, -0.8833508491516113, 7.0277509689331055, -2.697567939758301, 2.9359898567199707, -1.0363409519195557, 1.120361328125, -0.39794921875, 0.066162109375
367, 2861352386, -6.924890518188477, -0.8168833255767822, 7.069692134857178, -2.964362859725952, 2.6534440517425537, -1.5977331399917603, 1.119873046875, -0.40087890625, 0.065185546875
368, 2861369053, -6.935406684875488, -0.7518700957298279, 7.055376052856445, -3.4324092864990234, 2.5578062534332275, -2.365781307220459, 1.121826171875, -0.400390625, 0.068359375
369, 2861385720, -6.922894477844238, -0.787018895149231, 7.030505180358887, -3.386268138885498, 2.1060428619384766, -3.149401903152466, 1.1240234375, -0.39990234375, 0.067138671875
370, 2861402387, -6.9132585525512695, -0.8077752590179443, 7.038668632507324, -3.323542833328247, 1.6209064722061157, -3.4385690689086914, 1.122802734375, -0.3994140625, 0.06982421875
371, 2861419054, -6.939116477966309, -0.9423002600669861, 6.9483842849731445, -2.9892587661743164, 0.683007538318634, -3.6917381286621094, 1.122802734375, -0.398193359375, 0.06982421875
372, 2861435721, -6.949727535247803, -0.9215497374534607, 6.9318342208862305, -2.9169280529022217, -0.9220443964004517, -3.715954542160034, 1.125, -0.397705078125, 0.06884765625
373, 2861452388, -6.953176975250244, -0.9745805263519287, 6.893696308135986, -2.6905760765075684, -2.6144039630889893, -3.5633158683776855, 1.122802734375, -0.39892578125, 0.06884765625
374, 2861469055, -6.931190490722656, -1.0247129201889038, 6.95741081237793, -2.09702730178833, -5.328185558319092, -3.0478992462158203, 1.124267578125, -0.397705078125, 0.066650390625
375, 2861485722, -6.950285911560059, -0.9700648188591003, 6.9463419914245605, -1.525268793106079, -9.295089721679688, -2.7022111415863037, 1.120361328125, -0.396728515625, 0.067138671875
376, 2861502389, -6.871021747589111, -0.5815154314041138, 7.045325756072998, -1.6705385446548462, -14.572449684143066, -4.557668685913086, 1.121337890625, -0.396728515625, 0.064208984375
377, 2861519056, -6.68428373336792, -0.35164856910705566, 7.249589920043945, -3.4642245769500732, -17.470138549804688, -7.331876277923584, 1.11962890625, -0.394775390625, 0.060302734375
378, 2861535723, -6.681570053100586, -0.3503864109516144, 7.218571186065674, -8.76221752166748, -13.330350875854492, -10.199104309082031, 1.11669921875, -0.394775390625, 0.05615234375
379, 2861552390, -6.657320499420166, -0.8931578993797302, 7.257355690002441, -13.59758186340332, -4.260703086853027, -10.887125968933105, 1.116455078125, -0.39013671875, 0.05517578125
380, 2861569057, -6.798048973083496, -1.7313216924667358, 6.927660942077637, -11.999598503112793, -0.24474234879016876, -8.063921928405762, 1.115478515625, -0.386474609375, 0.056640625
381, 2861585724, -6.8491315841674805, -1.3841356039047241, 6.978377342224121, -6.068942546844482, -2.7647247314453125, -2.5740764141082764, 1.114990234375, -0.385498046875, 0.05712890625
382, 2861602391, -6.767484188079834, -1.1891459226608276, 7.2170867919921875, -2.446596384048462, -3.855837821960449, 0.04499882087111473, 1.114990234375, -0.386474609375, 0.0556640625
383, 2861619058, -6.803837776184082, -0.9573760628700256, 7.148138523101807, -0.706500768661499, -3.2280325889587402, 0.42821234464645386, 1.114990234375, -0.386962890625, 0.056640625
384, 2861635725, -6.806739330291748, -1.1596622467041016, 7.086963653564453, 0.06068288907408714, -3.192673921585083, 0.5582736134529114, 1.113525390625, -0.384033203125, 0.05908203125
385, 2861652392, -6.76797342300415, -1.2120081186294556, 7.065661907196045, 1.2309911251068115, -3.4199483394622803, 1.8629460334777832, 1.11279296875, -0.38134765625, 0.05908203125
386, 2861669059, -6.809937953948975, -1.1084980964660645, 7.068803310394287, 2.657503366470337, -4.457519054412842, 3.241204023361206, 1.11279296875, -0.38134765625, 0.0595703125
387, 2861685726, -6.750485420227051, -0.9727451801300049, 7.1147661209106445, 3.704590082168579, -5.355053424835205, 3.7333145141601562, 1.10986328125, -0.382568359375, 0.05859375
388, 2861702393, -6.707167148590088, -0.7625159025192261, 7.259613513946533, 2.4369142055511475, -3.991650104522705, 2.651151657104492, 1.1103515625, -0.385498046875, 0.056640625
389, 2861719060, -6.724007606506348, -1.1314027309417725, 7.200335502624512, 2.139819383621216, -2.534069061279297, 2.5984528064727783, 1.11083984375, -0.388671875, 0.05712890625
390, 2861735727, -6.7896599769592285, -1.360983967781067, 7.094427585601807, 4.569863319396973, -2.990513563156128, 5.376829624176025, 1.1103515625, -0.39013671875, 0.054931640625
391, 2861752394, -6.8831987380981445, -1.272494912147522, 7.059755325317383, 6.897394180297852, -4.271970272064209, 8.850491523742676, 1.10791015625, -0.393310546875, 0.053466796875
392, 2861769061, -6.928910255432129, -0.7163174748420715, 7.160553455352783, 7.770391941070557, -6.040042400360107, 10.292387008666992, 1.110595703125, -0.39697265625, 0.05419921875
393, 2861785728, -6.756131172180176, -0.3293374478816986, 7.364868640899658, 5.066213130950928, -4.390927314758301, 7.4694414138793945, 1.108154296875, -0.4013671875, 0.052490234375
394, 2861802395, -6.611859321594238, -0.628765344619751, 7.263071537017822, 1.9916120767593384, 1.5510863065719604, 6.513394355773926, 1.107177734375, -0.406982421875, 0.052978515625
395, 2861819062, -6.77031946182251, -1.2377285957336426, 6.972208023071289, 1.7563719749450684, 3.564525842666626, 7.876309394836426, 1.11083984375, -0.407470703125, 0.0556640625
396, 2861835729, -6.710606575012207, -1.279226541519165, 7.141012191772461, 4.990362167358398, 0.6658985018730164, 12.713568687438965, 1.108154296875, -0.41259765625, 0.056884765625
397, 2861852396, -6.731114387512207, -0.6119328737258911, 7.45331335067749, 5.0506439208984375, 4.047611236572266, 15.901732444763184, 1.1103515625, -0.418212890625, 0.058837890625
398, 2861869063, -6.800367832183838, 0.04575245827436447, 7.425464630126953, 2.060575485229492, 8.307838439941406, 13.784401893615723, 1.111328125, -0.41943359375, 0.0595703125
399, 2861885730, -6.774900436401367, 0.5495098829269409, 7.328302383422852, -2.8795483112335205, 12.531824111938477, 7.456944465637207, 1.113037109375, -0.421875, 0.063720703125
400, 2861902397, -6.918795585632324, 0.5120939612388611, 7.1539082527160645, -7.6641340255737305, 15.336727142333984, 0.1181194931268692, 1.11767578125, -0.42431640625, 0.0693359375
401, 2861919064, -7.073337554931641, 0.0054700300097465515, 6.884936332702637, -7.89599084854126, 11.9697904586792, -4.419462203979492, 1.11865234375, -0.4228515625, 0.073486328125
402, 2861935731, -7.230939865112305, -0.467883825302124, 6.731247901916504, -2.913930892944336, 0.16748782992362976, -3.866633653640747, 1.1171875, -0.4208984375, 0.07568359375
403, 2861952398, -7.252131462097168, -0.30765995383262634, 6.809253215789795, 0.9283391237258911, -12.506304740905762, -4.076724529266357, 1.119140625, -0.42236328125, 0.070068359375
404, 2861969065, -7.101093292236328, 0.414488822221756, 7.157080173492432, 0.642835259437561, -22.605365753173828, -10.036959648132324, 1.114990234375, -0.42236328125, 0.066650390625
405, 2861985732, -6.7399797439575195, 0.399446040391922, 7.512792110443115, -6.375210285186768, -19.282136917114258, -19.24662208557129, 1.113525390625, -0.417724609375, 0.06201171875
406, 2862002399, -6.627315044403076, -1.039072036743164, 7.2532148361206055, -9.490499496459961, -11.574840545654297, -20.430517196655273, 1.11083984375, -0.413818359375, 0.057861328125
407, 2862019066, -6.62783670425415, -1.5349431037902832, 7.1531476974487305, -7.549952983856201, -7.119773864746094, -15.123584747314453, 1.109619140625, -0.40966796875, 0.05517578125
408, 2862035733, -6.578561305999756, -1.101555347442627, 7.220017910003662, -5.5905256271362305, -2.3569459915161133, -9.857257843017578, 1.109130859375, -0.406005859375, 0.0556640625
409, 2862052400, -6.593563079833984, -0.8732565641403198, 7.229637145996094, -4.7884111404418945, 0.0839136391878128, -7.987387180328369, 1.110107421875, -0.404052734375, 0.0556640625
410, 2862069067, -6.70734977722168, -0.6922197937965393, 7.181686878204346, -4.923274040222168, 1.0522403717041016, -7.16560173034668, 1.110595703125, -0.4013671875, 0.05419921875
411, 2862085734, -6.702579021453857, -0.8614901900291443, 7.149576187133789, -5.862940311431885, 2.110902786254883, -7.28408670425415, 1.111572265625, -0.400390625, 0.05615234375
412, 2862102401, -6.7722883224487305, -1.1407760381698608, 7.120620250701904, -5.726487636566162, 2.9491424560546875, -5.61110258102417, 1.115234375, -0.40087890625, 0.057861328125
413, 2862119068, -6.934694290161133, -0.6733672618865967, 7.008081436157227, -6.224809169769287, 1.9734973907470703, -5.542051315307617, 1.11474609375, -0.40283203125, 0.059814453125
414, 2862135735, -6.855370998382568, -0.8760306239128113, 7.050276279449463, -6.580659866333008, -1.4006692171096802, -6.512439727783203, 1.11376953125, -0.403564453125, 0.059326171875
415, 2862152402, -6.794538974761963, -0.6999092102050781, 7.222499370574951, -8.22456169128418, -1.06771719455719, -7.992023944854736, 1.112548828125, -0.40087890625, 0.057373046875
416, 2862169069, -6.804989814758301, -1.085337519645691, 7.1452765464782715, -8.219042778015137, 1.3257588148117065, -6.837237358093262, 1.11376953125, -0.40087890625, 0.056884765625
417, 2862185736, -6.825833320617676, -1.016674280166626, 7.100035190582275, -6.925546169281006, 1.308200716972351, -4.682745456695557, 1.11474609375, -0.400390625, 0.0556640625
418, 2862202403, -6.818513870239258, -1.0891464948654175, 7.0773725509643555, -5.394108295440674, 0.06187016889452934, -3.304595708847046, 1.1162109375, -0.40185546875, 0.058349609375
419, 2862219070, -6.828195571899414, -1.0596020221710205, 7.04788875579834, -3.0575673580169678, -3.178356647491455, -2.105236053466797, 1.11669921875, -0.39990234375, 0.056396484375
420, 2862235737, -6.722137928009033, -0.8922010064125061, 7.209399700164795, -2.289391279220581, -4.150794982910156, -1.8191039562225342, 1.11328125, -0.4013671875, 0.0556640625
421, 2862252404, -6.747220993041992, -0.5913553237915039, 7.234870910644531, -2.6973891258239746, -2.1646063327789307, -1.9309160709381104, 1.1142578125, -0.4013671875, 0.05419921875
422, 2862269071, -6.820330619812012, -0.8995463848114014, 7.205018520355225, -3.317715883255005, 0.3993084728717804, -1.889743685722351, 1.11474609375, -0.40087890625, 0.05615234375
423, 2862285738, -6.84015417098999, -1.090976357460022, 7.029871463775635, -1.7359004020690918, 0.41255009174346924, -0.7714928388595581, 1.1162109375, -0.3984375, 0.057373046875
424, 2862302405, -6.86181116104126, -0.8563736081123352, 7.052831172943115, 0.3075637221336365, -3.8737289905548096, -0.45458704233169556, 1.11376953125, -0.404052734375, 0.056396484375
425, 2862319072, -6.751814365386963, -0.5980539321899414, 7.231941223144531, -0.484899640083313, -3.7918577194213867, -1.664518117904663, 1.11669921875, -0.40185546875, 0.05517578125
426, 2862335739, -6.740816116333008, -0.6044172644615173, 7.2107253074646, -2.223848342895508, -1.04373037815094, -2.8625521659851074, 1.11474609375, -0.402587890625, 0.05615234375
427, 2862352406, -6.738025665283203, -0.75398188829422, 7.191913604736328, -3.099393129348755, 0.9699978828430176, -3.251225233078003, 1.115234375, -0.40234375, 0.056884765625
428, 2862369073, -6.748177528381348, -0.900312602519989, 7.1445159912109375, -2.8040525913238525, 2.4250166416168213, -2.238370656967163, 1.1171875, -0.40087890625, 0.059326171875
429, 2862385740, -6.840949058532715, -1.0013436079025269, 6.995132923126221, -1.7352732419967651, 1.7196301221847534, -0.38533028960227966, 1.11572265625, -0.403564453125, 0.058349609375
430, 2862402407, -6.8385329246521, -0.8752759099006653, 7.013657569885254, -1.2374264001846313, -0.4451230764389038, 0.29273396730422974, 1.1162109375, -0.40234375, 0.058349609375
431, 2862419074, -6.8264875411987305, -0.8420053720474243, 7.146763801574707, -1.2923270463943481, -0.9373608827590942, 0.1800764799118042, 1.117431640625, -0.404541015625, 0.0595703125
432, 2862435741, -6.780327320098877, -0.721518874168396, 7.118410110473633, -1.4574905633926392, -0.5944067239761353, -0.2109205722808838, 1.11669921875, -0.404541015625, 0.057861328125
433, 2862452408, -6.782047748565674, -0.6941441297531128, 7.157956600189209, -2.1202449798583984, -0.1461716890335083, -1.1838061809539795, 1.116455078125, -0.406494140625, 0.059326171875
434, 2862469075, -6.772317409515381, -0.749243438243866, 7.115140438079834, -2.5056519508361816, 0.8747055530548096, -1.927112340927124, 1.117919921875, -0.406494140625, 0.058349609375
435, 2862485742, -6.824400424957275, -0.8013226389884949, 7.156338691711426, -2.6207046508789062, 1.891824722290039, -2.0303831100463867, 1.117919921875, -0.404541015625, 0.059326171875
436, 2862502409, -6.84920072555542, -0.816254198551178, 7.104351043701172, -2.735269784927368, 2.472963809967041, -1.8838012218475342, 1.117431640625, -0.403564453125, 0.06396484375
437, 2862519076, -6.866661071777344, -0.8712286949157715, 7.046109199523926, -2.2798376083374023, 2.174306869506836, -1.2955158948898315, 1.119384765625, -0.405517578125, 0.063720703125
438, 2862535743, -6.8873209953308105, -0.9073081016540527, 7.013311862945557, -1.4790821075439453, 0.34981822967529297, -0.7874239683151245, 1.116943359375, -0.405517578125, 0.06298828125
439, 2862552410, -6.898014545440674, -0.7911582589149475, 7.054930210113525, -1.2057689428329468, -1.237618327140808, -0.6921959519386292, 1.117919921875, -0.407470703125, 0.0634765625
440, 2862569077, -6.903148174285889, -0.7490664720535278, 7.065492630004883, -1.4261279106140137, -1.8634265661239624, -1.039427399635315, 1.118896484375, -0.406005859375, 0.0615234375
441, 2862585744, -6.8640522956848145, -0.7753481864929199, 7.113506317138672, -1.6782593727111816, -1.8875792026519775, -1.39051353931427, 1.120361328125, -0.407470703125, 0.060546875
442, 2862602411, -6.863935470581055, -0.7516560554504395, 7.105172634124756, -1.8852357864379883, -1.796205997467041, -1.7807230949401855, 1.120361328125, -0.407470703125, 0.063720703125
443, 2862619078, -6.873872756958008, -0.7599492073059082, 7.105393886566162, -2.0375924110412598, -1.6793606281280518, -2.1191177368164062, 1.119384765625, -0.406005859375, 0.0625
444, 2862635745, -6.838008880615234, -0.7954196929931641, 7.114223957061768, -2.0155398845672607, -1.608695149421692, -2.084899425506592, 1.120361328125, -0.408447265625, 0.062744140625
445, 2862652412, -6.876182556152344, -0.7537602782249451, 7.091387748718262, -1.825711727142334, -1.4163953065872192, -2.0342507362365723, 1.118408203125, -0.407958984375, 0.06201171875
446, 2862669079, -6.85143518447876, -0.7626091837882996, 7.079916477203369, -1.7824517488479614, -1.7198158502578735, -2.0795845985412598, 1.120849609375, -0.406982421875, 0.0615234375
447, 2862685746, -6.874757766723633, -0.7950876951217651, 7.057448387145996, -1.5951333045959473, -2.0850658416748047, -2.214601993560791, 1.118896484375, -0.406982421875, 0.06103515625
448, 2862702413, -6.855030536651611, -0.8112289905548096, 7.090127468109131, -1.365278720855713, -2.070127248764038, -1.9177577495574951, 1.117919921875, -0.408203125, 0.0615234375
449, 2862719080, -6.88784122467041, -0.812571108341217, 7.066280364990234, -1.1709743738174438, -2.196263551712036, -1.7135921716690063, 1.119384765625, -0.407958984375, 0.06103515625
450, 2862735747, -6.871315956115723, -0.7962263226509094, 7.096088886260986, -0.9775086045265198, -2.547234296798706, -1.6373430490493774, 1.119384765625, -0.408447265625, 0.060546875
451, 2862752414, -6.867551803588867, -0.7412576079368591, 7.084850788116455, -0.7453808188438416, -2.5227744579315186, -1.5304100513458252, 1.120361328125, -0.4091796875, 0.05859375
452, 2862769081, -6.861148834228516, -0.769250750541687, 7.104240894317627, -0.6921319365501404, -2.724921941757202, -1.6150085926055908, 1.118896484375, -0.407470703125, 0.06005859375
453, 2862785748, -6.8442182540893555, -0.8056122660636902, 7.094674587249756, -0.7469816207885742, -2.5943615436553955, -1.4593605995178223, 1.121337890625, -0.407958984375, 0.05810546875
454, 2862802415, -6.8207550048828125, -0.7800098657608032, 7.112561225891113, -0.6609728336334229, -2.320652961730957, -1.0515942573547363, 1.118896484375, -0.41015625, 0.05859375
455, 2862819082, -6.843301296234131, -0.7210122346878052, 7.074519634246826, -0.635310173034668, -2.3524880409240723, -1.003018856048584, 1.119384765625, -0.4111328125, 0.05908203125
456, 2862835749, -6.830436706542969, -0.8191158175468445, 7.051048755645752, -0.46396124362945557, -2.967000722885132, -1.0181816816329956, 1.118408203125, -0.41064453125, 0.0595703125
457, 2862852416, -6.817963123321533, -0.8279368877410889, 7.071296215057373, -0.27830764651298523, -3.825436592102051, -0.649948000907898, 1.119384765625, -0.41259765625, 0.0576171875
458, 2862869083, -6.823358535766602, -0.7924267649650574, 7.099808216094971, -0.1487073302268982, -3.7954440116882324, -0.022475145757198334, 1.116943359375, -0.41162109375, 0.056884765625
459, 2862885750, -6.823543071746826, -0.7314643263816833, 7.143428325653076, -0.27812835574150085, -3.561164379119873, 0.30794790387153625, 1.11865234375, -0.414794921875, 0.0576171875
460, 2862902417, -6.791692733764648, -0.7102534770965576, 7.183590888977051, -0.3832043707370758, -3.1282196044921875, 0.4862762987613678, 1.118896484375, -0.41259765625, 0.056884765625
461, 2862919084, -6.786199569702148, -0.7183117270469666, 7.168708801269531, -0.23869752883911133, -2.457141399383545, 0.6307830810546875, 1.12109375, -0.415283203125, 0.0576171875
462, 2862935751, -6.80410623550415, -0.6402862668037415, 7.170707702636719, -0.28750255703926086, -1.1988153457641602, 0.7823079228401184, 1.11865234375, -0.415283203125, 0.05712890625
463, 2862952418, -6.811412334442139, -0.6883058547973633, 7.122089385986328, -0.4013894200325012, -0.45850569009780884, 0.8711839318275452, 1.11865234375, -0.417236328125, 0.056396484375
464, 2862969085, -6.837075233459473, -0.6726828813552856, 7.121016502380371, -0.7931101322174072, -0.2631448805332184, 0.9507754445075989, 1.12060546875, -0.418212890625, 0.056640625
465, 2862985752, -6.830296516418457, -0.5750665664672852, 7.148604393005371, -1.2483373880386353, -0.3164833188056946, 0.4928332269191742, 1.1220703125, -0.417236328125, 0.05712890625
466, 2863002419, -6.811782360076904, -0.5152075290679932, 7.159290790557861, -1.9879167079925537, 0.19484218955039978, -0.4930444657802582, 1.11865234375, -0.42138671875, 0.056640625
467, 2863019086, -6.8129401206970215, -0.5279815196990967, 7.109066963195801, -2.533134698867798, 0.6217931509017944, -1.6517120599746704, 1.1201171875, -0.42138671875, 0.05859375
468, 2863035753, -6.852875232696533, -0.6125036478042603, 7.074744701385498, -3.0314419269561768, -0.08326689153909683, -2.735410690307617, 1.119140625, -0.4189453125, 0.06103515625
469, 2863052420, -6.8284759521484375, -0.7262587547302246, 7.0634589195251465, -2.7642507553100586, -0.8919624090194702, -2.7746880054473877, 1.1201171875, -0.4208984375, 0.05810546875
470, 2863069087, -6.845254898071289, -0.7195398211479187, 7.073586940765381, -2.3335347175598145, -1.527899980545044, -2.358673572540283, 1.12158203125, -0.418701171875, 0.0576171875
471, 2863085754, -6.828825950622559, -0.7458500862121582, 7.088768005371094, -2.056968927383423, -1.757530689239502, -1.8704185485839844, 1.12060546875, -0.419921875, 0.05712890625
472, 2863102421, -6.828054428100586, -0.6617442965507507, 7.127032279968262, -1.866102695465088, -1.4345033168792725, -1.3560899496078491, 1.123291015625, -0.41943359375, 0.05908203125
473, 2863119088, -6.822307109832764, -0.6473129391670227, 7.123840808868408, -1.9858933687210083, -0.966200590133667, -1.2641916275024414, 1.1201171875, -0.42041015625, 0.05908203125
474, 2863135755, -6.841141223907471, -0.6170020699501038, 7.125565052032471, -2.090610980987549, -0.6629974842071533, -1.2202787399291992, 1.11962890625, -0.41943359375, 0.0595703125
475, 2863152422, -6.842935085296631, -0.606301486492157, 7.140158653259277, -2.3477494716644287, -0.4148232936859131, -1.6655553579330444, 1.12060546875, -0.42041015625, 0.06005859375
476, 2863169089, -6.843289852142334, -0.6179099678993225, 7.1398396492004395, -2.6079235076904297, 0.07051816582679749, -1.7972304821014404, 1.12255859375, -0.419189453125, 0.05908203125
477, 2863185756, -6.858511447906494, -0.5989381074905396, 7.101810932159424, -2.769411325454712, 0.2895451486110687, -2.0528833866119385, 1.1220703125, -0.4208984375, 0.0595703125
478, 2863202423, -6.888197898864746, -0.637925922870636, 7.083602428436279, -2.7938337326049805, 0.03129231929779053, -2.284050941467285, 1.121826171875, -0.42236328125, 0.0595703125
479, 2863219090, -6.870416641235352, -0.6704142689704895, 7.091444492340088, -2.656344175338745, -0.4527812898159027, -2.300110101699829, 1.12158203125, -0.42138671875, 0.060302734375
480, 2863235757, -6.882713794708252, -0.6398451924324036, 7.071464538574219, -2.6019558906555176, -0.8035087585449219, -2.2322235107421875, 1.12158203125, -0.42138671875, 0.061767578125
481, 2863252424, -6.862869739532471, -0.6737357378005981, 7.084753036499023, -2.546977996826172, -1.2375926971435547, -2.2561328411102295, 1.123779296875, -0.419921875, 0.060791015625
482, 2863269091, -6.8685503005981445, -0.6531136631965637, 7.083874225616455, -2.447575569152832, -1.5364419221878052, -2.2684402465820312, 1.12158203125, -0.41943359375, 0.0595703125
483, 2863285758, -6.860038757324219, -0.627269983291626, 7.090242385864258, -2.4131906032562256, -1.7555203437805176, -2.3676252365112305, 1.1220703125, -0.419921875, 0.060302734375
484, 2863302425, -6.856071949005127, -0.6399128437042236, 7.103468894958496, -2.519777297973633, -1.8844414949417114, -2.6843645572662354, 1.1220703125, -0.42041015625, 0.062255859375
485, 2863319092, -6.864824295043945, -0.6189213991165161, 7.1095170974731445, -2.7446441650390625, -1.7765097618103027, -2.9800631999969482, 1.123291015625, -0.42138671875, 0.061279296875
486, 2863335759, -6.86545991897583, -0.6543387174606323, 7.075845241546631, -2.8288209438323975, -2.0374138355255127, -3.194634199142456, 1.1220703125, -0.418701171875, 0.060302734375
487, 2863352426, -6.8445611000061035, -0.6875427961349487, 7.073033809661865, -2.72683048248291, -2.3883204460144043, -3.061767816543579, 1.1220703125, -0.419189453125, 0.062255859375
488, 2863369093, -6.854538917541504, -0.6561720371246338, 7.104165077209473, -2.6655781269073486, -2.563767671585083, -3.0553903579711914, 1.1201171875, -0.417724609375, 0.060546875
489, 2863385760, -6.866815567016602, -0.6531543135643005, 7.089904308319092, -2.8087782859802246, -2.6744654178619385, -3.133483409881592, 1.12109375, -0.417724609375, 0.05859375
490, 2863402427, -6.8334879875183105, -0.6880972981452942, 7.102871894836426, -2.9094154834747314, -2.819225788116455, -3.3430380821228027, 1.12060546875, -0.4189453125, 0.05908203125
491, 2863419094, -6.844568252563477, -0.6026405692100525, 7.106165409088135, -3.0636889934539795, -2.226640462875366, -3.6169872283935547, 1.12060546875, -0.417236328125, 0.05810546875
492, 2863435761, -6.855750560760498, -0.6018099188804626, 7.117191314697266, -3.200576066970825, -1.7102242708206177, -4.071407794952393, 1.11865234375, -0.416748046875, 0.05859375
493, 2863452428, -6.85805606842041, -0.6511695384979248, 7.104987621307373, -3.318791389465332, -1.5129424333572388, -4.2172722816467285, 1.11962890625, -0.414306640625, 0.05810546875
494, 2863469095, -6.872133731842041, -0.7083417177200317, 7.094262599945068, -3.326385498046875, -1.5768202543258667, -4.275015830993652, 1.119140625, -0.413818359375, 0.05908203125
495, 2863485762, -6.874813079833984, -0.7039495706558228, 7.081946849822998, -2.9191181659698486, -2.088805675506592, -3.917309522628784, 1.11962890625, -0.414794921875, 0.06005859375
496, 2863502429, -6.864736080169678, -0.7286423444747925, 7.107295989990234, -2.9400439262390137, -2.1648108959198, -3.725905418395996, 1.119140625, -0.414794921875, 0.05810546875
497, 2863519096, -6.856361389160156, -0.7288240790367126, 7.108948707580566, -2.581772804260254, -2.496328830718994, -3.3166399002075195, 1.11962890625, -0.415283203125, 0.05859375
498, 2863535763, -6.818709850311279, -0.696431040763855, 7.119606018066406, -2.636033296585083, -2.759589195251465, -3.2559375762939453, 1.12109375, -0.414306640625, 0.05859375
499, 2863552430, -6.831347465515137, -0.6713316440582275, 7.132907390594482, -2.692369222640991, -2.169050455093384, -3.2028818130493164, 1.11962890625, -0.413818359375, 0.05712890625
500, 2863569097, -6.837458610534668, -0.6698893308639526, 7.125487327575684, -2.9721362590789795, -1.7320077419281006, -3.288978099822998, 1.1201171875, -0.4130859375, 0.055908203125
501, 2863585764, -6.818105220794678, -0.7086873650550842, 7.134787082672119, -3.061511993408203, -1.3061710596084595, -3.0687344074249268, 1.11962890625, -0.414794921875, 0.0595703125
502, 2863602431, -6.829529285430908, -0.7134408354759216, 7.119611740112305, -2.9536054134368896, -0.9864475131034851, -3.0405092239379883, 1.11962890625, -0.414306640625, 0.0576171875
503, 2863619098, -6.8264007568359375, -0.7441080212593079, 7.106011390686035, -2.917388677597046, -1.1202865839004517, -2.8357996940612793, 1.118896484375, -0.41162109375, 0.06005859375
504, 2863635765, -6.852077007293701, -0.7294739484786987, 7.094595909118652, -2.6118812561035156, -1.3082711696624756, -2.63124418258667, 1.11962890625, -0.413818359375, 0.05908203125
505, 2863652432, -6.82944393157959, -0.7369370460510254, 7.116357326507568, -2.556711435317993, -1.4554163217544556, -2.458768129348755, 1.12060546875, -0.414306640625, 0.0576171875
506, 2863669099, -6.862069129943848, -0.701532781124115, 7.114149570465088, -2.4464738368988037, -1.5681887865066528, -2.4090027809143066, 1.119873046875, -0.412109375, 0.057373046875
507, 2863685766, -6.846556663513184, -0.727536141872406, 7.112462043762207, -2.4090025424957275, -1.8128156661987305, -2.4793477058410645, 1.12060546875, -0.41259765625, 0.056884765625
508, 2863702433, -6.854144096374512, -0.7073619365692139, 7.105013370513916, -2.3401429653167725, -1.7156542539596558, -2.4668617248535156, 1.117919921875, -0.4111328125, 0.057373046875
509, 2863719100, -6.844243049621582, -0.7306936979293823, 7.099213123321533, -2.4356913566589355, -1.8007906675338745, -2.5274102687835693, 1.11962890625, -0.41259765625, 0.057373046875
510, 2863735767, -6.831973552703857, -0.7269461154937744, 7.09837532043457, -2.395056962966919, -1.73906409740448, -2.4794251918792725, 1.119873046875, -0.41162109375, 0.05810546875
511, 2863752434, -6.846939563751221, -0.7181781530380249, 7.121205806732178, -2.293194532394409, -1.7391281127929688, -2.5190091133117676, 1.12109375, -0.412109375, 0.0576171875
512, 2863769101, -6.843646049499512, -0.7417979836463928, 7.111263751983643, -2.339195489883423, -1.8905761241912842, -2.3829545974731445, 1.118896484375, -0.4130859375, 0.05908203125
513, 2863785768, -6.8425421714782715, -0.73399817943573, 7.094712734222412, -2.1806399822235107, -2.071773052215576, -2.3794329166412354, 1.1201171875, -0.4111328125, 0.056396484375
514, 2863802435, -6.844415187835693, -0.7075453996658325, 7.117328643798828, -2.1228320598602295, -2.1739039421081543, -2.2933995723724365, 1.119384765625, -0.412109375, 0.057373046875
515, 2863819102, -6.837602615356445, -0.7138020992279053, 7.14213752746582, -2.0563666820526123, -2.21636962890625, -2.246272087097168, 1.118896484375, -0.412109375, 0.056396484375
516, 2863835769, -6.819628715515137, -0.7258354425430298, 7.138503074645996, -2.0752434730529785, -1.8896408081054688, -2.205010175704956, 1.119384765625, -0.41259765625, 0.055908203125
517, 2863852436, -6.831161975860596, -0.7061391472816467, 7.145547866821289, -2.204280138015747, -1.541321039199829, -2.2411751747131348, 1.12060546875, -0.41357421875, 0.0576171875
518, 2863869103, -6.833859920501709, -0.7101515531539917, 7.132202625274658, -2.2321853637695312, -1.645923376083374, -2.2421998977661133, 1.119873046875, -0.412109375, 0.057373046875
519, 2863885770, -6.833168029785156, -0.7278396487236023, 7.108614921569824, -2.057993173599243, -1.9112707376480103, -2.170586585998535, 1.119873046875, -0.41162109375, 0.05810546875
520, 2863902437, -6.832202911376953, -0.7201182842254639, 7.11077356338501, -1.9777101278305054, -2.021815299987793, -2.0821585655212402, 1.117919921875, -0.412109375, 0.056396484375
521, 2863919104, -6.826738357543945, -0.720681369304657, 7.1148600578308105, -1.9547226428985596, -2.0870635509490967, -2.051666736602783, 1.1201171875, -0.413818359375, 0.06005859375
522, 2863935771, -6.834296226501465, -0.7094995379447937, 7.094930648803711, -1.936396837234497, -2.163748025894165, -1.9811550378799438, 1.119384765625, -0.41259765625, 0.05859375
523, 2863952438, -6.8313679695129395, -0.7020830512046814, 7.115365028381348, -1.8957879543304443, -2.269644021987915, -1.9541082382202148, 1.1201171875, -0.4130859375, 0.055908203125
524, 2863969105, -6.818780899047852, -0.7119729518890381, 7.156959533691406, -2.034468173980713, -2.13165545463562, -2.050783395767212, 1.118408203125, -0.4130859375, 0.054931640625
525, 2863985772, -6.825587272644043, -0.6941567063331604, 7.128119945526123, -2.094017505645752, -1.9040354490280151, -2.173698663711548, 1.118896484375, -0.413818359375, 0.0576171875
526, 2864002439, -6.816540241241455, -0.7035297155380249, 7.140142440795898, -2.017941951751709, -1.81190025806427, -2.318092107772827, 1.119140625, -0.413818359375, 0.055908203125
527, 2864019106, -6.82416296005249, -0.7207602858543396, 7.130745887756348, -1.9928475618362427, -1.7939773797988892, -2.2030763626098633, 1.117919921875, -0.413330078125, 0.055908203125
528, 2864035773, -6.822637557983398, -0.7406283020973206, 7.125604152679443, -1.807347297668457, -1.8965950012207031, -2.04201078414917, 1.117431640625, -0.4130859375, 0.05810546875
529, 2864052440, -6.824394226074219, -0.7143927216529846, 7.093064785003662, -1.7368098497390747, -2.0405123233795166, -1.8824695348739624, 1.118896484375, -0.41259765625, 0.056884765625
530, 2864069107, -6.823239803314209, -0.6855046153068542, 7.139730453491211, -1.5842992067337036, -2.038860559463501, -2.0152199268341064, 1.118408203125, -0.41162109375, 0.055908203125
531, 2864085774, -6.796206951141357, -0.6955423951148987, 7.156164646148682, -1.5282456874847412, -1.9284697771072388, -2.0321884155273438, 1.118408203125, -0.414794921875, 0.054443359375
532, 2864102441, -6.8064985275268555, -0.7050386071205139, 7.135396480560303, -1.5031709671020508, -1.9747904539108276, -1.9612284898757935, 1.11962890625, -0.413818359375, 0.055419921875
533, 2864119108, -6.827113151550293, -0.6600456833839417, 7.15093469619751, -1.2717217206954956, -1.7395888566970825, -1.9018324613571167, 1.118896484375, -0.41259765625, 0.054443359375
534, 2864135775, -6.832009792327881, -0.7292780876159668, 7.128905296325684, -0.9484127759933472, -1.9748672246932983, -1.6474345922470093, 1.117431640625, -0.413330078125, 0.055908203125
535, 2864152442, -6.825812339782715, -0.6806724667549133, 7.128377914428711, -0.699341893196106, -2.0094828605651855, -1.5241349935531616, 1.117919921875, -0.413818359375, 0.055419921875
536, 2864169109, -6.823611736297607, -0.686621367931366, 7.151397228240967, -0.6874449253082275, -1.751178503036499, -1.4972161054611206, 1.117919921875, -0.413818359375, 0.055908203125
537, 2864185776, -6.791464805603027, -0.6898451447486877, 7.128191947937012, -0.8537353277206421, -1.7471064329147339, -1.4536488056182861, 1.117919921875, -0.415283203125, 0.053955078125
538, 2864202443, -6.79630184173584, -0.6615617871284485, 7.1326422691345215, -1.380076289176941, -1.6033166646957397, -1.6079524755477905, 1.119140625, -0.416259765625, 0.054443359375
539, 2864219110, -6.799043655395508, -0.6277607679367065, 7.1353373527526855, -1.9537370204925537, -1.4707967042922974, -1.9008082151412964, 1.118408203125, -0.416259765625, 0.054931640625
540, 2864235777, -6.798757553100586, -0.6344727277755737, 7.153377056121826, -2.262664318084717, -0.9818628430366516, -2.236590623855591, 1.116943359375, -0.418212890625, 0.053955078125
541, 2864252444, -6.832302570343018, -0.6554672718048096, 7.137270927429199, -2.557863712310791, -0.87846440076828, -2.4267008304595947, 1.1181640625, -0.418212890625, 0.055908203125
542, 2864269111, -6.805423736572266, -0.682369589805603, 7.116644382476807, -2.5299456119537354, -1.1413147449493408, -2.486417055130005, 1.116455078125, -0.416259765625, 0.055908203125
543, 2864285778, -6.816743850708008, -0.7022268176078796, 7.132780075073242, -2.55071759223938, -1.4144868850708008, -2.3632326126098633, 1.11865234375, -0.417724609375, 0.054443359375
544, 2864302445, -6.807434558868408, -0.6766473054885864, 7.121496677398682, -2.53350567817688, -1.5182055234909058, -2.321714401245117, 1.12060546875, -0.416748046875, 0.054931640625
545, 2864319112, -6.832221031188965, -0.6611738204956055, 7.137946128845215, -2.637518882751465, -1.5195887088775635, -2.277071475982666, 1.12060546875, -0.416748046875, 0.053466796875
546, 2864335779, -6.807040214538574, -0.6688010096549988, 7.125329494476318, -2.6751317977905273, -1.6180697679519653, -2.370839834213257, 1.117919921875, -0.415283203125, 0.055908203125
547, 2864352446, -6.818549633026123, -0.6787670254707336, 7.139620780944824, -2.686798334121704, -1.604251742362976, -2.491795778274536, 1.117431640625, -0.416748046875, 0.056884765625
548, 2864369113, -6.827010154724121, -0.6471824645996094, 7.145888805389404, -2.6975934505462646, -1.7413432598114014, -2.6141345500946045, 1.1201171875, -0.416748046875, 0.055419921875
549, 2864385780, -6.823854923248291, -0.6659508943557739, 7.134203910827637, -2.814387083053589, -1.8245460987091064, -2.624072313308716, 1.11865234375, -0.415771484375, 0.054443359375
550, 2864402447, -6.818423748016357, -0.6929906010627747, 7.143452167510986, -2.6597633361816406, -2.01142954826355, -2.5995993614196777, 1.119140625, -0.415771484375, 0.056396484375
551, 2864419114, -6.804440975189209, -0.6848610043525696, 7.134206295013428, -2.708299398422241, -2.0525503158569336, -2.580594778060913, 1.11865234375, -0.415283203125, 0.052978515625
552, 2864435781, -6.804644584655762, -0.6824246644973755, 7.15822172164917, -2.6706490516662598, -1.983012080192566, -2.5854098796844482, 1.116943359375, -0.415283203125, 0.055419921875
553, 2864452448, -6.809113025665283, -0.6713489890098572, 7.123192310333252, -2.770730495452881, -1.8921252489089966, -2.559220790863037, 1.118408203125, -0.414794921875, 0.054443359375
554, 2864469115, -6.809414863586426, -0.683243989944458, 7.137579441070557, -2.808791160583496, -2.0063962936401367, -2.6141600608825684, 1.1201171875, -0.415771484375, 0.052978515625
555, 2864485782, -6.814242839813232, -0.6823984384536743, 7.157979488372803, -2.786482572555542, -1.8741326332092285, -2.7117063999176025, 1.119140625, -0.415283203125, 0.053955078125
556, 2864502449, -6.815506935119629, -0.6822196245193481, 7.132228374481201, -2.757002115249634, -1.9055464267730713, -2.7888641357421875, 1.118896484375, -0.414794921875, 0.055419921875
557, 2864519116, -6.808274269104004, -0.6917687058448792, 7.141970157623291, -2.670098304748535, -2.0098159313201904, -2.687425374984741, 1.115478515625, -0.415771484375, 0.05322265625
558, 2864535783, -6.802492141723633, -0.7014089226722717, 7.149767875671387, -2.749100685119629, -2.0673933029174805, -2.6275558471679688, 1.117919921875, -0.413818359375, 0.053466796875
559, 2864552450, -6.793821334838867, -0.6924441456794739, 7.140115261077881, -2.625263214111328, -2.0345962047576904, -2.7090938091278076, 1.117431640625, -0.415283203125, 0.052978515625
560, 2864569117, -6.799245357513428, -0.6786312460899353, 7.167574882507324, -2.830228805541992, -1.8420653343200684, -2.786482095718384, 1.118408203125, -0.414306640625, 0.054931640625
561, 2864585784, -6.795487880706787, -0.6765408515930176, 7.145203113555908, -3.0993804931640625, -1.598783254623413, -3.0001308917999268, 1.118896484375, -0.413818359375, 0.053955078125
562, 2864602451, -6.796957492828369, -0.6951190233230591, 7.155792713165283, -3.2170310020446777, -1.3494266271591187, -3.112166404724121, 1.119140625, -0.414306640625, 0.05126953125
563, 2864619118, -6.80029296875, -0.7030272483825684, 7.130131721496582, -3.336618185043335, -1.2554835081100464, -3.1194608211517334, 1.118408203125, -0.413818359375, 0.054931640625
564, 2864635785, -6.785104751586914, -0.7242169976234436, 7.158312797546387, -3.180072546005249, -1.22792387008667, -2.9352407455444336, 1.115478515625, -0.41162109375, 0.054443359375
565, 2864652452, -6.781561374664307, -0.7210440635681152, 7.159305095672607, -3.22597074508667, -1.130659818649292, -2.8655872344970703, 1.119873046875, -0.4111328125, 0.053466796875
566, 2864669119, -6.795992374420166, -0.7064386606216431, 7.144067287445068, -3.0822577476501465, -1.0574970245361328, -2.6709558963775635, 1.119873046875, -0.412109375, 0.053955078125
567, 2864685786, -6.8038763999938965, -0.7425633668899536, 7.146585941314697, -2.8315227031707764, -1.225503921508789, -2.3811488151550293, 1.118896484375, -0.412109375, 0.053955078125
568, 2864702453, -6.807602405548096, -0.7208799123764038, 7.16075325012207, -2.684774398803711, -1.2349292039871216, -2.167231321334839, 1.117431640625, -0.41259765625, 0.054931640625
569, 2864719120, -6.8083930015563965, -0.7134178876876831, 7.1488261222839355, -2.583847761154175, -1.193129301071167, -2.051372528076172, 1.119873046875, -0.41162109375, 0.057373046875
570, 2864735787, -6.808408260345459, -0.7167969942092896, 7.140973091125488, -2.460214853286743, -1.1342711448669434, -2.0673415660858154, 1.118896484375, -0.41162109375, 0.055908203125
571, 2864752454, -6.813853740692139, -0.6984071731567383, 7.1426310539245605, -2.5558784008026123, -0.9425473213195801, -2.0446746349334717, 1.117919921875, -0.41259765625, 0.05322265625
572, 2864769121, -6.829676151275635, -0.6817746162414551, 7.124988079071045, -2.610010862350464, -0.7484415173530579, -2.118823289871216, 1.117919921875, -0.4130859375, 0.05224609375
573, 2864785788, -6.807999610900879, -0.7154574990272522, 7.1228790283203125, -2.600559949874878, -1.0778720378875732, -2.2102863788604736, 1.118408203125, -0.41259765625, 0.053466796875
574, 2864802455, -6.809589385986328, -0.7232081890106201, 7.132892608642578, -2.503884792327881, -1.2325599193572998, -2.222695827484131, 1.116455078125, -0.41162109375, 0.054931640625
575, 2864819122, -6.8103814125061035, -0.7249396443367004, 7.135707855224609, -2.4332830905914307, -1.2397186756134033, -2.232351541519165, 1.118896484375, -0.41162109375, 0.056396484375
576, 2864835789, -6.823859691619873, -0.7219893932342529, 7.128447532653809, -2.3938651084899902, -1.346395492553711, -2.1993625164031982, 1.120361328125, -0.4111328125, 0.054443359375
577, 2864852456, -6.828120708465576, -0.7123197317123413, 7.117125988006592, -2.3692774772644043, -1.3674236536026, -2.131757974624634, 1.1201171875, -0.41259765625, 0.055908203125
578, 2864869123, -6.810314655303955, -0.6983092427253723, 7.1409502029418945, -2.410935878753662, -1.3670905828475952, -2.2256667613983154, 1.119384765625, -0.41357421875, 0.052734375
579, 2864885790, -6.820378303527832, -0.7041963338851929, 7.139267921447754, -2.477196216583252, -1.3438087701797485, -2.289557933807373, 1.119384765625, -0.41162109375, 0.056396484375
580, 2864902457, -6.821982383728027, -0.7050941586494446, 7.130463123321533, -2.5182149410247803, -1.269570231437683, -2.2553136348724365, 1.116943359375, -0.412109375, 0.056884765625
581, 2864919124, -6.8202805519104, -0.719066858291626, 7.116959571838379, -2.511875867843628, -1.4314937591552734, -2.4055449962615967, 1.11962890625, -0.41357421875, 0.053466796875
582, 2864935791, -6.8215765953063965, -0.7322395443916321, 7.1285223960876465, -2.3472630977630615, -1.5819813013076782, -2.22688364982605, 1.119384765625, -0.41162109375, 0.054443359375
583, 2864952458, -6.815051078796387, -0.7147269248962402, 7.128066062927246, -2.382262945175171, -1.6166480779647827, -2.2307894229888916, 1.119384765625, -0.41259765625, 0.055419921875
584, 2864969125, -6.823610782623291, -0.6930781006813049, 7.157873630523682, -2.3660502433776855, -1.6378554105758667, -2.3119945526123047, 1.116943359375, -0.41259765625, 0.054931640625
585, 2864985792, -6.791921615600586, -0.7095091938972473, 7.12675666809082, -2.5253419876098633, -1.49040949344635, -2.3867902755737305, 1.119873046875, -0.412109375, 0.056396484375
586, 2865002459, -6.8176493644714355, -0.7103155851364136, 7.105665683746338, -2.481870412826538, -1.4666343927383423, -2.3314599990844727, 1.116943359375, -0.41162109375, 0.055908203125
587, 2865019126, -6.825916290283203, -0.7378191351890564, 7.145197868347168, -2.386322259902954, -1.4904924631118774, -2.308626174926758, 1.118408203125, -0.41162109375, 0.056396484375
588, 2865035793, -6.815818786621094, -0.7239862680435181, 7.122460842132568, -2.355062246322632, -1.6907200813293457, -2.2109909057617188, 1.117919921875, -0.4111328125, 0.053955078125
589, 2865052460, -6.8196916580200195, -0.7225320935249329, 7.150787830352783, -2.372452974319458, -1.5781136751174927, -2.208723545074463, 1.117431640625, -0.412109375, 0.055419921875
590, 2865069127, -6.820141315460205, -0.713702917098999, 7.171408653259277, -2.3847858905792236, -1.6432470083236694, -2.2257182598114014, 1.119384765625, -0.41162109375, 0.055419921875
591, 2865085794, -6.817644119262695, -0.7072343230247498, 7.12448263168335, -2.4812817573547363, -1.52588951587677, -2.3903310298919678, 1.118408203125, -0.41259765625, 0.056884765625
592, 2865102461, -6.803623199462891, -0.7261163592338562, 7.1390557289123535, -2.4523396492004395, -1.5934942960739136, -2.330819845199585, 1.119384765625, -0.41162109375, 0.055419921875
593, 2865119128, -6.812366485595703, -0.7284276485443115, 7.131984233856201, -2.4392642974853516, -1.6412363052368164, -2.337965965270996, 1.117919921875, -0.413818359375, 0.056396484375
594, 2865135795, -6.810332298278809, -0.7053384780883789, 7.151788234710693, -2.3800344467163086, -1.6171345710754395, -2.2902493476867676, 1.119873046875, -0.412109375, 0.055419921875
595, 2865152462, -6.8198771476745605, -0.7170830368995667, 7.13779878616333, -2.4491121768951416, -1.6464741230010986, -2.2610890865325928, 1.117919921875, -0.413818359375, 0.052978515625
596, 2865169129, -6.808638572692871, -0.7019830346107483, 7.141046047210693, -2.494433879852295, -1.4888790845870972, -2.3558948040008545, 1.117919921875, -0.412109375, 0.052734375
597, 2865185796, -6.815658092498779, -0.710942804813385, 7.150043964385986, -2.491116762161255, -1.5368003845214844, -2.292208671569824, 1.116455078125, -0.41259765625, 0.055908203125
598, 2865202463, -6.80425500869751, -0.6865959167480469, 7.154501914978027, -2.4172329902648926, -1.5945895910263062, -2.276294708251953, 1.119873046875, -0.41259765625, 0.052978515625
599, 2865219130, -6.809686183929443, -0.6900947690010071, 7.124020576477051, -2.4468069076538086, -1.4903006553649902, -2.297267198562622, 1.118896484375, -0.41259765625, 0.054443359375
600, 2865235797, -6.805177688598633, -0.7084597945213318, 7.116860389709473, -2.499953031539917, -1.4976640939712524, -2.442964792251587, 1.118408203125, -0.413818359375, 0.055908203125
601, 2865252464, -6.796894550323486, -0.6716148257255554, 7.159882068634033, -2.397515296936035, -1.214157223701477, -2.499581813812256, 1.118896484375, -0.41259765625, 0.055419921875
602, 2865269131, -6.793569087982178, -0.7283812165260315, 7.150913715362549, -2.687053680419922, -1.3527603149414062, -2.851410150527954, 1.117431640625, -0.41064453125, 0.056396484375
603, 2865285798, -6.826329708099365, -0.7640166878700256, 7.115564346313477, -2.918259620666504, -1.0844544172286987, -2.7918736934661865, 1.117919921875, -0.40966796875, 0.0537109375
604, 2865302465, -6.804495334625244, -0.731756865978241, 7.176695346832275, -3.092630624771118, -1.005733847618103, -2.8608100414276123, 1.118408203125, -0.41015625, 0.054931640625
605, 2865319132, -6.827733993530273, -0.749476432800293, 7.1200127601623535, -2.816833972930908, -1.054462194442749, -2.6249306201934814, 1.117919921875, -0.41064453125, 0.056396484375
606, 2865335799, -6.815547466278076, -0.7290597558021545, 7.128042697906494, -2.7702956199645996, -1.334101676940918, -2.653181791305542, 1.116455078125, -0.41015625, 0.057373046875
607, 2865352466, -6.819966793060303, -0.7264944314956665, 7.155673980712891, -2.8851683139801025, -1.3191180229187012, -2.8629491329193115, 1.117919921875, -0.41064453125, 0.055419921875
608, 2865369133, -6.814144611358643, -0.7292309999465942, 7.137829780578613, -3.072653293609619, -1.2048343420028687, -2.9368674755096436, 1.117431640625, -0.4111328125, 0.055419921875
609, 2865385800, -6.816783905029297, -0.7467123866081238, 7.131455421447754, -3.167381763458252, -1.0419631004333496, -3.0372819900512695, 1.118408203125, -0.40966796875, 0.053955078125
610, 2865402467, -6.8203959465026855, -0.735335111618042, 7.113099098205566, -3.1058216094970703, -1.0623379945755005, -2.9083094596862793, 1.119384765625, -0.41015625, 0.055908203125
611, 2865419134, -6.817705154418945, -0.752724826335907, 7.112208366394043, -2.859786033630371, -1.0755285024642944, -2.7173023223876953, 1.118408203125, -0.4091796875, 0.054931640625
612, 2865435801, -6.824978828430176, -0.7627725601196289, 7.1100239753723145, -2.6520802974700928, -1.1782355308532715, -2.585653781890869, 1.119384765625, -0.408203125, 0.055908203125
613, 2865452468, -6.810684680938721, -0.7630757689476013, 7.1338276863098145, -2.6287593841552734, -1.316620945930481, -2.3871164321899414, 1.118896484375, -0.41015625, 0.05322265625
614, 2865469135, -6.807139873504639, -0.7461782693862915, 7.1190619468688965, -2.4003708362579346, -1.3494946956634521, -2.2433905601501465, 1.119873046875, -0.40966796875, 0.055419921875
615, 2865485802, -6.826622009277344, -0.7459755539894104, 7.136242389678955, -2.4524033069610596, -1.4869197607040405, -2.2454910278320312, 1.117919921875, -0.407958984375, 0.054931640625
616, 2865502469, -6.822842597961426, -0.7332830429077148, 7.126508712768555, -2.445219039916992, -1.5201267004013062, -2.256056308746338, 1.118896484375, -0.407958984375, 0.056396484375
617, 2865519136, -6.818299293518066, -0.7411309480667114, 7.119920253753662, -2.52755069732666, -1.4684911966323853, -2.2633044719696045, 1.119873046875, -0.408203125, 0.054931640625
618, 2865535803, -6.831274509429932, -0.7372744679450989, 7.122612953186035, -2.458717107772827, -1.4713600873947144, -2.295295000076294, 1.118408203125, -0.4091796875, 0.056884765625
619, 2865552470, -6.83196496963501, -0.7556223273277283, 7.125919342041016, -2.4923975467681885, -1.3467414379119873, -2.254929304122925, 1.118408203125, -0.4091796875, 0.056396484375
620, 2865569137, -6.815482139587402, -0.754084050655365, 7.127298355102539, -2.4368691444396973, -1.4083528518676758, -2.2018213272094727, 1.118408203125, -0.40869140625, 0.055419921875
621, 2865585804, -6.814432144165039, -0.7555029392242432, 7.116455078125, -2.3982067108154297, -1.5079859495162964, -2.1440773010253906, 1.120361328125, -0.4091796875, 0.055419921875
622, 2865602471, -6.818573951721191, -0.7328814268112183, 7.1043596267700195, -2.349644899368286, -1.5267984867095947, -2.097756862640381, 1.118408203125, -0.4091796875, 0.056396484375
623, 2865619138, -6.81743049621582, -0.7474376559257507, 7.12106466293335, -2.3985652923583984, -1.379743218421936, -2.2632148265838623, 1.120361328125, -0.4091796875, 0.054443359375
624, 2865635805, -6.82935905456543, -0.7193412184715271, 7.144504070281982, -2.4544010162353516, -1.5583150386810303, -2.2470920085906982, 1.118896484375, -0.41015625, 0.057373046875
625, 2865652472, -6.811676979064941, -0.7492020726203918, 7.135560035705566, -2.4783425331115723, -1.3260784149169922, -2.3399698734283447, 1.118408203125, -0.40966796875, 0.056396484375
626, 2865669139, -6.815330982208252, -0.7423710227012634, 7.120190143585205, -2.455002784729004, -1.2924937009811401, -2.32702898979187, 1.118896484375, -0.4091796875, 0.056396484375
627, 2865685806, -6.830833435058594, -0.7389601469039917, 7.116677761077881, -2.5282680988311768, -1.225222110748291, -2.403367757797241, 1.118408203125, -0.4091796875, 0.056396484375
628, 2865702473, -6.8373308181762695, -0.7571634650230408, 7.132619380950928, -2.665386199951172, -1.3195537328720093, -2.5555973052978516, 1.118896484375, -0.4091796875, 0.05810546875
629, 2865719140, -6.822697639465332, -0.7592605352401733, 7.117522716522217, -2.6747729778289795, -1.3397748470306396, -2.542022228240967, 1.116943359375, -0.408203125, 0.055908203125
630, 2865735807, -6.824953556060791, -0.7428197860717773, 7.123997688293457, -2.717622756958008, -1.2215849161148071, -2.526974678039551, 1.119873046875, -0.4091796875, 0.056884765625
631, 2865752474, -6.825107097625732, -0.7629240155220032, 7.129317760467529, -2.668510675430298, -1.2809040546417236, -2.52675724029541, 1.118408203125, -0.40966796875, 0.056884765625
632, 2865769141, -6.836244583129883, -0.7706623673439026, 7.104817867279053, -2.603402614593506, -1.3153529167175293, -2.341372013092041, 1.118896484375, -0.407470703125, 0.057373046875
633, 2865785808, -6.825024127960205, -0.7499558925628662, 7.117220401763916, -2.564049243927002, -1.2982182502746582, -2.302274465560913, 1.117919921875, -0.407958984375, 0.055419921875
634, 2865802475, -6.83104944229126, -0.7774361371994019, 7.100709915161133, -2.5224690437316895, -1.3261717557907104, -2.305901050567627, 1.116943359375, -0.407470703125, 0.056396484375
635, 2865819142, -6.829711437225342, -0.7341998815536499, 7.11216926574707, -2.526360273361206, -1.3433479070663452, -2.2392802238464355, 1.119873046875, -0.406982421875, 0.056396484375
636, 2865835809, -6.825512886047363, -0.753615140914917, 7.113633155822754, -2.4714722633361816, -1.3709967136383057, -2.200758457183838, 1.116943359375, -0.407958984375, 0.056884765625
637, 2865852476, -6.824966907501221, -0.7545720934867859, 7.148483753204346, -2.6371092796325684, -1.212018609046936, -2.231788158416748, 1.118896484375, -0.407958984375, 0.055419921875
638, 2865869143, -6.810200214385986, -0.7787801027297974, 7.102821350097656, -2.8181138038635254, -0.7798810601234436, -2.319383382797241, 1.120361328125, -0.407958984375, 0.056884765625
639, 2865885810, -6.814305305480957, -0.7731394171714783, 7.134693145751953, -2.7765700817108154, -0.6553905606269836, -2.234963893890381, 1.120361328125, -0.407958984375, 0.056884765625
640, 2865902477, -6.833315372467041, -0.7476880550384521, 7.104953765869141, -2.825554609298706, -0.6579774022102356, -2.1991446018218994, 1.116943359375, -0.408203125, 0.058349609375
641, 2865919144, -6.831898212432861, -0.7703807353973389, 7.120299339294434, -2.7905163764953613, -0.6676205992698669, -2.1335248947143555, 1.117431640625, -0.406494140625, 0.056396484375
642, 2865935811, -6.852047920227051, -0.725739598274231, 7.116756916046143, -2.6608519554138184, -0.6515742540359497, -2.0921730995178223, 1.119384765625, -0.40869140625, 0.05810546875
643, 2865952478, -6.8525238037109375, -0.762123703956604, 7.0954976081848145, -2.633395195007324, -0.8293392062187195, -2.2022695541381836, 1.119873046875, -0.408447265625, 0.05810546875
644, 2865969145, -6.849022388458252, -0.7834160327911377, 7.120657444000244, -2.532634735107422, -1.0562548637390137, -2.1684606075286865, 1.118896484375, -0.40869140625, 0.057861328125
645, 2865985812, -6.844956398010254, -0.7529394030570984, 7.088016986846924, -2.468026876449585, -0.9628710150718689, -2.1196813583374023, 1.120849609375, -0.4091796875, 0.0576171875
646, 2866002479, -6.84506368637085, -0.7363958954811096, 7.095033168792725, -2.3940317630767822, -1.1174180507659912, -2.061386823654175, 1.119873046875, -0.408203125, 0.057373046875
647, 2866019146, -6.850170612335205, -0.7420757412910461, 7.094432830810547, -2.456744432449341, -1.286474585533142, -2.1455628871917725, 1.12158203125, -0.40869140625, 0.056884765625
648, 2866035813, -6.833425045013428, -0.7372387051582336, 7.097822666168213, -2.4604074954986572, -1.3174147605895996, -2.2269089221954346, 1.118408203125, -0.407958984375, 0.06201171875
649, 2866052480, -6.832735061645508, -0.7807444930076599, 7.075412273406982, -2.6211140155792236, -1.1390608549118042, -2.248385190963745, 1.119873046875, -0.407470703125, 0.05859375
650, 2866069147, -6.853200912475586, -0.7331811785697937, 7.101653099060059, -2.6450493335723877, -1.1010003089904785, -2.3190765380859375, 1.119384765625, -0.4091796875, 0.05810546875
651, 2866085814, -6.831521511077881, -0.7889459133148193, 7.114231586456299, -2.6625173091888428, -0.9286141991615295, -2.3094844818115234, 1.118408203125, -0.407958984375, 0.05859375
652, 2866102481, -6.828651428222656, -0.7615653276443481, 7.102881908416748, -2.6564338207244873, -0.8451038002967834, -2.1879005432128906, 1.120361328125, -0.407470703125, 0.05859375
