sep=,
DeviceTag:,B,,,,,,,,,,,,,,,,,
FirmwareVersion:,2.2.1,,,,,,,,,,,,,,,,,
AppVersion:,2023.6.1,,,,,,,,,,,,,,,,,
SyncStatus:,Synced,,,,,,,,,,,,,,,,,
OutputRate:,60Hz,,,,,,,,,,,,,,,,,
FilterProfile:,General,,,,,,,,,,,,,,,,,
Measurement Mode:,Inertial Mode - Rate quantities (with mag),,,,,,,,,,,,,,,,,
StartTime:,2023-12-07 13:13:36.572 +0200,,,,,,,,,,,,,,,,,
 2023,,,,,,,,,,,,,,,,,,,

PacketCounter,SampleTimeFine,Acc_X,Acc_Y,Acc_Z,Gyr_X,Gyr_Y,Gyr_Z,Mag_X,Mag_Y,Mag_Z
1, 2855235597, -6.350428104400635, 1.8489713668823242, 7.057689189910889, -0.3466038405895233, -0.928537130355835, -1.409812569618225, 0.59912109375, 0.185791015625, -0.70361328125
2, 2855252264, -6.328280925750732, 1.8409278392791748, 7.083905220031738, -0.3589491844177246, -0.8574236035346985, -1.4332995414733887, 0.60302734375, 0.186279296875, -0.70263671875
3, 2855268931, -6.330661296844482, 1.8267091512680054, 7.070698261260986, -0.4517695903778076, -0.8812305927276611, -1.419711947441101, 0.6015625, 0.184814453125, -0.70166015625
4, 2855285598, -6.331838130950928, 1.8247557878494263, 7.083041191101074, -0.41802483797073364, -0.8688596487045288, -1.3552063703536987, 0.60302734375, 0.184814453125, -0.7021484375
5, 2855302265, -6.332354545593262, 1.8334938287734985, 7.053445816040039, -0.402068167924881, -0.8348331451416016, -1.3491746187210083, 0.6005859375, 0.184326171875, -0.703125
6, 2855318932, -6.330115795135498, 1.8568923473358154, 7.090667247772217, -0.5011253356933594, -0.958683431148529, -1.3976850509643555, 0.59912109375, 0.18310546875, -0.70263671875
7, 2855335599, -6.335076808929443, 1.8532607555389404, 7.071590900421143, -0.5875424742698669, -1.0443065166473389, -1.5248264074325562, 0.60009765625, 0.1845703125, -0.703125
8, 2855352266, -6.322878837585449, 1.827308177947998, 7.060102939605713, -0.6154219508171082, -1.0269155502319336, -1.4606921672821045, 0.60107421875, 0.186767578125, -0.70263671875
9, 2855368933, -6.319619655609131, 1.838098168373108, 7.054672718048096, -0.4916229248046875, -0.9835147857666016, -1.394368052482605, 0.6015625, 0.186279296875, -0.70361328125
10, 2855385600, -6.322624206542969, 1.8372387886047363, 7.067199230194092, -0.5278521776199341, -0.9729881286621094, -1.4298930168151855, 0.6015625, 0.186279296875, -0.70166015625
11, 2855402267, -6.324068069458008, 1.8346766233444214, 7.066713809967041, -0.4660102128982544, -0.9913139343261719, -1.334754467010498, 0.6005859375, 0.186767578125, -0.703125
12, 2855418934, -6.321082592010498, 1.8398836851119995, 7.061499118804932, -0.4690197706222534, -0.9240934252738953, -1.3321807384490967, 0.6005859375, 0.185302734375, -0.70556640625
13, 2855435601, -6.325767993927002, 1.8347344398498535, 7.07174825668335, -0.4273863434791565, -1.0141476392745972, -1.3892712593078613, 0.6025390625, 0.185302734375, -0.70263671875
14, 2855452268, -6.316817760467529, 1.8534773588180542, 7.072319984436035, -0.3528277575969696, -0.9945796132087708, -1.3390703201293945, 0.6015625, 0.186279296875, -0.700927734375
15, 2855468935, -6.310858726501465, 1.843921184539795, 7.081183910369873, -0.32132411003112793, -0.8872621655464172, -1.4037166833877563, 0.60009765625, 0.186279296875, -0.701416015625
16, 2855485602, -6.317157745361328, 1.8365411758422852, 7.090541362762451, -0.37472662329673767, -0.8855846524238586, -1.437756061553955, 0.599609375, 0.185791015625, -0.70166015625
17, 2855502269, -6.323084831237793, 1.8302905559539795, 7.084691047668457, -0.2560501992702484, -0.8979812860488892, -1.4124891757965088, 0.60107421875, 0.187744140625, -0.70263671875
18, 2855518936, -6.321976661682129, 1.8306035995483398, 7.084417819976807, -0.24743150174617767, -0.7715057134628296, -1.481067180633545, 0.60009765625, 0.185302734375, -0.703125
19, 2855535603, -6.335333824157715, 1.836897611618042, 7.100818157196045, -0.30859461426734924, -0.8330530524253845, -1.4643806219100952, 0.599609375, 0.185791015625, -0.703125
20, 2855552270, -6.337526798248291, 1.8307076692581177, 7.072814464569092, -0.269560843706131, -0.8613935708999634, -1.4126428365707397, 0.59912109375, 0.187744140625, -0.70263671875
21, 2855568937, -6.315183162689209, 1.8325576782226562, 7.081265926361084, -0.3096959590911865, -0.8373688459396362, -1.4350924491882324, 0.6005859375, 0.186767578125, -0.7041015625
22, 2855585604, -6.320324897766113, 1.835392951965332, 7.105173587799072, -0.2993997037410736, -0.88103848695755, -1.489942193031311, 0.60009765625, 0.185791015625, -0.703125
23, 2855602271, -6.327925205230713, 1.8312705755233765, 7.07915735244751, -0.36428943276405334, -0.8683217763900757, -1.440765619277954, 0.60009765625, 0.187255859375, -0.703125
24, 2855618938, -6.329374313354492, 1.8324440717697144, 7.071224689483643, -0.4007234573364258, -0.9369893670082092, -1.432172417640686, 0.599609375, 0.185302734375, -0.7041015625
25, 2855635605, -6.333144664764404, 1.8510416746139526, 7.077120304107666, -0.3443242907524109, -0.9690436720848083, -1.471756935119629, 0.6005859375, 0.186767578125, -0.7041015625
26, 2855652272, -6.313724040985107, 1.819849967956543, 7.095635890960693, -0.37838926911354065, -0.9430084824562073, -1.4137314558029175, 0.6015625, 0.184814453125, -0.701416015625
27, 2855668939, -6.320531845092773, 1.8250420093536377, 7.099772930145264, -0.32239988446235657, -0.8957913517951965, -1.4284459352493286, 0.60009765625, 0.187255859375, -0.70263671875
28, 2855685606, -6.323672771453857, 1.8318687677383423, 7.096003532409668, -0.3876994550228119, -0.8351661562919617, -1.34669029712677, 0.60107421875, 0.186767578125, -0.70458984375
29, 2855702273, -6.318329334259033, 1.8223057985305786, 7.07420539855957, -0.30216583609580994, -0.8092588186264038, -1.357549786567688, 0.60009765625, 0.186279296875, -0.703125
30, 2855718940, -6.318014144897461, 1.8311917781829834, 7.084604740142822, -0.13928185403347015, -0.8530950546264648, -1.3432581424713135, 0.6005859375, 0.185302734375, -0.7041015625
31, 2855735607, -6.333585262298584, 1.8395265340805054, 7.067647457122803, -0.2236884981393814, -0.7911633849143982, -1.3162493705749512, 0.59912109375, 0.187255859375, -0.70166015625
32, 2855752274, -6.341037273406982, 1.8184860944747925, 7.081459045410156, -0.1013878658413887, -0.7238789796829224, -1.2218666076660156, 0.6015625, 0.187255859375, -0.7041015625
33, 2855768941, -6.3208489418029785, 1.8297386169433594, 7.090545177459717, -0.04830555245280266, -0.6759063601493835, -1.276063084602356, 0.5986328125, 0.187744140625, -0.703125
34, 2855785608, -6.312180042266846, 1.8302323818206787, 7.090660572052002, 0.015835050493478775, -0.7424865365028381, -1.2126843929290771, 0.6025390625, 0.188720703125, -0.7021484375
35, 2855802275, -6.3240766525268555, 1.827386736869812, 7.073586463928223, -0.02155308425426483, -0.7964140176773071, -1.288779616355896, 0.60009765625, 0.186767578125, -0.7060546875
36, 2855818942, -6.325631618499756, 1.8374639749526978, 7.083341598510742, -0.11305446922779083, -0.7713648676872253, -1.2510011196136475, 0.60009765625, 0.186279296875, -0.7041015625
37, 2855835609, -6.3246612548828125, 1.831250786781311, 7.085477828979492, -0.10736843198537827, -0.8109748959541321, -1.2619248628616333, 0.60205078125, 0.184814453125, -0.70263671875
38, 2855852276, -6.32120418548584, 1.826015591621399, 7.084639072418213, -0.05431172624230385, -0.773324191570282, -1.290969729423523, 0.60107421875, 0.185791015625, -0.7041015625
39, 2855868943, -6.323114395141602, 1.839867115020752, 7.075854301452637, -0.11325936019420624, -0.7497093677520752, -1.2553296089172363, 0.6005859375, 0.185791015625, -0.70263671875
40, 2855885610, -6.328158855438232, 1.8318002223968506, 7.079833030700684, -0.17219418287277222, -0.8151882886886597, -1.2619889974594116, 0.6015625, 0.187255859375, -0.700927734375
41, 2855902277, -6.332923889160156, 1.8250572681427002, 7.0684075355529785, -0.08335652947425842, -0.709574282169342, -1.1884934902191162, 0.599609375, 0.186767578125, -0.70458984375
42, 2855918944, -6.338504791259766, 1.825055718421936, 7.0905866622924805, -0.04611566662788391, -0.6989578008651733, -1.2900861501693726, 0.60205078125, 0.187744140625, -0.705078125
43, 2855935611, -6.3312578201293945, 1.8385616540908813, 7.1117377281188965, -0.1551361232995987, -0.7892425656318665, -1.2902014255523682, 0.6015625, 0.187255859375, -0.7041015625
44, 2855952278, -6.332839012145996, 1.8303494453430176, 7.071413993835449, -0.12528452277183533, -0.8033167719841003, -1.3357919454574585, 0.599609375, 0.187744140625, -0.701171875
45, 2855968945, -6.316861629486084, 1.8312486410140991, 7.099038600921631, -0.06208518519997597, -0.8015750050544739, -1.237362265586853, 0.599609375, 0.186279296875, -0.701171875
46, 2855985612, -6.329134941101074, 1.8464480638504028, 7.0965423583984375, -0.10581887513399124, -0.7691750526428223, -1.2450077533721924, 0.6025390625, 0.186279296875, -0.7021484375
47, 2856002279, -6.317505359649658, 1.8306766748428345, 7.09060001373291, -0.08203748613595963, -0.730986475944519, -1.3510955572128296, 0.6025390625, 0.185791015625, -0.703125
48, 2856018946, -6.334256649017334, 1.8249540328979492, 7.089338779449463, -0.16016900539398193, -0.7680224180221558, -1.2862056493759155, 0.59912109375, 0.186767578125, -0.705078125
49, 2856035613, -6.3335862159729, 1.821330189704895, 7.081225395202637, -0.11297762393951416, -0.7884741425514221, -1.2856166362762451, 0.60205078125, 0.184814453125, -0.7021484375
50, 2856052280, -6.320200443267822, 1.846073031425476, 7.109391212463379, -0.1267700493335724, -0.8400837182998657, -1.2817362546920776, 0.6015625, 0.187744140625, -0.699951171875
51, 2856068947, -6.337919235229492, 1.8341341018676758, 7.083634853363037, -0.2286830097436905, -0.8503929376602173, -1.372328519821167, 0.59912109375, 0.187255859375, -0.701171875
52, 2856085614, -6.320810794830322, 1.839543342590332, 7.091341972351074, -0.2709823548793793, -0.7893321514129639, -1.392818570137024, 0.6005859375, 0.186767578125, -0.700439453125
53, 2856102281, -6.324982643127441, 1.8307762145996094, 7.072035789489746, -0.2726343870162964, -0.8036112785339355, -1.3227167129516602, 0.5986328125, 0.187255859375, -0.7041015625
54, 2856118948, -6.325089454650879, 1.83730149269104, 7.0644001960754395, -0.2335750013589859, -0.7996925115585327, -1.335497260093689, 0.599609375, 0.185791015625, -0.7041015625
55, 2856135615, -6.323980331420898, 1.8413468599319458, 7.09906530380249, -0.32268160581588745, -0.7813794612884521, -1.3382763862609863, 0.60205078125, 0.188232421875, -0.70361328125
56, 2856152282, -6.3160505294799805, 1.8283367156982422, 7.090105056762695, -0.32502517104148865, -0.8284299969673157, -1.3125996589660645, 0.60107421875, 0.187744140625, -0.70263671875
57, 2856168949, -6.321409702301025, 1.8268104791641235, 7.092991352081299, -0.32041487097740173, -0.7703019976615906, -1.3713423013687134, 0.6005859375, 0.187744140625, -0.7041015625
58, 2856185616, -6.319209575653076, 1.8303462266921997, 7.070429801940918, -0.30014240741729736, -0.8508283495903015, -1.436898112297058, 0.60107421875, 0.186279296875, -0.70166015625
59, 2856202283, -6.32921028137207, 1.83842933177948, 7.081561088562012, -0.22632664442062378, -0.7670491337776184, -1.407443642616272, 0.6025390625, 0.185302734375, -0.70263671875
60, 2856218950, -6.3325605392456055, 1.8209431171417236, 7.05264949798584, -0.20202018320560455, -0.7580718994140625, -1.3346010446548462, 0.59814453125, 0.186767578125, -0.70166015625
61, 2856235617, -6.329782009124756, 1.8156859874725342, 7.076145172119141, -0.19857527315616608, -0.7828522324562073, -1.357114553451538, 0.60302734375, 0.186279296875, -0.70458984375
62, 2856252284, -6.3314290046691895, 1.8262685537338257, 7.069820880889893, -0.14834874868392944, -0.7230976819992065, -1.3429505825042725, 0.599365234375, 0.188720703125, -0.70361328125
63, 2856268951, -6.324148178100586, 1.8406548500061035, 7.0935959815979, -0.1298435926437378, -0.7938913106918335, -1.2999597787857056, 0.602783203125, 0.184814453125, -0.699951171875
64, 2856285618, -6.323417663574219, 1.8289557695388794, 7.0632195472717285, -0.14030636847019196, -0.7876161932945251, -1.3381356000900269, 0.6005859375, 0.186767578125, -0.70361328125
65, 2856302285, -6.31644868850708, 1.833889126777649, 7.093993186950684, -0.27026522159576416, -0.7737212181091309, -1.410414695739746, 0.6025390625, 0.186767578125, -0.70166015625
66, 2856318952, -6.329620361328125, 1.8307815790176392, 7.107471466064453, -0.18406566977500916, -0.6814514398574829, -1.4080325365066528, 0.59912109375, 0.185791015625, -0.70361328125
67, 2856335619, -6.321220397949219, 1.8239595890045166, 7.1046528816223145, -0.21805374324321747, -0.5941377878189087, -1.3566150665283203, 0.6005859375, 0.187255859375, -0.70263671875
68, 2856352286, -6.327496528625488, 1.8311607837677002, 7.065978050231934, -0.11806174367666245, -0.6136802434921265, -1.3552831411361694, 0.60107421875, 0.187744140625, -0.703125
69, 2856368953, -6.333356857299805, 1.8268343210220337, 7.0801544189453125, -0.23189738392829895, -0.7094590067863464, -1.4522528648376465, 0.599609375, 0.187744140625, -0.70361328125
70, 2856385620, -6.324988842010498, 1.8389276266098022, 7.073235034942627, -0.16734057664871216, -0.8393665552139282, -1.3711758852005005, 0.59814453125, 0.186767578125, -0.7021484375
71, 2856402287, -6.325896263122559, 1.8153115510940552, 7.085027694702148, -0.1867421716451645, -0.8340518474578857, -1.3974800109863281, 0.6015625, 0.187744140625, -0.7041015625
72, 2856418954, -6.309015274047852, 1.8433034420013428, 7.086609840393066, -0.24821268022060394, -0.8797194361686707, -1.273322582244873, 0.6025390625, 0.186279296875, -0.70556640625
73, 2856435621, -6.312687397003174, 1.8281142711639404, 7.074533939361572, -0.15763336420059204, -0.7663447856903076, -1.3238179683685303, 0.6025390625, 0.186767578125, -0.70361328125
74, 2856452288, -6.318440914154053, 1.823643445968628, 7.078641414642334, -0.17511403560638428, -0.7861945629119873, -1.2567254304885864, 0.6005859375, 0.187744140625, -0.703125
75, 2856468955, -6.3232502937316895, 1.8428263664245605, 7.077413082122803, -0.17526772618293762, -0.7374536395072937, -1.320193886756897, 0.59912109375, 0.188232421875, -0.703125
76, 2856485622, -6.346301555633545, 1.8351949453353882, 7.072192668914795, -0.18672938644886017, -0.8735595941543579, -1.3046725988388062, 0.60205078125, 0.186767578125, -0.7021484375
77, 2856502289, -6.321678638458252, 1.811988353729248, 7.078907012939453, -0.07071666419506073, -0.8059676289558411, -1.2690837383270264, 0.60009765625, 0.186767578125, -0.70361328125
78, 2856518956, -6.345907688140869, 1.8330113887786865, 7.085369110107422, -0.11899659782648087, -0.7741310000419617, -1.2934157848358154, 0.60009765625, 0.18408203125, -0.7041015625
79, 2856535623, -6.317248344421387, 1.8516855239868164, 7.088612079620361, -0.13692550361156464, -0.8466406464576721, -1.2700697183609009, 0.6015625, 0.187744140625, -0.7041015625
80, 2856552290, -6.326467990875244, 1.8349225521087646, 7.077928066253662, -0.13333971798419952, -0.825190007686615, -1.3491618633270264, 0.60205078125, 0.184326171875, -0.70361328125
81, 2856568957, -6.329484462738037, 1.8393012285232544, 7.05919075012207, -0.1381164789199829, -0.8347818851470947, -1.2507834434509277, 0.599609375, 0.187744140625, -0.70361328125
82, 2856585624, -6.322616100311279, 1.8305211067199707, 7.0776543617248535, -0.10615182667970657, -0.8690004348754883, -1.2762936353683472, 0.6015625, 0.187744140625, -0.7021484375
83, 2856602291, -6.320485591888428, 1.8374992609024048, 7.0703535079956055, -0.04532167315483093, -0.8008707165718079, -1.2393985986709595, 0.6005859375, 0.185791015625, -0.7041015625
84, 2856618958, -6.326995372772217, 1.8275628089904785, 7.081804275512695, -0.06705404072999954, -0.791073739528656, -1.2197662591934204, 0.599609375, 0.188232421875, -0.7021484375
85, 2856635625, -6.313823223114014, 1.8371514081954956, 7.080865383148193, -0.07090876251459122, -0.7867581248283386, -1.2032719850540161, 0.60205078125, 0.187744140625, -0.7041015625
86, 2856652292, -6.328685283660889, 1.8325607776641846, 7.093384742736816, -0.03793240711092949, -0.8492146134376526, -1.1650831699371338, 0.6005859375, 0.186767578125, -0.70556640625
87, 2856668959, -6.32889986038208, 1.8408071994781494, 7.100248336791992, -0.013164927251636982, -0.7263121604919434, -1.1561188697814941, 0.59912109375, 0.187255859375, -0.7021484375
88, 2856685626, -6.318111419677734, 1.8168267011642456, 7.0811662673950195, 0.14200320839881897, -0.6299571394920349, -1.1167521476745605, 0.60009765625, 0.187255859375, -0.70263671875
89, 2856702293, -6.327466011047363, 1.8069334030151367, 7.08405876159668, 0.38962677121162415, -0.47079983353614807, -0.9321998357772827, 0.5986328125, 0.185302734375, -0.700439453125
90, 2856718960, -6.336949348449707, 1.846153974533081, 7.085632801055908, 0.35393548011779785, -0.3162783980369568, -0.8207333087921143, 0.6005859375, 0.18359375, -0.705078125
91, 2856735627, -6.338378429412842, 1.850545048713684, 7.081965446472168, 0.5453391671180725, -0.353852242231369, -0.8521344661712646, 0.60205078125, 0.187744140625, -0.701416015625
92, 2856752294, -6.343542098999023, 1.8543612957000732, 7.066532611846924, 0.27857011556625366, -0.6285356879234314, -1.056344747543335, 0.6005859375, 0.186279296875, -0.7021484375
93, 2856768961, -6.316816329956055, 1.8648322820663452, 7.079680919647217, 0.06763674318790436, -0.7100993394851685, -1.1012181043624878, 0.6015625, 0.185791015625, -0.705078125
94, 2856785628, -6.326827526092529, 1.8502484560012817, 7.089351177215576, -0.10643357783555984, -0.8776832818984985, -1.2055513858795166, 0.6005859375, 0.184814453125, -0.70263671875
95, 2856802295, -6.339834690093994, 1.835318684577942, 7.094505786895752, -0.07380299270153046, -0.9372072219848633, -1.244392991065979, 0.60107421875, 0.186767578125, -0.70263671875
96, 2856818962, -6.33603048324585, 1.8450751304626465, 7.077153205871582, -0.11163294315338135, -0.951178789138794, -1.2782785892486572, 0.6005859375, 0.185302734375, -0.70361328125
97, 2856835629, -6.330284595489502, 1.851876139640808, 7.08898401260376, -0.21149684488773346, -0.9354141354560852, -1.344807505607605, 0.60107421875, 0.185302734375, -0.700927734375
98, 2856852296, -6.329403400421143, 1.8482767343521118, 7.0640034675598145, -0.21360993385314941, -0.8682321310043335, -1.386377215385437, 0.60205078125, 0.186767578125, -0.7021484375
99, 2856868963, -6.319998264312744, 1.8569941520690918, 7.087275981903076, -0.24210403859615326, -0.7824807167053223, -1.343283772468567, 0.60302734375, 0.184814453125, -0.701416015625
100, 2856885630, -6.314352989196777, 1.8403617143630981, 7.075667381286621, -0.14896343648433685, -0.8401989936828613, -1.4260636568069458, 0.60107421875, 0.18408203125, -0.699951171875
101, 2856902297, -6.317919731140137, 1.8343441486358643, 7.071103572845459, -0.2030831128358841, -0.6715778708457947, -1.4177398681640625, 0.60107421875, 0.184814453125, -0.705078125
102, 2856918964, -6.323925018310547, 1.8497518301010132, 7.0766987800598145, -0.2016359567642212, -0.6691701412200928, -1.367295503616333, 0.599609375, 0.185791015625, -0.7021484375
103, 2856935631, -6.317519664764404, 1.8565369844436646, 7.082118988037109, -0.24435794353485107, -0.7142614126205444, -1.3625187873840332, 0.6025390625, 0.184326171875, -0.699951171875
104, 2856952298, -6.337714672088623, 1.830723524093628, 7.085832595825195, -0.23351097106933594, -0.8968542218208313, -1.506065011024475, 0.60009765625, 0.184814453125, -0.703125
105, 2856968965, -6.318287372589111, 1.8328033685684204, 7.084416389465332, -0.27002188563346863, -0.8603689670562744, -1.3614174127578735, 0.60205078125, 0.184326171875, -0.7041015625
106, 2856985632, -6.317812442779541, 1.837310552597046, 7.088703632354736, -0.2345995008945465, -0.7278873324394226, -1.3162623643875122, 0.6005859375, 0.186279296875, -0.70166015625
107, 2857002299, -6.331129550933838, 1.842321515083313, 7.057866096496582, -0.10388511419296265, -0.6878034472465515, -1.2966046333312988, 0.60009765625, 0.185791015625, -0.7021484375
108, 2857018966, -6.332990646362305, 1.832783579826355, 7.09053897857666, -0.17163071036338806, -0.691402018070221, -1.2374775409698486, 0.6015625, 0.185791015625, -0.703125
109, 2857035633, -6.330676555633545, 1.8345420360565186, 7.072189807891846, -0.13966605067253113, -0.7769612669944763, -1.2802507877349854, 0.60107421875, 0.18359375, -0.703125
110, 2857052300, -6.312860012054443, 1.844030737876892, 7.073666095733643, -0.0999535620212555, -0.7430500388145447, -1.2470438480377197, 0.6025390625, 0.183837890625, -0.701904296875
111, 2857068967, -6.332047462463379, 1.8468172550201416, 7.078607082366943, -0.038073278963565826, -0.6382044553756714, -1.2306647300720215, 0.6015625, 0.185302734375, -0.70263671875
112, 2857085634, -6.319787979125977, 1.850300669670105, 7.065271854400635, -0.07523731142282486, -0.6904416084289551, -1.2077667713165283, 0.60107421875, 0.184326171875, -0.701416015625
113, 2857102301, -6.334828853607178, 1.8305646181106567, 7.078309059143066, -0.049842316657304764, -0.6667625904083252, -1.2234545946121216, 0.6025390625, 0.185302734375, -0.700927734375
114, 2857118968, -6.334036350250244, 1.8486974239349365, 7.059566497802734, -0.03432101756334305, -0.8084520697593689, -1.116483211517334, 0.59912109375, 0.18310546875, -0.7021484375
115, 2857135635, -6.3330230712890625, 1.8462011814117432, 7.083003520965576, -0.04361843317747116, -0.8309016823768616, -1.1106947660446167, 0.6005859375, 0.187255859375, -0.70361328125
116, 2857152302, -6.325199604034424, 1.8609141111373901, 7.073568344116211, -0.06602953374385834, -0.762797474861145, -1.1615616083145142, 0.6005859375, 0.186767578125, -0.703125
117, 2857168969, -6.320803642272949, 1.8502616882324219, 7.07904052734375, -0.02711103856563568, -0.8716768622398376, -1.2087016105651855, 0.60009765625, 0.185302734375, -0.70166015625
118, 2857185636, -6.330838680267334, 1.8560044765472412, 7.099196910858154, -0.16791686415672302, -0.8796682357788086, -1.2574043273925781, 0.6015625, 0.185791015625, -0.70263671875
119, 2857202303, -6.317508220672607, 1.8532423973083496, 7.066046237945557, -0.04146696254611015, -0.8640828132629395, -1.2546765804290771, 0.6005859375, 0.184814453125, -0.7041015625
120, 2857218970, -6.33219575881958, 1.8368922472000122, 7.096045017242432, -0.1151546984910965, -0.9036160111427307, -1.248823881149292, 0.6015625, 0.184326171875, -0.70263671875
121, 2857235637, -6.323084354400635, 1.8419278860092163, 7.068040370941162, -0.11578220874071121, -0.9012596011161804, -1.2135809659957886, 0.60302734375, 0.185791015625, -0.70263671875
122, 2857252304, -6.329182147979736, 1.836805820465088, 7.070383071899414, -0.007824680767953396, -0.7351869344711304, -1.1369733810424805, 0.60107421875, 0.185791015625, -0.70166015625
123, 2857268971, -6.328989028930664, 1.8435258865356445, 7.078220844268799, 0.07994364947080612, -0.6554161906242371, -1.0884373188018799, 0.60205078125, 0.184326171875, -0.701904296875
124, 2857285638, -6.326246738433838, 1.837693214416504, 7.077110290527344, 0.20136064291000366, -0.4965021312236786, -1.075067400932312, 0.6005859375, 0.18408203125, -0.7021484375
125, 2857302305, -6.316549777984619, 1.8597443103790283, 7.0871429443359375, 0.0812498927116394, -0.6320574283599854, -1.0574074983596802, 0.60107421875, 0.184326171875, -0.70458984375
126, 2857318972, -6.31535005569458, 1.864122748374939, 7.070588111877441, 0.293720006942749, -0.4601065218448639, -0.9357087016105652, 0.6015625, 0.18408203125, -0.70361328125
127, 2857335639, -6.353948593139648, 1.8493270874023438, 7.044564723968506, 0.4954456388950348, -0.34134048223495483, -0.8580253720283508, 0.60009765625, 0.18310546875, -0.700927734375
128, 2857352306, -6.309146404266357, 1.8806790113449097, 7.077790260314941, 0.22196604311466217, -0.5341784358024597, -0.9072145223617554, 0.6005859375, 0.18310546875, -0.70263671875
129, 2857368973, -6.332663536071777, 1.8352214097976685, 7.092777252197266, 0.24190554022789001, -0.7044900059700012, -1.0619664192199707, 0.6015625, 0.18359375, -0.70361328125
130, 2857385640, -6.33024263381958, 1.8632601499557495, 7.047110080718994, 0.39067691564559937, -0.441140353679657, -1.1471415758132935, 0.602783203125, 0.18310546875, -0.700927734375
131, 2857402307, -6.332967281341553, 1.8738681077957153, 7.0600738525390625, 0.2318909615278244, -0.5647215843200684, -1.1655058860778809, 0.6025390625, 0.184326171875, -0.700927734375
132, 2857418974, -6.31513786315918, 1.890129566192627, 7.094475269317627, 0.1656949669122696, -0.6962811946868896, -1.2217768430709839, 0.6005859375, 0.18408203125, -0.700927734375
133, 2857435641, -6.327890872955322, 1.8505271673202515, 7.088437080383301, -0.020925575867295265, -0.8234354853630066, -1.2740652561187744, 0.6025390625, 0.18359375, -0.701416015625
134, 2857452308, -6.348570346832275, 1.883467674255371, 7.063465595245361, -0.0950615331530571, -0.7190253138542175, -1.380165934562683, 0.60205078125, 0.184326171875, -0.701904296875
135, 2857468975, -6.329152584075928, 1.8537275791168213, 7.073487281799316, -0.14878417551517487, -0.898327112197876, -1.3494051694869995, 0.60205078125, 0.184326171875, -0.7021484375
136, 2857485642, -6.332043170928955, 1.851167917251587, 7.065532684326172, -0.06497941166162491, -0.8769403696060181, -1.3500068187713623, 0.60400390625, 0.185302734375, -0.70263671875
137, 2857502309, -6.323215961456299, 1.857173204421997, 7.083913803100586, -0.05363299697637558, -0.7138259410858154, -1.2237491607666016, 0.6025390625, 0.18359375, -0.70263671875
138, 2857518976, -6.329244136810303, 1.867583155632019, 7.076367378234863, 0.07296418398618698, -0.7013910412788391, -1.2530118227005005, 0.6015625, 0.1826171875, -0.70361328125
139, 2857535643, -6.338963031768799, 1.8651806116104126, 7.082579612731934, 0.07998205721378326, -0.7201138138771057, -1.1531733274459839, 0.60107421875, 0.181640625, -0.7021484375
140, 2857552310, -6.336330413818359, 1.873742699623108, 7.051116466522217, -0.10881554335355759, -0.7946467995643616, -1.134821891784668, 0.6015625, 0.18310546875, -0.7021484375
141, 2857568977, -6.332955360412598, 1.8758207559585571, 7.059658050537109, -0.08124348521232605, -0.8617649078369141, -1.2343144416809082, 0.60107421875, 0.18359375, -0.701416015625
142, 2857585644, -6.342979907989502, 1.862637996673584, 7.078007698059082, -0.11856118589639664, -0.8902333378791809, -1.1981749534606934, 0.6015625, 0.18212890625, -0.700439453125
143, 2857602311, -6.333225727081299, 1.8765721321105957, 7.093785762786865, -0.06848835200071335, -0.7353149652481079, -1.2139779329299927, 0.60009765625, 0.18359375, -0.70556640625
144, 2857618978, -6.340643882751465, 1.876168966293335, 7.075020790100098, -0.058960434049367905, -0.8317852020263672, -1.2482988834381104, 0.6015625, 0.1826171875, -0.700439453125
145, 2857635645, -6.320559501647949, 1.8753856420516968, 7.077417373657227, -0.12938255071640015, -0.7417949438095093, -1.2719522714614868, 0.60302734375, 0.1826171875, -0.7041015625
146, 2857652312, -6.335488319396973, 1.8700443506240845, 7.081888198852539, -0.18040305376052856, -0.7536793351173401, -1.3030461072921753, 0.60107421875, 0.18310546875, -0.7021484375
147, 2857668979, -6.3257880210876465, 1.8774131536483765, 7.058991432189941, -0.181747704744339, -0.8124476075172424, -1.3431556224822998, 0.60009765625, 0.1845703125, -0.699951171875
148, 2857685646, -6.332475185394287, 1.866346001625061, 7.082746505737305, -0.21710602939128876, -0.8303380608558655, -1.2948243618011475, 0.60107421875, 0.1826171875, -0.700439453125
149, 2857702313, -6.326115608215332, 1.8658939599990845, 7.098498344421387, -0.2786277234554291, -0.8940623998641968, -1.336931586265564, 0.6015625, 0.184326171875, -0.700927734375
150, 2857718980, -6.319238185882568, 1.8740838766098022, 7.078332424163818, -0.2509020268917084, -0.8297746181488037, -1.4113494157791138, 0.6015625, 0.184326171875, -0.7021484375
151, 2857735647, -6.33193826675415, 1.8797060251235962, 7.07281494140625, -0.22397024929523468, -0.9091996550559998, -1.4276775121688843, 0.6005859375, 0.184326171875, -0.70166015625
152, 2857752314, -6.323601245880127, 1.8684430122375488, 7.064517021179199, -0.3683362305164337, -1.009639859199524, -1.4160364866256714, 0.60205078125, 0.18359375, -0.701904296875
153, 2857768981, -6.329682350158691, 1.873857021331787, 7.07857608795166, -0.35605496168136597, -0.8705884218215942, -1.3563333749771118, 0.6025390625, 0.18359375, -0.7021484375
154, 2857785648, -6.323874473571777, 1.8737401962280273, 7.078832626342773, -0.16274307668209076, -0.8650689721107483, -1.3662326335906982, 0.6005859375, 0.18310546875, -0.7021484375
155, 2857802315, -6.339102268218994, 1.8574166297912598, 7.085670471191406, -0.21149687469005585, -0.7948005199432373, -1.2264769077301025, 0.60205078125, 0.185302734375, -0.70166015625
156, 2857818982, -6.3289618492126465, 1.8676674365997314, 7.060183048248291, -0.15996411442756653, -0.8774526119232178, -1.259171485900879, 0.60205078125, 0.183837890625, -0.699462890625
157, 2857835649, -6.3207902908325195, 1.8731272220611572, 7.086036205291748, -0.20290380716323853, -0.7605690956115723, -1.2552528381347656, 0.6025390625, 0.18310546875, -0.703125
158, 2857852316, -6.325976848602295, 1.8654929399490356, 7.089537143707275, -0.05505449324846268, -0.7348027229309082, -1.196522831916809, 0.6025390625, 0.184814453125, -0.700439453125
159, 2857868983, -6.342680931091309, 1.8846194744110107, 7.065140724182129, -0.059818465262651443, -0.6547630429267883, -1.1198256015777588, 0.60107421875, 0.1826171875, -0.7021484375
160, 2857885650, -6.3256916999816895, 1.8844900131225586, 7.088128089904785, -0.06952567398548126, -0.8383165001869202, -1.2506425380706787, 0.60107421875, 0.1826171875, -0.701904296875
161, 2857902317, -6.339555740356445, 1.8755590915679932, 7.104660987854004, -0.09840399026870728, -0.7748097777366638, -1.2101489305496216, 0.6025390625, 0.1826171875, -0.703125
162, 2857918984, -6.328449726104736, 1.8684314489364624, 7.071990966796875, -0.11462964117527008, -0.7722358107566833, -1.2070114612579346, 0.60107421875, 0.181640625, -0.703125
163, 2857935651, -6.33150577545166, 1.8659515380859375, 7.087879657745361, -0.04900990426540375, -0.7957737445831299, -1.2245304584503174, 0.6015625, 0.18359375, -0.703125
164, 2857952318, -6.330361843109131, 1.8887571096420288, 7.078525543212891, -0.10748368501663208, -0.8254972696304321, -1.2086248397827148, 0.60107421875, 0.18408203125, -0.700927734375
165, 2857968985, -6.336918354034424, 1.8758043050765991, 7.076838493347168, -0.1859482079744339, -0.8159694671630859, -1.2813392877578735, 0.602294921875, 0.18310546875, -0.701416015625
166, 2857985652, -6.337292671203613, 1.869412899017334, 7.083265781402588, -0.20152071118354797, -0.874315083026886, -1.3531572818756104, 0.60009765625, 0.18359375, -0.700927734375
167, 2858002319, -6.3252716064453125, 1.872403621673584, 7.053966999053955, -0.14037039875984192, -0.8309656977653503, -1.2961562871932983, 0.6025390625, 0.183837890625, -0.700927734375
168, 2858018986, -6.322223663330078, 1.8785632848739624, 7.0749897956848145, -0.14548012614250183, -0.7528212070465088, -1.3004976511001587, 0.599609375, 0.18359375, -0.70361328125
169, 2858035653, -6.331717014312744, 1.8709275722503662, 7.075902938842773, -0.21070286631584167, -0.7622082829475403, -1.3172227144241333, 0.6015625, 0.18310546875, -0.705078125
170, 2858052320, -6.321506023406982, 1.891728162765503, 7.083548069000244, -0.2059517353773117, -0.8605355620384216, -1.2522433996200562, 0.5986328125, 0.18359375, -0.70361328125
171, 2858068987, -6.336061954498291, 1.8703895807266235, 7.075240612030029, -0.08418894559144974, -0.7609788775444031, -1.222174048423767, 0.6005859375, 0.1826171875, -0.7021484375
172, 2858085654, -6.3319597244262695, 1.8786687850952148, 7.061781406402588, -0.02711104042828083, -0.6013606190681458, -1.199737310409546, 0.60009765625, 0.1826171875, -0.700439453125
173, 2858102321, -6.3272857666015625, 1.888297438621521, 7.07073450088501, 0.018588416278362274, -0.6498070359230042, -1.2019528150558472, 0.60205078125, 0.18212890625, -0.702392578125
174, 2858118988, -6.32245397567749, 1.8825167417526245, 7.087606906890869, 0.12023241817951202, -0.7018264532089233, -1.1584880352020264, 0.60107421875, 0.18408203125, -0.7021484375
175, 2858135655, -6.32374382019043, 1.8791327476501465, 7.073548793792725, 0.12750642001628876, -0.6377817988395691, -1.224491834640503, 0.602783203125, 0.18115234375, -0.700439453125
176, 2858152322, -6.332493782043457, 1.8737715482711792, 7.059049606323242, 0.01721813715994358, -0.6214664578437805, -1.1681182384490967, 0.603271484375, 0.181640625, -0.702392578125
177, 2858168989, -6.333432197570801, 1.8862271308898926, 7.077913761138916, 0.01951047219336033, -0.7827368378639221, -1.1560419797897339, 0.6025390625, 0.18310546875, -0.701904296875
178, 2858185656, -6.316082954406738, 1.889464020729065, 7.071390151977539, 0.14838077127933502, -0.6467718482017517, -1.1324399709701538, 0.601806640625, 0.1826171875, -0.699462890625
179, 2858202323, -6.338187217712402, 1.8897382020950317, 7.046328544616699, 0.24795012176036835, -0.5892072916030884, -1.1202993392944336, 0.6005859375, 0.18212890625, -0.7041015625
180, 2858218990, -6.329521656036377, 1.8890533447265625, 7.046541690826416, 0.17118889093399048, -0.5430532693862915, -1.0281065702438354, 0.6015625, 0.1826171875, -0.700439453125
181, 2858235657, -6.330883026123047, 1.885096788406372, 7.0712199211120605, 0.2161775678396225, -0.5928828120231628, -1.0839550495147705, 0.60205078125, 0.18359375, -0.701904296875
182, 2858252324, -6.336069583892822, 1.892288088798523, 7.086225509643555, 0.19499588012695312, -0.6295729875564575, -1.1326960325241089, 0.601318359375, 0.1806640625, -0.701904296875
183, 2858268991, -6.328271389007568, 1.8909298181533813, 7.050610542297363, 0.02828282304108143, -0.7320237159729004, -1.1228222846984863, 0.601806640625, 0.18212890625, -0.699951171875
184, 2858285658, -6.337099552154541, 1.896933674812317, 7.067609786987305, -0.04215851053595543, -0.772607147693634, -1.2589794397354126, 0.6005859375, 0.181640625, -0.699951171875
185, 2858302325, -6.334950923919678, 1.8984814882278442, 7.063451766967773, -0.18529509007930756, -0.7866813540458679, -1.2677006721496582, 0.60107421875, 0.18359375, -0.700927734375
186, 2858318992, -6.331367492675781, 1.88405442237854, 7.058010101318359, -0.19589874148368835, -0.7986936569213867, -1.3532854318618774, 0.6015625, 0.18310546875, -0.700927734375
187, 2858335659, -6.331923007965088, 1.886922001838684, 7.0434112548828125, -0.1504361927509308, -0.7803292870521545, -1.353989839553833, 0.603759765625, 0.181640625, -0.702392578125
188, 2858352326, -6.33960485458374, 1.876501202583313, 7.093689441680908, -0.0714978575706482, -0.8822551369667053, -1.3570889234542847, 0.60205078125, 0.1826171875, -0.7041015625
189, 2858368993, -6.347571849822998, 1.8934727907180786, 7.072316646575928, -0.06866765022277832, -0.8338727355003357, -1.3649137020111084, 0.602294921875, 0.18310546875, -0.698974609375
190, 2858385660, -6.330374240875244, 1.8783504962921143, 7.057553768157959, -0.154239684343338, -0.8218347430229187, -1.3398131132125854, 0.602783203125, 0.18115234375, -0.700927734375
191, 2858402327, -6.343533515930176, 1.8975197076797485, 7.062599182128906, -0.23863352835178375, -0.770532488822937, -1.2645502090454102, 0.601318359375, 0.17919921875, -0.70263671875
192, 2858418994, -6.342644214630127, 1.8819917440414429, 7.054408550262451, -0.20769336819648743, -0.8685651421546936, -1.3504550457000732, 0.6005859375, 0.18359375, -0.700439453125
193, 2858435661, -6.321521282196045, 1.8934247493743896, 7.079496383666992, -0.19732025265693665, -0.7358145117759705, -1.3856086730957031, 0.6005859375, 0.18212890625, -0.701904296875
194, 2858452328, -6.329459190368652, 1.8794684410095215, 7.0537543296813965, -0.2565368115901947, -0.8412874937057495, -1.3550910949707031, 0.60205078125, 0.181640625, -0.7041015625
195, 2858468995, -6.333718776702881, 1.883105754852295, 7.079333305358887, -0.2571130692958832, -0.7129038572311401, -1.333922028541565, 0.602294921875, 0.1826171875, -0.699951171875
196, 2858485662, -6.330013275146484, 1.888708472251892, 7.084099292755127, -0.26281192898750305, -0.8485231399536133, -1.3212312459945679, 0.6005859375, 0.18310546875, -0.7021484375
197, 2858502329, -6.32485294342041, 1.8856227397918701, 7.067557334899902, -0.34336382150650024, -0.8778624534606934, -1.3671289682388306, 0.60205078125, 0.18359375, -0.700927734375
198, 2858518996, -6.324828624725342, 1.887856364250183, 7.051652908325195, -0.24731624126434326, -0.8229873180389404, -1.2936463356018066, 0.602783203125, 0.181640625, -0.70263671875
199, 2858535663, -6.312180995941162, 1.8775337934494019, 7.059813022613525, -0.31442153453826904, -0.8371895551681519, -1.4449150562286377, 0.6015625, 0.18115234375, -0.70361328125
200, 2858552330, -6.3322601318359375, 1.8935837745666504, 7.070242404937744, -0.17398707568645477, -0.842529833316803, -1.2783682346343994, 0.602294921875, 0.1806640625, -0.701904296875
201, 2858568997, -6.323655128479004, 1.8983643054962158, 7.053562641143799, -0.1131184846162796, -0.810872495174408, -1.3204883337020874, 0.602294921875, 0.18310546875, -0.699951171875
202, 2858585664, -6.327224254608154, 1.8971954584121704, 7.067696571350098, -0.05925498157739639, -0.8371639251708984, -1.3722258806228638, 0.6005859375, 0.181640625, -0.698974609375
203, 2858602331, -6.326662063598633, 1.8713390827178955, 7.093990802764893, -0.25370660424232483, -0.761862576007843, -1.31617271900177, 0.599609375, 0.18310546875, -0.701416015625
204, 2858618998, -6.331038475036621, 1.8742777109146118, 7.079634189605713, -0.16297361254692078, -0.7882436513900757, -1.3272629976272583, 0.6005859375, 0.18212890625, -0.701904296875
205, 2858635665, -6.343080520629883, 1.8952385187149048, 7.070888519287109, -0.08926026523113251, -0.8226926922798157, -1.3309895992279053, 0.599609375, 0.181640625, -0.70263671875
206, 2858652332, -6.333858013153076, 1.8864787817001343, 7.051323413848877, -0.1907505840063095, -0.8699225187301636, -1.3722003698349, 0.6015625, 0.18212890625, -0.70361328125
207, 2858668999, -6.34122371673584, 1.8731846809387207, 7.0729146003723145, -0.207962304353714, -0.837343156337738, -1.4074307680130005, 0.6005859375, 0.18212890625, -0.701904296875
208, 2858685666, -6.323343276977539, 1.8763777017593384, 7.083652973175049, -0.17388463020324707, -0.8369078040122986, -1.3119977712631226, 0.602783203125, 0.18115234375, -0.701904296875
209, 2858702333, -6.328372955322266, 1.881954550743103, 7.060818195343018, -0.10890520364046097, -0.6700795292854309, -1.309859275817871, 0.60009765625, 0.181640625, -0.7021484375
210, 2858719000, -6.32877779006958, 1.9005776643753052, 7.072384357452393, 0.011583344079554081, -0.5700362920761108, -1.211864948272705, 0.601806640625, 0.17919921875, -0.702880859375
211, 2858735667, -6.325124263763428, 1.884265422821045, 7.066412448883057, -0.07891272753477097, -0.754639744758606, -1.281172752380371, 0.602783203125, 0.181640625, -0.70263671875
212, 2858752334, -6.343178749084473, 1.8905941247940063, 7.068634510040283, -0.2087947279214859, -0.8811153173446655, -1.3874911069869995, 0.60107421875, 0.18359375, -0.699951171875
213, 2858769001, -6.33575963973999, 1.8868865966796875, 7.066635608673096, -0.210626021027565, -0.7900877594947815, -1.3082966804504395, 0.601806640625, 0.181640625, -0.699951171875
214, 2858785668, -6.325990676879883, 1.8798036575317383, 7.050989627838135, -0.1717715710401535, -0.8397508263587952, -1.2699288129806519, 0.601806640625, 0.181640625, -0.699951171875
215, 2858802335, -6.343091011047363, 1.9106312990188599, 7.0659894943237305, -0.18402725458145142, -0.9391536116600037, -1.2407431602478027, 0.60205078125, 0.181640625, -0.70263671875
216, 2858819002, -6.337618350982666, 1.8951523303985596, 7.071929454803467, -0.1271926760673523, -0.877119779586792, -1.3372775316238403, 0.60205078125, 0.18212890625, -0.701904296875
217, 2858835669, -6.3281073570251465, 1.8813867568969727, 7.0680999755859375, -0.18626835942268372, -0.8842400908470154, -1.31587815284729, 0.5986328125, 0.181640625, -0.70263671875
218, 2858852336, -6.327332496643066, 1.8815401792526245, 7.05057954788208, -0.12592484056949615, -0.814586341381073, -1.3114086389541626, 0.599609375, 0.181640625, -0.701416015625
219, 2858869003, -6.317719459533691, 1.8972079753875732, 7.063917636871338, -0.20476071536540985, -0.7363138794898987, -1.321743369102478, 0.601318359375, 0.18017578125, -0.701904296875
220, 2858885670, -6.341641426086426, 1.882454752922058, 7.0453290939331055, -0.10140068084001541, -0.8277512788772583, -1.2593507766723633, 0.603759765625, 0.18115234375, -0.702392578125
221, 2858902337, -6.339793682098389, 1.8802658319473267, 7.088324069976807, -0.16281993687152863, -0.7186539173126221, -1.296220302581787, 0.601806640625, 0.18017578125, -0.70263671875
222, 2858919004, -6.344318866729736, 1.8898670673370361, 7.0799455642700195, -0.2329859435558319, -0.7661398649215698, -1.3094749450683594, 0.6015625, 0.18212890625, -0.701904296875
223, 2858935671, -6.319927215576172, 1.899860143661499, 7.07472038269043, -0.14638939499855042, -0.8427346348762512, -1.3160957098007202, 0.6005859375, 0.18017578125, -0.701416015625
224, 2858952338, -6.339451313018799, 1.8712712526321411, 7.069065093994141, -0.2471369206905365, -0.8111157417297363, -1.3329490423202515, 0.6005859375, 0.18115234375, -0.701904296875
225, 2858969005, -6.34153413772583, 1.8804911375045776, 7.058631420135498, -0.229605033993721, -0.77073734998703, -1.250693678855896, 0.601806640625, 0.1796875, -0.699951171875
226, 2858985672, -6.333229064941406, 1.8844144344329834, 7.0398850440979, -0.22809387743473053, -0.7402453422546387, -1.3183878660202026, 0.6005859375, 0.18212890625, -0.701416015625
227, 2859002339, -6.3231682777404785, 1.8830066919326782, 7.050370216369629, -0.27911436557769775, -0.7382732033729553, -1.2460576295852661, 0.599609375, 0.18115234375, -0.700927734375
228, 2859019006, -6.323086261749268, 1.878416657447815, 7.063714504241943, -0.07655635476112366, -0.6945011019706726, -1.221303105354309, 0.60009765625, 0.18310546875, -0.705078125
229, 2859035673, -6.327211856842041, 1.9016156196594238, 7.063754081726074, -0.14133088290691376, -0.6865484118461609, -1.1749697923660278, 0.59912109375, 0.1806640625, -0.699951171875
230, 2859052340, -6.33718204498291, 1.9063210487365723, 7.060533046722412, -0.12705178558826447, -0.6937711238861084, -1.2715425491333008, 0.602294921875, 0.18212890625, -0.702392578125
231, 2859069007, -6.320298194885254, 1.8860257863998413, 7.072163105010986, -0.17617693543434143, -0.6695927977561951, -1.3053511381149292, 0.6015625, 0.18212890625, -0.701904296875
232, 2859085674, -6.325978755950928, 1.8805302381515503, 7.0565056800842285, -0.10603657364845276, -0.7219067811965942, -1.2371830940246582, 0.602294921875, 0.181640625, -0.700439453125
233, 2859102341, -6.358243465423584, 1.9031320810317993, 7.06859016418457, -0.06264865398406982, -0.6244375705718994, -1.271209478378296, 0.600830078125, 0.1806640625, -0.700927734375
234, 2859119008, -6.334425926208496, 1.901788353919983, 7.05042839050293, -0.09846802055835724, -0.6387038230895996, -1.2386044263839722, 0.6005859375, 0.18310546875, -0.7021484375
235, 2859135675, -6.341683387756348, 1.8987585306167603, 7.0517578125, -0.18388637900352478, -0.6987401247024536, -1.199852466583252, 0.6005859375, 0.1826171875, -0.701416015625
236, 2859152342, -6.336873531341553, 1.8671208620071411, 7.0572509765625, -0.11742141097784042, -0.7042339444160461, -1.2807245254516602, 0.60009765625, 0.18310546875, -0.700927734375
237, 2859169009, -6.3308186531066895, 1.8866404294967651, 7.050912380218506, -0.02486993372440338, -0.6122588515281677, -1.1500871181488037, 0.60107421875, 0.18310546875, -0.701416015625
238, 2859185676, -6.327040672302246, 1.8997464179992676, 7.064938545227051, -0.045039933174848557, -0.6787109375, -1.2322397232055664, 0.603271484375, 0.1806640625, -0.7041015625
239, 2859202343, -6.340987682342529, 1.901392936706543, 7.067752361297607, -0.11042914539575577, -0.6846018433570862, -1.2570968866348267, 0.6005859375, 0.1826171875, -0.701416015625
240, 2859219010, -6.33876895904541, 1.8808281421661377, 7.059206008911133, -0.004200482740998268, -0.6487696766853333, -1.3198223114013672, 0.601806640625, 0.18115234375, -0.70263671875
241, 2859235677, -6.328672885894775, 1.8917925357818604, 7.071169376373291, 0.04772286117076874, -0.6832060217857361, -1.1642380952835083, 0.601806640625, 0.181640625, -0.701416015625
242, 2859252344, -6.330209732055664, 1.8735811710357666, 7.073198318481445, 0.2043573260307312, -0.586543619632721, -1.0730695724487305, 0.601806640625, 0.1796875, -0.703125
243, 2859269011, -6.341026782989502, 1.9225167036056519, 7.055285453796387, 0.23310761153697968, -0.5071442723274231, -1.1204659938812256, 0.5986328125, 0.181640625, -0.701904296875
244, 2859285678, -6.3489508628845215, 1.8961329460144043, 7.067628860473633, 0.07688292115926743, -0.7136979103088379, -1.0784482955932617, 0.603271484375, 0.1796875, -0.699951171875
245, 2859302345, -6.325891017913818, 1.9067466259002686, 7.061490058898926, 0.32842525839805603, -0.5633513331413269, -1.1588337421417236, 0.601318359375, 0.18115234375, -0.700439453125
246, 2859319012, -6.32908296585083, 1.8914602994918823, 7.0598249435424805, 0.4841248691082001, -0.4683922231197357, -1.0784611701965332, 0.60107421875, 0.181640625, -0.7021484375
247, 2859335679, -6.324943542480469, 1.893998622894287, 7.078110694885254, 0.4315420091152191, -0.46242451667785645, -1.0562421083450317, 0.601806640625, 0.17919921875, -0.701904296875
248, 2859352346, -6.3319830894470215, 1.9361457824707031, 7.008279800415039, 0.1981334537267685, -0.6093901991844177, -1.154582142829895, 0.601318359375, 0.1796875, -0.701416015625
249, 2859369013, -6.326353549957275, 1.9100546836853027, 7.038514614105225, -0.021873245015740395, -0.675688624382019, -1.282799243927002, 0.602294921875, 0.177978515625, -0.699462890625
250, 2859385680, -6.329455852508545, 1.9027308225631714, 7.057490825653076, -0.23097531497478485, -0.8240374326705933, -1.4114519357681274, 0.600341796875, 0.1796875, -0.698974609375
251, 2859402347, -6.333917617797852, 1.9129939079284668, 7.028549671173096, -0.356605589389801, -0.9415996670722961, -1.4825655221939087, 0.60009765625, 0.178955078125, -0.701904296875
252, 2859419014, -6.346056938171387, 1.8917810916900635, 7.049856185913086, -0.480711966753006, -0.902399480342865, -1.4302388429641724, 0.601806640625, 0.1806640625, -0.701904296875
253, 2859435681, -6.335460662841797, 1.9046261310577393, 7.081489086151123, -0.46528029441833496, -0.9671226739883423, -1.504797339439392, 0.6015625, 0.1796875, -0.7060546875
254, 2859452348, -6.340900897979736, 1.9015151262283325, 7.059119701385498, -0.6067391633987427, -0.9963723421096802, -1.5598516464233398, 0.604248046875, 0.1796875, -0.701904296875
255, 2859469015, -6.3245391845703125, 1.8940366506576538, 7.072050094604492, -0.49990859627723694, -1.0296686887741089, -1.5416793823242188, 0.60009765625, 0.18115234375, -0.701416015625
256, 2859485682, -6.337343215942383, 1.8984750509262085, 7.053516387939453, -0.56782066822052, -1.0489935874938965, -1.4771738052368164, 0.602783203125, 0.17919921875, -0.701416015625
257, 2859502349, -6.331968784332275, 1.892918348312378, 7.065969944000244, -0.44966936111450195, -1.1049445867538452, -1.5380425453186035, 0.601806640625, 0.1796875, -0.698974609375
258, 2859519016, -6.341402530670166, 1.8994306325912476, 7.076352119445801, -0.4229040741920471, -0.9125036001205444, -1.4304949045181274, 0.599609375, 0.18212890625, -0.701904296875
259, 2859535683, -6.3504438400268555, 1.9137879610061646, 7.064751148223877, -0.48191580176353455, -0.8967390656471252, -1.4347851276397705, 0.603271484375, 0.18212890625, -0.703125
260, 2859552350, -6.336921215057373, 1.9049283266067505, 7.056245803833008, -0.38355016708374023, -0.9421375393867493, -1.424437403678894, 0.60009765625, 0.1796875, -0.700927734375
261, 2859569017, -6.335855960845947, 1.8939824104309082, 7.064090728759766, -0.3424418270587921, -0.7895883321762085, -1.5057450532913208, 0.603759765625, 0.1796875, -0.701416015625
262, 2859585684, -6.326266765594482, 1.9003050327301025, 7.049635410308838, -0.2544749975204468, -0.8107315897941589, -1.3781040906906128, 0.602294921875, 0.18017578125, -0.701904296875
263, 2859602351, -6.332732677459717, 1.9008586406707764, 7.05074405670166, -0.2781795263290405, -0.825241208076477, -1.3252137899398804, 0.601318359375, 0.1806640625, -0.702392578125
264, 2859619018, -6.340073108673096, 1.8966165781021118, 7.061844825744629, -0.21903982758522034, -0.7624260187149048, -1.3383147716522217, 0.6005859375, 0.1796875, -0.701416015625
265, 2859635685, -6.323965072631836, 1.8887133598327637, 7.055906772613525, -0.19048166275024414, -0.7421792149543762, -1.2847844362258911, 0.599609375, 0.18115234375, -0.7041015625
266, 2859652352, -6.333505153656006, 1.8960866928100586, 7.05326509475708, -0.14927081763744354, -0.790446400642395, -1.3317707777023315, 0.6015625, 0.18017578125, -0.703125
267, 2859669019, -6.329320430755615, 1.88995361328125, 7.085504055023193, -0.21263661980628967, -0.7729144096374512, -1.3644782304763794, 0.60107421875, 0.181640625, -0.700927734375
268, 2859685686, -6.326305389404297, 1.8890612125396729, 7.0828375816345215, -0.13191822171211243, -0.7499911189079285, -1.26543390750885, 0.60205078125, 0.18310546875, -0.700439453125
269, 2859702353, -6.33764123916626, 1.882007122039795, 7.0681939125061035, -0.05677054449915886, -0.6885461211204529, -1.255688190460205, 0.60009765625, 0.18115234375, -0.701416015625
270, 2859719020, -6.337213516235352, 1.888176441192627, 7.058115005493164, -0.23860791325569153, -0.7363138794898987, -1.2466983795166016, 0.601318359375, 0.1796875, -0.701904296875
271, 2859735687, -6.336981296539307, 1.886122703552246, 7.0499114990234375, -0.12340199202299118, -0.7318316698074341, -1.288382887840271, 0.6005859375, 0.181640625, -0.700439453125
272, 2859752354, -6.343188762664795, 1.8918243646621704, 7.061997890472412, -0.16896697878837585, -0.8041235208511353, -1.2610541582107544, 0.601318359375, 0.178955078125, -0.700927734375
273, 2859769021, -6.329926013946533, 1.8943946361541748, 7.0502028465271, -0.03301476687192917, -0.8109749555587769, -1.2768571376800537, 0.6015625, 0.18212890625, -0.70263671875
274, 2859785688, -6.33453893661499, 1.9030553102493286, 7.060268402099609, -0.08395842462778091, -0.8098350763320923, -1.2663815021514893, 0.6015625, 0.181640625, -0.701904296875
275, 2859802355, -6.316863536834717, 1.8902053833007812, 7.065206527709961, -0.11236290633678436, -0.7643982172012329, -1.2673676013946533, 0.603271484375, 0.1806640625, -0.702392578125
276, 2859819022, -6.3264641761779785, 1.8875834941864014, 7.082398891448975, -0.09595798701047897, -0.7493892312049866, -1.2720675468444824, 0.601806640625, 0.1796875, -0.702392578125
277, 2859835689, -6.323102951049805, 1.8991798162460327, 7.0672712326049805, -0.05911410599946976, -0.7361345887184143, -1.1254860162734985, 0.602294921875, 0.1806640625, -0.701904296875
278, 2859852356, -6.324803829193115, 1.9031379222869873, 7.0611419677734375, -0.0656837597489357, -0.7726326584815979, -1.2295119762420654, 0.60107421875, 0.181640625, -0.7021484375
279, 2859869023, -6.3237762451171875, 1.9045789241790771, 7.060122966766357, -0.07814434915781021, -0.7015958428382874, -1.2278984785079956, 0.599609375, 0.1806640625, -0.70263671875
280, 2859885690, -6.3303327560424805, 1.9035446643829346, 7.045245170593262, -0.20773181319236755, -0.7570858001708984, -1.290777564048767, 0.604736328125, 0.1787109375, -0.702392578125
281, 2859902357, -6.330922603607178, 1.9053544998168945, 7.036290168762207, -0.1417791098356247, -0.7438825368881226, -1.3164671659469604, 0.602783203125, 0.1796875, -0.702392578125
282, 2859919024, -6.329291820526123, 1.8951585292816162, 7.05428409576416, -0.1319822371006012, -0.8423760533332825, -1.309154748916626, 0.60107421875, 0.18017578125, -0.70458984375
283, 2859935691, -6.328529357910156, 1.904373288154602, 7.0552144050598145, -0.23585455119609833, -0.8608940243721008, -1.364170789718628, 0.602783203125, 0.17919921875, -0.702880859375
284, 2859952358, -6.336836338043213, 1.882725477218628, 7.063690185546875, -0.17680446803569794, -0.7861818671226501, -1.3610973358154297, 0.602294921875, 0.181640625, -0.70361328125
285, 2859969025, -6.317331790924072, 1.8974790573120117, 7.067588806152344, -0.1368742734193802, -0.6435446739196777, -1.2550864219665527, 0.601806640625, 0.1806640625, -0.70361328125
286, 2859985692, -6.327953338623047, 1.909017562866211, 7.073484420776367, -0.2295026034116745, -0.7531798481941223, -1.318170428276062, 0.6015625, 0.18017578125, -0.703125
287, 2860002359, -6.335549354553223, 1.9036825895309448, 7.0520524978637695, -0.21915505826473236, -0.7519632577896118, -1.3408375978469849, 0.602294921875, 0.1806640625, -0.702392578125
288, 2860019026, -6.337722301483154, 1.9157774448394775, 7.077644348144531, -0.3910803198814392, -0.8677710890769958, -1.5027740001678467, 0.6005859375, 0.1796875, -0.701904296875
289, 2860035693, -6.329769611358643, 1.8931705951690674, 7.091086387634277, -0.36640244722366333, -0.9852694272994995, -1.457529067993164, 0.602783203125, 0.1796875, -0.702392578125
290, 2860052360, -6.3447442054748535, 1.8993045091629028, 7.065798759460449, -0.3318253457546234, -0.9309320449829102, -1.3923832178115845, 0.6015625, 0.18115234375, -0.70458984375
291, 2860069027, -6.328863620758057, 1.8956513404846191, 7.040207386016846, -0.37918320298194885, -0.8039057850837708, -1.380358099937439, 0.6015625, 0.1806640625, -0.703125
292, 2860085694, -6.326879501342773, 1.909728765487671, 7.037787914276123, -0.31992822885513306, -0.9040515422821045, -1.358459234237671, 0.603759765625, 0.18017578125, -0.702392578125
293, 2860102361, -6.323766708374023, 1.89277184009552, 7.063260555267334, -0.36428946256637573, -0.8744304180145264, -1.4733067750930786, 0.603271484375, 0.1826171875, -0.701416015625
294, 2860119028, -6.321649551391602, 1.9172778129577637, 7.068562030792236, -0.47035154700279236, -0.9705419540405273, -1.4844862222671509, 0.601318359375, 0.181640625, -0.700927734375
295, 2860135695, -6.317004680633545, 1.8962101936340332, 7.073866844177246, -0.48810112476348877, -0.8859175443649292, -1.5258764028549194, 0.6005859375, 0.18017578125, -0.702392578125
296, 2860152362, -6.324795722961426, 1.9031620025634766, 7.04922342300415, -0.42501717805862427, -0.8796554207801819, -1.4673516750335693, 0.6025390625, 0.18212890625, -0.703125
297, 2860169029, -6.3285393714904785, 1.8957889080047607, 7.051402568817139, -0.3270229399204254, -0.806262195110321, -1.458259105682373, 0.6015625, 0.18115234375, -0.701904296875
298, 2860185696, -6.338228225708008, 1.8803752660751343, 7.077099323272705, -0.2981446087360382, -0.8390336036682129, -1.4486799240112305, 0.6015625, 0.1826171875, -0.7041015625
299, 2860202363, -6.326313018798828, 1.8815912008285522, 7.071049213409424, -0.2195136547088623, -0.794173002243042, -1.368576169013977, 0.602294921875, 0.18310546875, -0.700927734375
300, 2860219030, -6.345345973968506, 1.8980368375778198, 7.0489583015441895, -0.16663621366024017, -0.7939552068710327, -1.3253803253173828, 0.601318359375, 0.1806640625, -0.700927734375
301, 2860235697, -6.331825256347656, 1.8807600736618042, 7.065610408782959, -0.22772251069545746, -0.7392208576202393, -1.4099278450012207, 0.6005859375, 0.17919921875, -0.702392578125
302, 2860252364, -6.329904079437256, 1.8908742666244507, 7.057316780090332, -0.35983285307884216, -0.8286605477333069, -1.4183673858642578, 0.602294921875, 0.18115234375, -0.700927734375
303, 2860269031, -6.335813045501709, 1.8869014978408813, 7.069760322570801, -0.33715277910232544, -0.8304533958435059, -1.5125964879989624, 0.601806640625, 0.181640625, -0.701904296875
304, 2860285698, -6.339292526245117, 1.9016435146331787, 7.084219455718994, -0.3607677221298218, -0.8325408101081848, -1.4441466331481934, 0.602294921875, 0.18310546875, -0.701416015625
305, 2860302365, -6.321519374847412, 1.8940190076828003, 7.061668872833252, -0.39091378450393677, -0.9333651065826416, -1.4601799249649048, 0.60009765625, 0.181640625, -0.699951171875
306, 2860319032, -6.332916259765625, 1.888758659362793, 7.067180156707764, -0.28699031472206116, -0.8288910388946533, -1.3956873416900635, 0.60107421875, 0.181640625, -0.701904296875
307, 2860335699, -6.336599349975586, 1.8925000429153442, 7.055536270141602, -0.13684865832328796, -0.7973490357398987, -1.3626469373703003, 0.603759765625, 0.18310546875, -0.700439453125
308, 2860352366, -6.330284595489502, 1.8845003843307495, 7.066172122955322, -0.12569431960582733, -0.7985783219337463, -1.4030636548995972, 0.602783203125, 0.18115234375, -0.701904296875
309, 2860369033, -6.324374675750732, 1.8797792196273804, 7.0523681640625, -0.1619618982076645, -0.7694311141967773, -1.322614312171936, 0.601806640625, 0.181640625, -0.700927734375
310, 2860385700, -6.323174476623535, 1.8871959447860718, 7.035237789154053, -0.2135075032711029, -0.8073891997337341, -1.4677870273590088, 0.602783203125, 0.18212890625, -0.700439453125
311, 2860402367, -6.332642078399658, 1.8865880966186523, 7.078248023986816, -0.18835578858852386, -0.807991087436676, -1.3338710069656372, 0.600341796875, 0.1796875, -0.700927734375
312, 2860419034, -6.328323841094971, 1.8768168687820435, 7.052286624908447, -0.1629863977432251, -0.8276999592781067, -1.3104609251022339, 0.602783203125, 0.17919921875, -0.700927734375
313, 2860435701, -6.339648246765137, 1.887992024421692, 7.048244953155518, -0.16226927936077118, -0.7990010380744934, -1.259901523590088, 0.601806640625, 0.1806640625, -0.70263671875
314, 2860452368, -6.348750591278076, 1.895154595375061, 7.036380290985107, -0.12200609594583511, -0.7758599519729614, -1.153019666671753, 0.602783203125, 0.1806640625, -0.70263671875
315, 2860469035, -6.324143886566162, 1.9021371603012085, 7.0599751472473145, -0.13082967698574066, -0.8719202876091003, -1.2235826253890991, 0.6015625, 0.18359375, -0.7021484375
316, 2860485702, -6.336734294891357, 1.8970918655395508, 7.0648274421691895, -0.12408072501420975, -0.7950565814971924, -1.2459297180175781, 0.6005859375, 0.18212890625, -0.703125
317, 2860502369, -6.331188678741455, 1.9003151655197144, 7.0739426612854, -0.15211381018161774, -0.7470583915710449, -1.3037118911743164, 0.6005859375, 0.18017578125, -0.700927734375
318, 2860519036, -6.342991352081299, 1.892753005027771, 7.077544212341309, -0.2423730045557022, -0.8602794408798218, -1.242843508720398, 0.6005859375, 0.1806640625, -0.701416015625
319, 2860535703, -6.328425884246826, 1.8836266994476318, 7.078885555267334, -0.2228688895702362, -0.888338029384613, -1.4540841579437256, 0.60009765625, 0.18212890625, -0.700927734375
320, 2860552370, -6.326991081237793, 1.8798902034759521, 7.073694705963135, -0.20866666734218597, -0.8798859715461731, -1.3304773569107056, 0.601318359375, 0.1806640625, -0.700927734375
321, 2860569037, -6.332435131072998, 1.8774240016937256, 7.061520099639893, -0.10096526145935059, -0.7569449543952942, -1.2557010650634766, 0.601806640625, 0.181640625, -0.701904296875
322, 2860585704, -6.330695629119873, 1.9030213356018066, 7.0554914474487305, -0.08237043768167496, -0.7950950264930725, -1.2573915719985962, 0.60205078125, 0.18310546875, -0.700439453125
323, 2860602371, -6.328838348388672, 1.898316740989685, 7.0640482902526855, -0.04034000262618065, -0.8824086785316467, -1.319015622138977, 0.601318359375, 0.1796875, -0.699462890625
324, 2860619038, -6.331612586975098, 1.8988620042800903, 7.036843776702881, -0.22745360434055328, -0.8591139912605286, -1.3504809141159058, 0.6005859375, 0.18017578125, -0.701416015625
325, 2860635705, -6.327090740203857, 1.8857589960098267, 7.037217617034912, -0.28821972012519836, -0.8543243408203125, -1.383495569229126, 0.6015625, 0.18212890625, -0.700439453125
326, 2860652372, -6.3460259437561035, 1.8823379278182983, 7.090359210968018, -0.2692022919654846, -0.9431876540184021, -1.4162927865982056, 0.602294921875, 0.18115234375, -0.70263671875
327, 2860669039, -6.337373733520508, 1.8978443145751953, 7.054173469543457, -0.36504504084587097, -0.911005437374115, -1.372917652130127, 0.6005859375, 0.1826171875, -0.701416015625
328, 2860685706, -6.33642053604126, 1.8930364847183228, 7.059566020965576, -0.33694788813591003, -0.8898236751556396, -1.399093747138977, 0.601806640625, 0.18115234375, -0.702392578125
329, 2860702373, -6.335482597351074, 1.9045740365982056, 7.052412509918213, -0.41774314641952515, -0.92983078956604, -1.42014741897583, 0.603271484375, 0.18115234375, -0.700927734375
330, 2860719040, -6.333559989929199, 1.9048006534576416, 7.070037841796875, -0.3955753743648529, -0.900516927242279, -1.3895403146743774, 0.60107421875, 0.18115234375, -0.702392578125
331, 2860735707, -6.324170112609863, 1.9019132852554321, 7.066502571105957, -0.3629959523677826, -0.8302099704742432, -1.4552239179611206, 0.602783203125, 0.18212890625, -0.70361328125
332, 2860752374, -6.331742286682129, 1.892584204673767, 7.084158420562744, -0.42500436305999756, -0.8083112239837646, -1.4553265571594238, 0.60107421875, 0.181640625, -0.701416015625
333, 2860769041, -6.322908878326416, 1.9007554054260254, 7.071706295013428, -0.4138883650302887, -0.9286651611328125, -1.5025817155838013, 0.60205078125, 0.18212890625, -0.702392578125
334, 2860785708, -6.325186252593994, 1.8724634647369385, 7.05852746963501, -0.26771676540374756, -0.801908016204834, -1.4945906400680542, 0.60205078125, 0.1826171875, -0.7021484375
335, 2860802375, -6.327742576599121, 1.8870924711227417, 7.030289173126221, -0.4096239507198334, -0.8344106674194336, -1.5051432847976685, 0.60205078125, 0.18310546875, -0.701416015625
336, 2860819042, -6.330758571624756, 1.8808330297470093, 7.084000110626221, -0.4297298192977905, -0.7555361390113831, -1.6036876440048218, 0.60107421875, 0.18212890625, -0.701416015625
337, 2860835709, -6.339804172515869, 1.8743903636932373, 7.075422763824463, -0.39462772011756897, -0.7037602066993713, -1.487816333770752, 0.60205078125, 0.18212890625, -0.702392578125
338, 2860852376, -6.327626705169678, 1.8733173608779907, 7.081709384918213, -0.29161337018013, -0.8406727910041809, -1.4912097454071045, 0.60107421875, 0.1826171875, -0.701904296875
339, 2860869043, -6.339434623718262, 1.8616596460342407, 7.066644191741943, -0.36387962102890015, -0.6976515054702759, -1.5064492225646973, 0.60009765625, 0.1806640625, -0.703125
340, 2860885710, -6.331099987030029, 1.8846995830535889, 7.056412220001221, -0.27659156918525696, -0.7136979699134827, -1.3902190923690796, 0.60009765625, 0.18212890625, -0.703125
341, 2860902377, -6.324037075042725, 1.8920108079910278, 7.088220119476318, -0.24189910292625427, -0.6072642803192139, -1.3186184167861938, 0.599609375, 0.1845703125, -0.701416015625
342, 2860919044, -6.332404613494873, 1.8622370958328247, 7.078726291656494, -0.2135843187570572, -0.6359378099441528, -1.2632567882537842, 0.601806640625, 0.1796875, -0.700927734375
343, 2860935711, -6.327624320983887, 1.8574268817901611, 7.078592300415039, -0.2008419632911682, -0.8365363478660583, -1.2074979543685913, 0.602294921875, 0.181640625, -0.701416015625
344, 2860952378, -6.329914093017578, 1.8709601163864136, 7.079430103302002, -0.14834874868392944, -0.8422223925590515, -1.2417165040969849, 0.6015625, 0.181640625, -0.702392578125
345, 2860969045, -6.3382439613342285, 1.9069087505340576, 7.062137603759766, -0.20158475637435913, -0.8581278324127197, -1.2599397897720337, 0.5986328125, 0.18017578125, -0.70263671875
346, 2860985712, -6.332611560821533, 1.8736518621444702, 7.064128398895264, -0.14649184048175812, -0.9961035847663879, -1.1779152154922485, 0.60205078125, 0.18212890625, -0.703125
347, 2861002379, -6.331934452056885, 1.8766367435455322, 7.07297420501709, -0.06754069030284882, -0.9732570648193359, -1.1515727043151855, 0.59912109375, 0.18212890625, -0.7021484375
348, 2861019046, -6.333892822265625, 1.889219045639038, 7.082569122314453, -0.06154731661081314, -0.8256766200065613, -1.0590722560882568, 0.601318359375, 0.18212890625, -0.698486328125
349, 2861035713, -6.324679851531982, 1.8847081661224365, 7.047366142272949, -0.05116136744618416, -0.7444843053817749, -1.137216567993164, 0.5986328125, 0.181640625, -0.70361328125
350, 2861052380, -6.3263750076293945, 1.9027554988861084, 7.07308292388916, -0.024396097287535667, -0.6492306590080261, -1.194947600364685, 0.6015625, 0.18359375, -0.700927734375
351, 2861069047, -6.317215919494629, 1.8937100172042847, 7.0796051025390625, -0.17081108689308167, -0.7847347259521484, -1.2689940929412842, 0.602783203125, 0.181640625, -0.702392578125
352, 2861085714, -6.323269367218018, 1.8816912174224854, 7.060129165649414, -0.23977328836917877, -0.742396891117096, -1.32778799533844, 0.60205078125, 0.1826171875, -0.703125
353, 2861102381, -6.32655143737793, 1.8544219732284546, 7.0573577880859375, -0.0439641997218132, -0.7855671644210815, -1.2166287899017334, 0.60302734375, 0.18310546875, -0.703125
354, 2861119048, -6.3248419761657715, 1.8652554750442505, 7.059027194976807, 0.2525091767311096, -0.5048646926879883, -0.8400068879127502, 0.602783203125, 0.18017578125, -0.701904296875
355, 2861135715, -6.331875801086426, 1.8979007005691528, 7.0790228843688965, 0.2734988033771515, -0.42741188406944275, -0.9088410139083862, 0.60009765625, 0.18310546875, -0.7021484375
356, 2861152382, -6.323909282684326, 1.8925702571868896, 7.06357479095459, 0.3127886652946472, -0.4034256041049957, -0.904102623462677, 0.60009765625, 0.1806640625, -0.701416015625
357, 2861169049, -6.3263750076293945, 1.89093017578125, 7.078999996185303, 0.36890608072280884, -0.403387188911438, -0.929523229598999, 0.60107421875, 0.1826171875, -0.7021484375
358, 2861185716, -6.318604469299316, 1.8588173389434814, 7.063848495483398, 0.4220140278339386, -0.33347731828689575, -0.8449757099151611, 0.6015625, 0.181640625, -0.701904296875
359, 2861202383, -6.306831359863281, 1.877984642982483, 7.061618804931641, 0.7508554458618164, -0.2723526358604431, -0.30891475081443787, 0.60107421875, 0.181640625, -0.701416015625
360, 2861219050, -6.3048858642578125, 1.8771262168884277, 7.062804222106934, 1.599173665046692, 0.036927107721567154, 0.21246373653411865, 0.60107421875, 0.18017578125, -0.702392578125
361, 2861235717, -6.3646745681762695, 1.8564910888671875, 7.096620559692383, 4.835108280181885, 2.463423252105713, 1.7054537534713745, 0.601806640625, 0.17919921875, -0.703125
362, 2861252384, -6.373148441314697, 1.7889007329940796, 7.079606533050537, 8.353156089782715, 3.822126865386963, 3.792095422744751, 0.603271484375, 0.176025390625, -0.698974609375
363, 2861269051, -6.360964298248291, 1.821242094039917, 7.088020324707031, 7.846958637237549, 2.539877414703369, 4.8506178855896, 0.60302734375, 0.174560546875, -0.69677734375
364, 2861285718, -6.33122444152832, 1.9939937591552734, 7.000298023223877, 6.613116264343262, 1.594909429550171, 4.903660297393799, 0.6025390625, 0.17041015625, -0.697265625
365, 2861302385, -6.362465858459473, 1.9862245321273804, 7.005270481109619, 6.38718843460083, 1.2612273693084717, 5.097153186798096, 0.60302734375, 0.169921875, -0.69677734375
366, 2861319052, -6.32526159286499, 2.1508188247680664, 7.02603816986084, 5.995223045349121, 1.2421329021453857, 4.611752510070801, 0.6044921875, 0.167236328125, -0.69580078125
367, 2861335719, -6.373665809631348, 2.016047477722168, 7.015145301818848, 5.904657363891602, 1.6325730085372925, 4.579647541046143, 0.60498046875, 0.164794921875, -0.69775390625
368, 2861352386, -6.400087833404541, 1.984743595123291, 7.053201675415039, 5.314104080200195, 2.178302526473999, 4.291196823120117, 0.604736328125, 0.162109375, -0.69580078125
369, 2861369053, -6.406847953796387, 2.0701165199279785, 7.014680862426758, 7.167722702026367, 2.057974338531494, 5.39821720123291, 0.605712890625, 0.15966796875, -0.694580078125
370, 2861385720, -6.3844404220581055, 2.1466877460479736, 6.971033096313477, 7.5390543937683105, 1.588186264038086, 5.58866024017334, 0.604736328125, 0.1572265625, -0.692626953125
371, 2861402387, -6.393187999725342, 2.2045130729675293, 6.999570369720459, 6.862981796264648, 1.3726551532745361, 5.396052360534668, 0.60400390625, 0.153564453125, -0.692626953125
372, 2861419054, -6.434123992919922, 2.1480560302734375, 7.019932746887207, 7.581200122833252, 1.317690372467041, 5.573919773101807, 0.6044921875, 0.151611328125, -0.692626953125
373, 2861435721, -6.399630069732666, 2.23591685295105, 7.025764465332031, 8.053051948547363, 0.9346141815185547, 5.508492946624756, 0.6044921875, 0.14697265625, -0.69091796875
374, 2861452388, -6.430933952331543, 2.2814126014709473, 6.990118980407715, 8.38669490814209, 0.5938370227813721, 5.287467956542969, 0.603515625, 0.146728515625, -0.68994140625
375, 2861469055, -6.414116859436035, 2.384610414505005, 6.958870887756348, 8.941709518432617, -1.0944055318832397, 5.197682857513428, 0.6044921875, 0.144287109375, -0.6923828125
376, 2861485722, -6.232446193695068, 2.5869386196136475, 6.879726409912109, 7.105072975158691, -2.175107479095459, 2.965073823928833, 0.603759765625, 0.141357421875, -0.69091796875
377, 2861502389, -6.199151039123535, 2.6604161262512207, 6.857885360717773, 4.088754177093506, -1.5383243560791016, -0.625628650188446, 0.603759765625, 0.140625, -0.69140625
378, 2861519056, -6.249815464019775, 2.4603829383850098, 6.971169471740723, 1.4694325923919678, 0.3546270430088043, -3.405900239944458, 0.603515625, 0.1416015625, -0.69140625
379, 2861535723, -6.463001728057861, 1.0994879007339478, 7.725580215454102, 4.283411026000977, 5.5399065017700195, -0.1399478167295456, 0.604736328125, 0.14111328125, -0.687255859375
380, 2861552390, -6.623419284820557, 0.03248145803809166, 8.465682029724121, 14.891033172607422, 15.417323112487793, 13.611894607543945, 0.606201171875, 0.1376953125, -0.685791015625
381, 2861569057, -5.31652307510376, -0.8722737431526184, 9.508878707885742, 40.48061752319336, 41.82130813598633, 35.42219161987305, 0.610595703125, 0.1259765625, -0.677978515625
382, 2861585724, -2.0047435760498047, 1.95827054977417, 13.95361328125, 49.03737258911133, 90.42849731445312, 63.78264236450195, 0.617919921875, 0.103515625, -0.6552734375
383, 2861602391, 9.508585929870605, -6.51712703704834, 28.745439529418945, -114.72147369384766, 93.44200134277344, 78.70318603515625, 0.626953125, 0.094482421875, -0.634765625
384, 2861619058, 4.602597713470459, -18.59085464477539, 35.93328857421875, -121.9046401977539, 26.994544982910156, 46.12114715576172, 0.631591796875, 0.092529296875, -0.628662109375
385, 2861635725, -2.6879334449768066, -20.7358341217041, 38.958683013916016, -42.75385665893555, -121.64945220947266, -46.40838623046875, 0.623046875, 0.10205078125, -0.652099609375
386, 2861652392, -3.7340197563171387, -17.39065933227539, 34.062862396240234, 4.917285442352295, -249.02639770507812, -138.49533081054688, 0.59814453125, 0.122802734375, -0.70458984375
387, 2861669059, -7.153605937957764, -11.790356636047363, 28.937833786010742, 8.836729049682617, -305.6528625488281, -195.7838134765625, 0.562744140625, 0.156982421875, -0.77099609375
388, 2861685726, -9.248370170593262, -5.926929950714111, 25.18004608154297, -6.741588115692139, -313.9193420410156, -205.65673828125, 0.518798828125, 0.195556640625, -0.838134765625
389, 2861702393, -10.79963493347168, -3.277005195617676, 22.335908889770508, -20.49346923828125, -293.5014343261719, -199.77525329589844, 0.468017578125, 0.2353515625, -0.903076171875
390, 2861719060, -14.521710395812988, -1.0835050344467163, 20.8840274810791, -4.961678504943848, -273.26251220703125, -191.25474548339844, 0.4140625, 0.267822265625, -0.95947265625
391, 2861735727, -17.18540382385254, 2.096747875213623, 19.589651107788086, 20.524166107177734, -278.5419616699219, -167.75770568847656, 0.353759765625, 0.29296875, -1.01123046875
392, 2861752394, -15.635828018188477, 5.670843124389648, 15.908164978027344, 13.964730262756348, -287.6743469238281, -129.11636352539062, 0.28662109375, 0.304931640625, -1.057861328125
393, 2861769061, -13.947707176208496, 7.866466999053955, 12.683795928955078, -30.154951095581055, -273.47015380859375, -95.00566864013672, 0.21484375, 0.32275390625, -1.099365234375
394, 2861785728, -13.280828475952148, 7.501605987548828, 10.317421913146973, -64.67333984375, -247.5745849609375, -66.0501708984375, 0.146240234375, 0.346435546875, -1.128173828125
395, 2861802395, -13.608012199401855, 6.590857028961182, 7.666924953460693, -65.26901245117188, -220.8861846923828, -47.01435470581055, 0.083251953125, 0.36962890625, -1.146484375
396, 2861819062, -16.059364318847656, 7.156223773956299, 3.383673667907715, -55.10470962524414, -197.00633239746094, -51.660831451416016, 0.026123046875, 0.39013671875, -1.158935546875
397, 2861835729, -23.4941463470459, 8.975966453552246, -0.934750497341156, -35.48215866088867, -180.97247314453125, -73.12285614013672, -0.02734375, 0.40478515625, -1.1669921875
398, 2861852396, -30.015836715698242, 8.060065269470215, -10.091302871704102, 14.889144897460938, -207.29933166503906, -97.83129119873047, -0.089599609375, 0.406494140625, -1.172119140625
399, 2861869063, -26.59193229675293, 7.618522644042969, -22.24673080444336, 97.47982025146484, -182.43052673339844, -117.27764129638672, -0.150634765625, 0.38818359375, -1.1806640625
400, 2861885730, -25.433929443359375, 9.616532325744629, -28.74659538269043, 121.26924896240234, -84.59803771972656, -114.93147277832031, -0.18798828125, 0.35302734375, -1.185302734375
401, 2861902397, -24.618024826049805, 11.608092308044434, -27.922874450683594, 69.3425521850586, 20.848445892333984, -65.86465454101562, -0.191650390625, 0.329833984375, -1.189697265625
402, 2861919064, -22.210376739501953, 10.39842700958252, -23.837167739868164, -17.048343658447266, 116.75541687011719, 6.4215407371521, -0.169189453125, 0.3271484375, -1.18896484375
403, 2861935731, -23.36624526977539, 7.783417701721191, -17.37989044189453, -73.24637603759766, 196.96163940429688, 67.20520782470703, -0.117919921875, 0.3447265625, -1.186767578125
404, 2861952398, -25.077171325683594, 6.841959476470947, -11.346794128417969, -89.47476196289062, 245.1788787841797, 98.28244018554688, -0.046875, 0.364013671875, -1.174072265625
405, 2861969065, -25.448680877685547, 6.9186482429504395, -5.29835319519043, -78.21233367919922, 276.1724853515625, 97.09930419921875, 0.0322265625, 0.38525390625, -1.1552734375
406, 2861985732, -24.60000228881836, 6.983639240264893, 0.8144261837005615, -42.80379867553711, 300.4141540527344, 93.71098327636719, 0.1171875, 0.3896484375, -1.126708984375
407, 2862002399, -24.334196090698242, 6.772051811218262, 7.247797966003418, 1.3589351177215576, 319.5976867675781, 96.148193359375, 0.205810546875, 0.382080078125, -1.091552734375
408, 2862019066, -23.976001739501953, 6.563711643218994, 14.346940040588379, 36.26911544799805, 324.3536071777344, 94.06831359863281, 0.2880859375, 0.361328125, -1.046875
409, 2862035733, -21.923410415649414, 4.0143961906433105, 19.997743606567383, 68.96527099609375, 311.50823974609375, 85.7611312866211, 0.361572265625, 0.333251953125, -0.99560546875
410, 2862052400, -17.11175537109375, 2.9823989868164062, 23.544404983520508, 96.2928466796875, 308.75152587890625, 73.58377838134766, 0.427734375, 0.30126953125, -0.939697265625
411, 2862069067, -11.672143936157227, 3.511976957321167, 28.834461212158203, 79.87191009521484, 319.22406005859375, 69.36726379394531, 0.4873046875, 0.2734375, -0.873291015625
412, 2862085734, -5.812347412109375, 2.813175678253174, 34.02935028076172, 35.57991409301758, 301.5906982421875, 106.50407409667969, 0.539306640625, 0.246826171875, -0.8046875
413, 2862102401, -0.29946357011795044, -1.8403470516204834, 34.287776947021484, -15.732258796691895, 239.55612182617188, 139.7661895751953, 0.576904296875, 0.2216796875, -0.74755859375
414, 2862119068, 3.7124524116516113, -11.430994033813477, 32.49853515625, 18.232254028320312, 185.68272399902344, 153.64508056640625, 0.6025390625, 0.1904296875, -0.7021484375
415, 2862135735, 3.218818187713623, -12.354430198669434, 32.27684783935547, 53.30445098876953, 127.31427764892578, 132.7456512451172, 0.6171875, 0.15576171875, -0.6689453125
416, 2862152402, 4.116546154022217, -10.94719123840332, 30.888463973999023, 33.787628173828125, 57.44163131713867, 88.9636001586914, 0.625244140625, 0.128662109375, -0.65234375
417, 2862169069, 5.27386474609375, -10.049592018127441, 26.458709716796875, 28.808378219604492, -2.9468328952789307, 42.914913177490234, 0.62353515625, 0.114990234375, -0.646728515625
418, 2862185736, 3.163353681564331, -6.5196709632873535, 22.112852096557617, 51.887474060058594, -30.087007522583008, 3.1435699462890625, 0.620361328125, 0.10986328125, -0.650634765625
419, 2862202403, -0.1276174783706665, -2.175198793411255, 18.40706443786621, 80.06814575195312, -38.30451583862305, -11.451569557189941, 0.618896484375, 0.103515625, -0.65771484375
420, 2862219070, -10.16340160369873, -2.3277676105499268, 19.147464752197266, -26.75581932067871, -72.43255615234375, -84.7611083984375, 0.614501953125, 0.118408203125, -0.671875
421, 2862235737, -7.064143180847168, 0.27364590764045715, 6.047008514404297, -39.434268951416016, -40.7016487121582, -91.96099090576172, 0.607177734375, 0.143798828125, -0.685302734375
422, 2862252404, -6.758300304412842, 5.110655307769775, 4.05756139755249, -63.3465690612793, -3.155968189239502, -70.30813598632812, 0.606689453125, 0.1708984375, -0.68798828125
423, 2862269071, -8.489563941955566, -1.193482518196106, 9.338618278503418, -60.32925796508789, 5.022129058837891, -58.552406311035156, 0.609619140625, 0.196044921875, -0.687744140625
424, 2862285738, -8.891310691833496, -0.2392302304506302, 6.852786540985107, -20.954469680786133, -20.14350128173828, -20.280672073364258, 0.607421875, 0.206298828125, -0.6904296875
425, 2862302405, -6.812716007232666, 2.467231512069702, 7.584454536437988, -5.953032970428467, -25.357833862304688, -4.367589950561523, 0.605224609375, 0.206787109375, -0.696533203125
426, 2862319072, -6.21672248840332, 2.6274521350860596, 6.992852210998535, -4.524463176727295, -17.59577751159668, -4.44088888168335, 0.6015625, 0.208740234375, -0.7021484375
427, 2862335739, -5.9365010261535645, 1.7856316566467285, 7.213849067687988, -8.009428977966309, -10.54053020477295, -7.0701212882995605, 0.5986328125, 0.211181640625, -0.703857421875
428, 2862352406, -6.0622639656066895, 2.1621532440185547, 6.773376941680908, -11.495424270629883, -4.1425251960754395, -10.139385223388672, 0.599365234375, 0.21435546875, -0.706787109375
429, 2862369073, -6.681371212005615, 2.1517045497894287, 6.919079303741455, -14.986945152282715, -4.929989814758301, -10.915250778198242, 0.596435546875, 0.219482421875, -0.7060546875
430, 2862385740, -6.673549175262451, 1.6233638525009155, 7.0470404624938965, -7.905953407287598, -6.640710353851318, -3.1031081676483154, 0.5966796875, 0.219970703125, -0.70751953125
431, 2862402407, -6.554683685302734, 1.7118678092956543, 7.1048479080200195, -2.718045473098755, -2.954745054244995, 1.0449020862579346, 0.595703125, 0.22314453125, -0.7099609375
432, 2862419074, -6.575957298278809, 1.7802903652191162, 6.926307201385498, -0.48965081572532654, -1.307028889656067, 2.025855779647827, 0.59814453125, 0.221435546875, -0.708984375
433, 2862435741, -6.4159650802612305, 2.0319719314575195, 6.923556327819824, -0.14772124588489532, -2.0747568607330322, 2.00051212310791, 0.59423828125, 0.220458984375, -0.711181640625
434, 2862452408, -6.449576377868652, 2.1107120513916016, 6.834502696990967, -0.9365540742874146, -2.123382568359375, 0.6634777784347534, 0.595703125, 0.219482421875, -0.70849609375
435, 2862469075, -6.477725028991699, 2.119205951690674, 6.924970626831055, -3.961658000946045, -3.2252542972564697, -1.7225953340530396, 0.595703125, 0.220458984375, -0.712158203125
436, 2862485742, -6.517109394073486, 1.8909798860549927, 7.026451110839844, -5.9538140296936035, -3.6579039096832275, -3.468395471572876, 0.5947265625, 0.221435546875, -0.715576171875
437, 2862502409, -6.546786785125732, 1.75477933883667, 7.018883228302002, -3.907012462615967, -2.7423903942108154, -2.767298698425293, 0.59423828125, 0.221923828125, -0.711669921875
438, 2862519076, -6.5256195068359375, 1.650372862815857, 7.033609867095947, -0.9710798859596252, -1.7686338424682617, -0.9750627875328064, 0.595703125, 0.22412109375, -0.711669921875
439, 2862535743, -6.475973606109619, 1.7961790561676025, 7.0360331535339355, 0.46563246846199036, -1.332923412322998, 0.09921719878911972, 0.5966796875, 0.222412109375, -0.712646484375
440, 2862552410, -6.457989692687988, 1.824669599533081, 6.969047546386719, 0.7554017305374146, -1.389207124710083, 0.34018146991729736, 0.59326171875, 0.220947265625, -0.711181640625
441, 2862569077, -6.415624141693115, 1.9926385879516602, 6.972066402435303, 0.43622907996177673, -1.817067265510559, 0.2632153034210205, 0.59375, 0.221923828125, -0.712646484375
442, 2862585744, -6.455140590667725, 1.9710204601287842, 6.947725772857666, -0.5914996862411499, -2.298304557800293, -0.5704972743988037, 0.595703125, 0.222412109375, -0.712158203125
443, 2862602411, -6.451809406280518, 1.9717849493026733, 6.978322505950928, -1.2759349346160889, -2.7577831745147705, -1.2454687356948853, 0.59423828125, 0.221923828125, -0.712646484375
444, 2862619078, -6.422962188720703, 1.9388178586959839, 6.982451438903809, -1.38263738155365, -2.81050705909729, -1.6133438348770142, 0.59375, 0.221923828125, -0.711669921875
445, 2862635745, -6.420251846313477, 1.8565542697906494, 6.973593711853027, -1.0886292457580566, -2.944166898727417, -1.4749327898025513, 0.591552734375, 0.222412109375, -0.714599609375
446, 2862652412, -6.426957607269287, 1.7793694734573364, 7.015835762023926, -0.010168241336941719, -2.680497169494629, -0.6098512411117554, 0.59423828125, 0.222900390625, -0.714111328125
447, 2862669079, -6.428868293762207, 1.8594623804092407, 7.011614799499512, 1.2951637506484985, -1.8890773057937622, 0.26837629079818726, 0.59423828125, 0.220458984375, -0.716552734375
448, 2862685746, -6.420935153961182, 1.9213800430297852, 6.981969833374023, 1.4910625219345093, -1.7951430082321167, 0.3836718499660492, 0.591064453125, 0.219482421875, -0.714599609375
449, 2862702413, -6.440087795257568, 1.9207721948623657, 6.994613170623779, 1.6246968507766724, -1.7888038158416748, 0.3613247871398926, 0.59326171875, 0.220458984375, -0.715576171875
450, 2862719080, -6.445725440979004, 1.881574273109436, 6.9813008308410645, 2.266820192337036, -2.0367090702056885, 0.6567032933235168, 0.59228515625, 0.218505859375, -0.716064453125
451, 2862735747, -6.397627830505371, 1.9256041049957275, 6.983755588531494, 2.9519600868225098, -2.0854885578155518, 1.084768295288086, 0.590576171875, 0.218994140625, -0.715087890625
452, 2862752414, -6.391168594360352, 1.8792380094528198, 7.008923053741455, 4.0266947746276855, -1.2337766885757446, 1.7369704246520996, 0.590576171875, 0.2158203125, -0.71826171875
453, 2862769081, -6.377960681915283, 1.9526443481445312, 6.978499889373779, 3.8739402294158936, -0.7528340816497803, 1.8885204792022705, 0.5908203125, 0.2158203125, -0.716552734375
454, 2862785748, -6.366576671600342, 2.0072174072265625, 6.972512245178223, 3.2813520431518555, -0.8944083452224731, 1.6630135774612427, 0.595703125, 0.21484375, -0.717529296875
455, 2862802415, -6.357059001922607, 2.0220515727996826, 7.021443843841553, 2.8409411907196045, -0.7486592531204224, 1.2241781949996948, 0.59130859375, 0.21337890625, -0.716064453125
456, 2862819082, -6.391777515411377, 2.011403799057007, 7.010848522186279, 3.2934024333953857, -0.28094565868377686, 1.1801625490188599, 0.59326171875, 0.212158203125, -0.714599609375
457, 2862835749, -6.3880438804626465, 2.065498113632202, 6.973672866821289, 2.75937819480896, -0.13111141324043274, 0.9875296950340271, 0.5927734375, 0.212646484375, -0.71826171875
458, 2862852416, -6.382025718688965, 2.067232370376587, 6.974362373352051, 1.8141921758651733, -0.4705052673816681, 0.4885045289993286, 0.59228515625, 0.211669921875, -0.717041015625
459, 2862869083, -6.367026329040527, 1.9872212409973145, 6.994245529174805, 1.1163743734359741, -0.8216170072555542, 0.008407369256019592, 0.59130859375, 0.208740234375, -0.715576171875
460, 2862885750, -6.389298439025879, 1.9237440824508667, 7.025497913360596, 1.9242756366729736, -0.14623570442199707, 0.6045685410499573, 0.5908203125, 0.20654296875, -0.715576171875
461, 2862902417, -6.419557094573975, 1.897764801979065, 7.031967639923096, 3.3040835857391357, 0.7632649540901184, 1.9281052350997925, 0.5908203125, 0.2080078125, -0.716552734375
462, 2862919084, -6.402552604675293, 2.0206503868103027, 6.967911243438721, 4.8848347663879395, 1.2442200183868408, 3.374082326889038, 0.593017578125, 0.208251953125, -0.715087890625
463, 2862935751, -6.384636402130127, 2.1205461025238037, 6.9829301834106445, 5.457766532897949, 1.1733115911483765, 4.021546840667725, 0.592041015625, 0.20361328125, -0.716064453125
464, 2862952418, -6.408982753753662, 2.1338367462158203, 6.991117000579834, 5.819647789001465, 0.9535416960716248, 4.158420085906982, 0.594482421875, 0.2021484375, -0.715576171875
465, 2862969085, -6.392570972442627, 2.2338368892669678, 6.9141364097595215, 5.429898738861084, 0.43684378266334534, 3.683957815170288, 0.593505859375, 0.200927734375, -0.71435546875
466, 2862985752, -6.33252477645874, 2.264880657196045, 6.8506550788879395, 3.455812692642212, -0.5564103126525879, 2.3294172286987305, 0.59423828125, 0.197509765625, -0.71240234375
467, 2863002419, -6.355893135070801, 2.1768767833709717, 6.915595531463623, 2.2033004760742188, -0.9163712859153748, 1.4754772186279297, 0.593017578125, 0.197998046875, -0.712890625
468, 2863019086, -6.344357967376709, 2.224297285079956, 6.914708614349365, 1.5640074014663696, -0.7574443221092224, 0.7660309672355652, 0.5947265625, 0.19677734375, -0.71484375
469, 2863035753, -6.3377203941345215, 2.2862606048583984, 6.9147748947143555, 0.18012772500514984, -0.8033551573753357, -0.6427891254425049, 0.5947265625, 0.197509765625, -0.7138671875
470, 2863052420, -6.3594441413879395, 2.2513625621795654, 6.912319660186768, -1.4267810583114624, -1.1438632011413574, -2.211029052734375, 0.5927734375, 0.19580078125, -0.712890625
471, 2863069087, -6.3688249588012695, 2.23972225189209, 6.890971660614014, -2.5985875129699707, -1.3717905282974243, -3.3148467540740967, 0.59375, 0.19677734375, -0.71240234375
472, 2863085754, -6.363356113433838, 2.135834217071533, 6.933039665222168, -3.4060285091400146, -1.8004449605941772, -3.9671642780303955, 0.593505859375, 0.198974609375, -0.715087890625
473, 2863102421, -6.363206386566162, 2.1090428829193115, 6.968872547149658, -3.518954277038574, -1.6130622625350952, -3.916271686553955, 0.593505859375, 0.198974609375, -0.71142578125
474, 2863119088, -6.37460994720459, 2.126800775527954, 6.990036487579346, -2.145742654800415, -0.9198674559593201, -3.0401253700256348, 0.59375, 0.197509765625, -0.712890625
475, 2863135755, -6.384424209594727, 2.0340020656585693, 6.983721733093262, -1.5525522232055664, -0.337421715259552, -2.5017077922821045, 0.592529296875, 0.200927734375, -0.714599609375
476, 2863152422, -6.391042232513428, 2.111459493637085, 6.95985221862793, -0.8649023771286011, 0.07524369657039642, -1.847315788269043, 0.592529296875, 0.200927734375, -0.7138671875
477, 2863169089, -6.378517150878906, 2.0812299251556396, 6.9492902755737305, -0.7411674857139587, -0.0286093857139349, -1.6071199178695679, 0.59619140625, 0.201416015625, -0.714599609375
478, 2863185756, -6.411105155944824, 2.1222805976867676, 6.966951847076416, -0.40334874391555786, 0.12941454350948334, -1.340914249420166, 0.592529296875, 0.200927734375, -0.7138671875
479, 2863202423, -6.409005641937256, 2.1682770252227783, 6.950170993804932, -0.35152149200439453, 0.10632471740245819, -1.3582285642623901, 0.5947265625, 0.201904296875, -0.70947265625
480, 2863219090, -6.396949291229248, 2.1484625339508057, 6.930647373199463, -0.7069104909896851, -0.3327345550060272, -1.8185784816741943, 0.592041015625, 0.201904296875, -0.71337890625
481, 2863235757, -6.4093546867370605, 2.0886805057525635, 6.946427345275879, -0.7706605792045593, -0.49911463260650635, -1.8811373710632324, 0.592041015625, 0.203125, -0.7109375
482, 2863252424, -6.389378070831299, 2.1521453857421875, 6.926392078399658, -0.7502343654632568, -0.4799050986766815, -1.8250839710235596, 0.592529296875, 0.201416015625, -0.715576171875
483, 2863269091, -6.386626720428467, 2.1439671516418457, 6.928537845611572, -1.041015386581421, -0.6684017777442932, -2.053997755050659, 0.593017578125, 0.20263671875, -0.712890625
484, 2863285758, -6.404425144195557, 2.0915682315826416, 6.918227195739746, -1.1932315826416016, -0.8823702931404114, -2.1497762203216553, 0.594482421875, 0.200439453125, -0.71337890625
485, 2863302425, -6.398326873779297, 2.106806993484497, 6.9534430503845215, -1.2204067707061768, -0.9478108286857605, -2.1758885383605957, 0.595458984375, 0.203125, -0.71142578125
486, 2863319092, -6.41324520111084, 2.062628746032715, 6.985885143280029, -0.8867244124412537, -0.45753249526023865, -2.112983465194702, 0.594970703125, 0.20263671875, -0.712890625
487, 2863335759, -6.423415660858154, 2.1013386249542236, 6.937530994415283, -0.6667625904083252, -0.44252344965934753, -2.073770761489868, 0.594482421875, 0.201904296875, -0.71337890625
488, 2863352426, -6.392766952514648, 2.1067237854003906, 6.936487197875977, -0.8807823657989502, -0.5955849289894104, -2.1900908946990967, 0.593017578125, 0.202392578125, -0.7138671875
489, 2863369093, -6.392463207244873, 2.0962393283843994, 6.924998760223389, -1.2746416330337524, -0.6852806210517883, -2.484483003616333, 0.592041015625, 0.203125, -0.7119140625
490, 2863385760, -6.399206638336182, 2.1215507984161377, 6.940290927886963, -1.6882097721099854, -1.0317562818527222, -2.843022346496582, 0.592041015625, 0.20703125, -0.714111328125
491, 2863402427, -6.411499500274658, 2.0858781337738037, 6.933624744415283, -2.092634677886963, -1.269199013710022, -3.0984456539154053, 0.592529296875, 0.20458984375, -0.713623046875
492, 2863419094, -6.405496120452881, 2.070131540298462, 6.944717884063721, -2.4570517539978027, -1.5256205797195435, -3.280845880508423, 0.593994140625, 0.20703125, -0.714111328125
493, 2863435761, -6.422586441040039, 2.0121524333953857, 6.958220481872559, -2.1018295288085938, -1.3738142251968384, -2.8822360038757324, 0.5908203125, 0.20654296875, -0.713623046875
494, 2863452428, -6.389585018157959, 2.024862289428711, 6.982227325439453, -1.881829023361206, -1.2512571811676025, -2.6366991996765137, 0.593505859375, 0.20654296875, -0.71240234375
495, 2863469095, -6.404062271118164, 2.0358595848083496, 6.956292152404785, -1.7803258895874023, -1.1314281225204468, -2.4547338485717773, 0.5927734375, 0.20751953125, -0.716064453125
496, 2863485762, -6.426100730895996, 2.053812265396118, 6.962423801422119, -1.3934972286224365, -1.0174260139465332, -2.319998025894165, 0.593994140625, 0.210205078125, -0.713134765625
497, 2863502429, -6.394077301025391, 2.0264434814453125, 6.966914176940918, -1.4230544567108154, -1.1601656675338745, -2.2179059982299805, 0.594482421875, 0.208251953125, -0.713134765625
498, 2863519096, -6.399263381958008, 2.0355875492095947, 6.955085277557373, -1.2701081037521362, -1.035982370376587, -2.085155487060547, 0.592529296875, 0.208251953125, -0.71142578125
499, 2863535763, -6.403343200683594, 2.0443878173828125, 6.936934947967529, -1.549068808555603, -1.2336996793746948, -2.233504056930542, 0.59228515625, 0.208740234375, -0.713623046875
500, 2863552430, -6.396902084350586, 1.9991865158081055, 6.9686384201049805, -1.6447068452835083, -1.30499267578125, -2.2023208141326904, 0.59375, 0.209716796875, -0.715087890625
501, 2863569097, -6.399833679199219, 2.007132053375244, 6.959178447723389, -1.5004687309265137, -1.0980165004730225, -2.042292833328247, 0.593994140625, 0.208251953125, -0.713623046875
502, 2863585764, -6.401206016540527, 1.9894580841064453, 6.942466735839844, -1.5812128782272339, -1.2466084957122803, -2.020970106124878, 0.59130859375, 0.210693359375, -0.716064453125
503, 2863602431, -6.402825832366943, 1.9985946416854858, 6.991208553314209, -1.8427824974060059, -1.3457424640655518, -1.8724291324615479, 0.59130859375, 0.211181640625, -0.714599609375
504, 2863619098, -6.406724452972412, 2.0144741535186768, 6.937821865081787, -2.405673027038574, -1.7683008909225464, -1.9538520574569702, 0.59228515625, 0.211181640625, -0.714111328125
505, 2863635765, -6.400050640106201, 2.0328478813171387, 6.957229137420654, -2.6282477378845215, -1.9930908679962158, -2.0278730392456055, 0.59326171875, 0.211181640625, -0.716064453125
506, 2863652432, -6.401027679443359, 2.0268616676330566, 6.963557243347168, -2.987683057785034, -2.0589919090270996, -2.2545320987701416, 0.59326171875, 0.212890625, -0.715087890625
507, 2863669099, -6.388731956481934, 2.001678228378296, 6.975696086883545, -2.533531904220581, -1.9180456399917603, -2.304400682449341, 0.5927734375, 0.212158203125, -0.7197265625
508, 2863685766, -6.382576942443848, 1.9898834228515625, 6.995288848876953, -2.027334690093994, -1.5724787712097168, -2.0476582050323486, 0.5927734375, 0.21337890625, -0.716552734375
509, 2863702433, -6.384486675262451, 1.987101435661316, 7.01896333694458, -1.5190380811691284, -1.1943074464797974, -2.048785448074341, 0.59228515625, 0.21435546875, -0.713134765625
510, 2863719100, -6.40751314163208, 1.9531128406524658, 6.983016014099121, -1.2502070665359497, -0.9741021394729614, -1.9723187685012817, 0.59326171875, 0.21484375, -0.714599609375
511, 2863735767, -6.40333890914917, 1.9610440731048584, 6.985903739929199, -1.2097774744033813, -0.9665080904960632, -1.8690484762191772, 0.591796875, 0.21337890625, -0.715576171875
512, 2863752434, -6.39757776260376, 1.9654147624969482, 6.995490550994873, -0.9589908123016357, -0.8563222289085388, -1.8441271781921387, 0.591796875, 0.21728515625, -0.716796875
513, 2863769101, -6.38601541519165, 1.965343952178955, 6.988448619842529, -0.7348796129226685, -0.8318108916282654, -1.65765380859375, 0.59326171875, 0.2158203125, -0.716552734375
514, 2863785768, -6.3940582275390625, 1.9631495475769043, 6.9936137199401855, -0.5722517371177673, -0.9003504514694214, -1.6849826574325562, 0.591796875, 0.21484375, -0.71728515625
515, 2863802435, -6.396772384643555, 1.9750174283981323, 6.981218338012695, -0.5681664943695068, -0.8389695882797241, -1.6697686910629272, 0.5927734375, 0.2138671875, -0.717529296875
516, 2863819102, -6.3973212242126465, 1.943967342376709, 7.009063720703125, -0.31347379088401794, -1.0047860145568848, -1.5217782258987427, 0.591796875, 0.21484375, -0.713134765625
517, 2863835769, -6.39078950881958, 1.9300771951675415, 7.023949146270752, 0.0631929337978363, -0.9463635683059692, -1.2090858221054077, 0.59228515625, 0.21435546875, -0.716064453125
518, 2863852436, -6.390872001647949, 1.94883394241333, 7.014336109161377, 0.5272438526153564, -0.6166385412216187, -1.02519953250885, 0.59130859375, 0.216796875, -0.715576171875
519, 2863869103, -6.386280059814453, 1.9692869186401367, 6.9870500564575195, 0.4745456576347351, -0.5740830898284912, -0.8360753655433655, 0.59228515625, 0.2138671875, -0.717041015625
520, 2863885770, -6.401147842407227, 1.9986861944198608, 6.993635177612305, 0.35780298709869385, -0.6891096830368042, -1.0058748722076416, 0.59228515625, 0.21484375, -0.717041015625
521, 2863902437, -6.38774299621582, 1.9546664953231812, 6.994065761566162, 0.4087466597557068, -0.686945378780365, -1.0194751024246216, 0.59423828125, 0.21484375, -0.717041015625
522, 2863919104, -6.390263080596924, 1.9566094875335693, 6.993360996246338, 0.5085850358009338, -0.6737549304962158, -0.7631047964096069, 0.5927734375, 0.212646484375, -0.716064453125
523, 2863935771, -6.389856815338135, 1.9850025177001953, 7.00691556930542, 0.2778145670890808, -0.6130399703979492, -0.8686418533325195, 0.59228515625, 0.2138671875, -0.716552734375
524, 2863952438, -6.395271301269531, 1.9998449087142944, 6.9815673828125, 0.07356607168912888, -0.8431828618049622, -1.0370070934295654, 0.59130859375, 0.213134765625, -0.715576171875
525, 2863969105, -6.391703128814697, 1.949350357055664, 6.974839210510254, 0.0662536546587944, -0.9430341124534607, -1.0785508155822754, 0.591796875, 0.21435546875, -0.71875
526, 2863985772, -6.382584571838379, 1.9592350721359253, 6.986484050750732, 0.45693692564964294, -0.7089083194732666, -0.7331891059875488, 0.59228515625, 0.21435546875, -0.71826171875
527, 2864002439, -6.396722316741943, 1.97066330909729, 6.999270439147949, 0.9179655909538269, -0.466266393661499, -0.6325441002845764, 0.59375, 0.212158203125, -0.714599609375
528, 2864019106, -6.389340877532959, 1.9903018474578857, 6.966714859008789, 1.1171810626983643, -0.44791483879089355, -0.5975954532623291, 0.5927734375, 0.212646484375, -0.714111328125
529, 2864035773, -6.395370006561279, 1.9749066829681396, 6.98361349105835, 0.9056458473205566, -0.6006049513816833, -0.471926748752594, 0.59228515625, 0.213134765625, -0.716552734375
530, 2864052440, -6.37546443939209, 1.9962929487228394, 6.987518310546875, 0.8219307065010071, -0.8131135702133179, -0.5150457620620728, 0.59326171875, 0.212646484375, -0.717041015625
531, 2864069107, -6.3975372314453125, 1.9962365627288818, 6.9979777336120605, 1.222922921180725, -0.5199761986732483, -0.4768315851688385, 0.591796875, 0.213134765625, -0.715576171875
532, 2864085774, -6.392046928405762, 2.0082991123199463, 7.002485752105713, 0.8344809412956238, -0.7410778999328613, -0.6264866590499878, 0.59228515625, 0.211181640625, -0.717041015625
533, 2864102441, -6.37617301940918, 2.0237107276916504, 6.963289260864258, 0.5259376168251038, -0.970145046710968, -0.7802011966705322, 0.593994140625, 0.210205078125, -0.714599609375
534, 2864119108, -6.363283634185791, 2.051774740219116, 7.000077247619629, 0.017884068191051483, -1.2739629745483398, -1.0688180923461914, 0.59326171875, 0.212646484375, -0.715087890625
535, 2864135775, -6.381379127502441, 2.040492534637451, 7.009015083312988, -0.20917893946170807, -1.065181016921997, -1.3146742582321167, 0.59228515625, 0.210693359375, -0.717041015625
536, 2864152442, -6.367223739624023, 2.009943723678589, 7.014312744140625, 0.21487131714820862, -0.5983254313468933, -1.3591506481170654, 0.59375, 0.211181640625, -0.718017578125
537, 2864169109, -6.382823944091797, 1.9987452030181885, 6.982458114624023, 0.34344708919525146, -0.629009485244751, -1.3474200963974, 0.59130859375, 0.211181640625, -0.71826171875
538, 2864185776, -6.394741535186768, 1.987437129020691, 6.98074197769165, 0.25294461846351624, -0.5033151507377625, -1.1893129348754883, 0.5908203125, 0.209716796875, -0.715087890625
539, 2864202443, -6.392107963562012, 2.029639959335327, 6.98374605178833, 0.13598421216011047, -0.5629287362098694, -1.0789862871170044, 0.59228515625, 0.212646484375, -0.716552734375
540, 2864219110, -6.3925323486328125, 2.003277063369751, 6.979550361633301, 0.15352889895439148, -0.5541307330131531, -1.016785740852356, 0.591796875, 0.208251953125, -0.716552734375
541, 2864235777, -6.3985915184021, 1.998092532157898, 6.983213424682617, 0.08401606231927872, -0.7631816267967224, -0.9593749046325684, 0.59228515625, 0.212158203125, -0.715087890625
542, 2864252444, -6.402899742126465, 2.0147688388824463, 7.0109944343566895, -0.10096526145935059, -0.8827545642852783, -0.9591829180717468, 0.5927734375, 0.210205078125, -0.715087890625
543, 2864269111, -6.394153594970703, 2.0490305423736572, 6.98378324508667, -0.3634313941001892, -0.8860712647438049, -1.2171155214309692, 0.5927734375, 0.209716796875, -0.716064453125
544, 2864285778, -6.394629001617432, 2.021794080734253, 6.970189094543457, -0.4063710868358612, -0.919854462146759, -1.346779704093933, 0.59423828125, 0.211669921875, -0.717529296875
545, 2864302445, -6.386205673217773, 2.0041961669921875, 6.969970703125, -0.28403201699256897, -0.8477931022644043, -1.4181879758834839, 0.594482421875, 0.210205078125, -0.714111328125
546, 2864319112, -6.373241424560547, 2.0108323097229004, 6.993671894073486, -0.23772425949573517, -0.7489024996757507, -1.4325695037841797, 0.5927734375, 0.207763671875, -0.715087890625
547, 2864335779, -6.383069038391113, 2.019817590713501, 6.973749160766602, -0.418204128742218, -0.8170706033706665, -1.5096124410629272, 0.5927734375, 0.208740234375, -0.714599609375
548, 2864352446, -6.385541915893555, 2.008085250854492, 6.980621814727783, -0.5995291471481323, -0.9155386090278625, -1.5535893440246582, 0.59130859375, 0.209716796875, -0.718017578125
549, 2864369113, -6.391175746917725, 2.013439178466797, 6.9774370193481445, -0.5243943929672241, -0.8874286413192749, -1.6750575304031372, 0.59130859375, 0.209716796875, -0.715087890625
550, 2864385780, -6.38853645324707, 2.0222702026367188, 6.966394901275635, -0.48329874873161316, -1.0303730964660645, -1.6320794820785522, 0.5908203125, 0.213134765625, -0.716552734375
551, 2864402447, -6.391332149505615, 2.020233631134033, 6.981626033782959, -0.526878833770752, -0.9134512543678284, -1.6170321702957153, 0.5927734375, 0.212646484375, -0.714599609375
552, 2864419114, -6.383967876434326, 1.9916249513626099, 6.988948345184326, -0.6372310519218445, -0.9612955451011658, -1.6683597564697266, 0.59228515625, 0.211669921875, -0.717529296875
553, 2864435781, -6.386157035827637, 2.0014865398406982, 6.956618309020996, -0.715682864189148, -0.9189708828926086, -1.748924970626831, 0.58984375, 0.212158203125, -0.716064453125
554, 2864452448, -6.385517120361328, 2.0010204315185547, 6.970432758331299, -0.6009252071380615, -1.0230481624603271, -1.8000478744506836, 0.5908203125, 0.210205078125, -0.716552734375
555, 2864469115, -6.382101535797119, 2.004110336303711, 6.97452974319458, -0.6334789395332336, -1.0003808736801147, -1.7285757064819336, 0.5927734375, 0.211181640625, -0.714111328125
556, 2864485782, -6.375047206878662, 1.9983787536621094, 6.996953964233398, -0.7598520517349243, -0.9709005951881409, -1.764100432395935, 0.59326171875, 0.210693359375, -0.716064453125
557, 2864502449, -6.3924479484558105, 1.9696193933486938, 7.006824016571045, -0.588682234287262, -1.0122138261795044, -1.7278070449829102, 0.59326171875, 0.210693359375, -0.716552734375
558, 2864519116, -6.386419296264648, 1.9876948595046997, 6.988125324249268, -0.34451642632484436, -0.9261423945426941, -1.6727782487869263, 0.5908203125, 0.211669921875, -0.713134765625
559, 2864535783, -6.3754658699035645, 2.0059516429901123, 6.9671173095703125, -0.4224686622619629, -0.9408440589904785, -1.5610684156417847, 0.5927734375, 0.211669921875, -0.71826171875
560, 2864552450, -6.386559963226318, 2.0010602474212646, 6.9686737060546875, -0.46982651948928833, -0.8682576417922974, -1.6585758924484253, 0.59228515625, 0.211181640625, -0.71826171875
561, 2864569117, -6.377575397491455, 1.997959017753601, 7.008550643920898, -0.6912355422973633, -1.0199233293533325, -1.6941008567810059, 0.5927734375, 0.210693359375, -0.71875
562, 2864585784, -6.372537612915039, 2.00138258934021, 6.971655368804932, -0.7790487408638, -0.9559428095817566, -1.8992329835891724, 0.5908203125, 0.212646484375, -0.717041015625
563, 2864602451, -6.371824264526367, 2.0028223991394043, 6.988118648529053, -0.8880051970481873, -1.0156716108322144, -1.9360641241073608, 0.5927734375, 0.21337890625, -0.716552734375
564, 2864619118, -6.369556427001953, 1.9799773693084717, 6.993226528167725, -0.7543837428092957, -0.9542779922485352, -1.986969232559204, 0.5927734375, 0.21337890625, -0.71875
565, 2864635785, -6.378772735595703, 1.9804761409759521, 6.984559059143066, -0.6688501238822937, -0.7752324342727661, -1.834445595741272, 0.59033203125, 0.210693359375, -0.715087890625
566, 2864652452, -6.371038436889648, 1.9794390201568604, 7.001990795135498, -0.742832362651825, -0.8871855735778809, -1.8282090425491333, 0.591796875, 0.21435546875, -0.7177734375
567, 2864669119, -6.38475227355957, 1.9655367136001587, 6.988722324371338, -0.834500253200531, -0.8994156718254089, -1.7612061500549316, 0.591796875, 0.212646484375, -0.71826171875
568, 2864685786, -6.374504089355469, 1.9936258792877197, 7.008504867553711, -1.0632344484329224, -1.1082103252410889, -1.8044403791427612, 0.59033203125, 0.213623046875, -0.717041015625
569, 2864702453, -6.382913589477539, 1.9695619344711304, 6.979598045349121, -1.0737996101379395, -1.1728055477142334, -1.7983059883117676, 0.59228515625, 0.21533203125, -0.716064453125
570, 2864719120, -6.370031356811523, 1.980666995048523, 7.001630783081055, -0.7835819721221924, -0.9526129961013794, -1.473536729812622, 0.5927734375, 0.2138671875, -0.716064453125
571, 2864735787, -6.383018493652344, 1.9500234127044678, 6.991849899291992, -0.3606780469417572, -0.6958202719688416, -1.286359429359436, 0.59130859375, 0.21630859375, -0.716796875
572, 2864752454, -6.377631187438965, 1.9647578001022339, 6.974279403686523, -0.21335381269454956, -0.6827065348625183, -1.1002063751220703, 0.59423828125, 0.212646484375, -0.71826171875
573, 2864769121, -6.387828826904297, 1.9602527618408203, 6.99483060836792, -0.22770971059799194, -0.7764361500740051, -1.0493395328521729, 0.58984375, 0.2138671875, -0.716552734375
574, 2864785788, -6.384805679321289, 1.989726185798645, 7.002206325531006, -0.26188987493515015, -0.884214460849762, -1.0662438869476318, 0.591796875, 0.21435546875, -0.71728515625
575, 2864802455, -6.387454509735107, 1.9786157608032227, 6.993345260620117, -0.3957802653312683, -1.0472520589828491, -1.1843953132629395, 0.588623046875, 0.21435546875, -0.716064453125
576, 2864819122, -6.382721900939941, 1.9713666439056396, 6.990920543670654, -0.42864134907722473, -1.0876433849334717, -1.2955161333084106, 0.59130859375, 0.2138671875, -0.715087890625
577, 2864835789, -6.387845516204834, 1.9545509815216064, 7.0109028816223145, -0.42182832956314087, -0.9307655692100525, -1.2500149011611938, 0.59130859375, 0.2138671875, -0.717041015625
578, 2864852456, -6.390602111816406, 1.9661659002304077, 7.009485721588135, -0.3243592083454132, -0.8492914438247681, -1.1447722911834717, 0.590576171875, 0.21533203125, -0.71875
579, 2864869123, -6.3835577964782715, 1.9728978872299194, 7.00718879699707, -0.2997966706752777, -0.863365650177002, -1.173740267753601, 0.5908203125, 0.213623046875, -0.7177734375
580, 2864885790, -6.3736772537231445, 1.971075177192688, 7.005237579345703, -0.38305073976516724, -0.9748321175575256, -1.3348442316055298, 0.5927734375, 0.2138671875, -0.715576171875
581, 2864902457, -6.388143062591553, 1.969417691230774, 6.9917755126953125, -0.5032767057418823, -0.9562757015228271, -1.4441336393356323, 0.590576171875, 0.2158203125, -0.7177734375
582, 2864919124, -6.3837056159973145, 1.991247296333313, 6.988390922546387, -0.4434839189052582, -0.972168505191803, -1.4355790615081787, 0.58984375, 0.2158203125, -0.714111328125
583, 2864935791, -6.386119842529297, 1.9694514274597168, 7.004804611206055, -0.43813085556030273, -0.8783875703811646, -1.4566071033477783, 0.59228515625, 0.21484375, -0.7177734375
584, 2864952458, -6.3853936195373535, 1.9546393156051636, 7.014808177947998, -0.38387033343315125, -0.9005681276321411, -1.5500164031982422, 0.591796875, 0.213134765625, -0.7177734375
585, 2864969125, -6.368468761444092, 1.9634681940078735, 7.021580696105957, -0.45311421155929565, -0.9915316104888916, -1.518103003501892, 0.591796875, 0.21337890625, -0.71875
586, 2864985792, -6.393874168395996, 1.9703487157821655, 7.032294273376465, -0.36878445744514465, -0.951870322227478, -1.4726150035858154, 0.59228515625, 0.213134765625, -0.716552734375
587, 2865002459, -6.3821210861206055, 1.9627288579940796, 7.001165390014648, -0.4486832916736603, -0.980185329914093, -1.4670826196670532, 0.59228515625, 0.2158203125, -0.716552734375
588, 2865019126, -6.385084629058838, 1.962394118309021, 7.003659725189209, -0.5143030285835266, -0.8931916356086731, -1.495051622390747, 0.59033203125, 0.213623046875, -0.71875
589, 2865035793, -6.378767967224121, 1.971320390701294, 7.018325328826904, -0.5618914365768433, -0.9087770581245422, -1.4718594551086426, 0.591796875, 0.21484375, -0.7177734375
590, 2865052460, -6.384520053863525, 1.9741212129592896, 6.997652053833008, -0.5712014436721802, -1.0436021089553833, -1.5948257446289062, 0.59033203125, 0.21484375, -0.716064453125
591, 2865069127, -6.388442039489746, 1.9656763076782227, 7.023916721343994, -0.5360737442970276, -0.9697096347808838, -1.48647141456604, 0.5908203125, 0.213134765625, -0.71875
592, 2865085794, -6.381892681121826, 1.9579428434371948, 7.007158279418945, -0.34747469425201416, -0.8574236035346985, -1.3756965398788452, 0.591796875, 0.2138671875, -0.716064453125
593, 2865102461, -6.379128932952881, 1.9606395959854126, 7.033828258514404, -0.4088042676448822, -0.7170403003692627, -1.3840333223342896, 0.59130859375, 0.21484375, -0.7177734375
594, 2865119128, -6.384207725524902, 1.9593585729599, 6.991339206695557, -0.4695832431316376, -0.8481134176254272, -1.3963532447814941, 0.5908203125, 0.21533203125, -0.715087890625
595, 2865135795, -6.380109786987305, 1.9689229726791382, 7.016685962677002, -0.553285539150238, -0.9308679103851318, -1.4188154935836792, 0.591796875, 0.21630859375, -0.716796875
596, 2865152462, -6.38239860534668, 1.9575849771499634, 7.0100579261779785, -0.5040066838264465, -0.9730775356292725, -1.4376022815704346, 0.59228515625, 0.216796875, -0.7197265625
597, 2865169129, -6.389003276824951, 1.9525039196014404, 7.001004219055176, -0.4797002673149109, -0.8352685570716858, -1.4216457605361938, 0.588623046875, 0.21630859375, -0.7177734375
598, 2865185796, -6.36876916885376, 1.9427917003631592, 7.011435031890869, -0.370231568813324, -0.7780241966247559, -1.4166768789291382, 0.591064453125, 0.21533203125, -0.71826171875
599, 2865202463, -6.375380516052246, 1.9454665184020996, 7.031461715698242, -0.3452463746070862, -0.7271445393562317, -1.3712399005889893, 0.59423828125, 0.216796875, -0.7177734375
600, 2865219130, -6.375977516174316, 1.9605408906936646, 7.0271687507629395, -0.4221484959125519, -0.6633176803588867, -1.4724228382110596, 0.5927734375, 0.21630859375, -0.71923828125
601, 2865235797, -6.364688396453857, 1.952920913696289, 6.992091655731201, -0.34817904233932495, -0.5064783096313477, -1.4834363460540771, 0.590087890625, 0.216796875, -0.71923828125
602, 2865252464, -6.38071870803833, 1.9587268829345703, 7.008718967437744, -0.3669147193431854, -0.5807936191558838, -1.3509290218353271, 0.591796875, 0.2158203125, -0.7177734375
603, 2865269131, -6.375391483306885, 1.9564602375030518, 7.000453948974609, -0.33247843384742737, -0.44148609042167664, -1.4160619974136353, 0.591064453125, 0.2158203125, -0.71875
604, 2865285798, -6.3844380378723145, 1.9727500677108765, 6.988286972045898, -0.49575942754745483, -0.5890153050422668, -1.5121355056762695, 0.59130859375, 0.21630859375, -0.71728515625
605, 2865302465, -6.378317832946777, 1.9583956003189087, 7.009080410003662, -0.5923833847045898, -0.6136291027069092, -1.542806625366211, 0.59130859375, 0.213623046875, -0.72021484375
606, 2865319132, -6.379309177398682, 1.9554738998413086, 7.022543907165527, -0.5694342851638794, -0.6584768891334534, -1.638777256011963, 0.591796875, 0.21630859375, -0.716064453125
607, 2865335799, -6.382400035858154, 1.9559910297393799, 7.008813858032227, -0.560469925403595, -0.5820998549461365, -1.6181976795196533, 0.59326171875, 0.216796875, -0.715576171875
608, 2865352466, -6.382236003875732, 1.9364837408065796, 7.01139497756958, -0.5596119165420532, -0.6150889992713928, -1.4989705085754395, 0.59130859375, 0.2158203125, -0.71826171875
609, 2865369133, -6.387921333312988, 1.9478079080581665, 7.010728359222412, -0.6291887760162354, -0.8115383386611938, -1.5120840072631836, 0.59228515625, 0.21728515625, -0.71826171875
610, 2865385800, -6.373135089874268, 1.9435629844665527, 7.014502048492432, -0.5517871379852295, -0.7907920479774475, -1.4410344362258911, 0.59228515625, 0.21533203125, -0.7177734375
611, 2865402467, -6.379613399505615, 1.9359626770019531, 7.017028331756592, -0.44956696033477783, -0.7568681836128235, -1.4305206537246704, 0.591064453125, 0.21826171875, -0.71875
612, 2865419134, -6.376375675201416, 1.9432326555252075, 6.991296291351318, -0.4945940673351288, -0.7417565584182739, -1.4322494268417358, 0.591796875, 0.21728515625, -0.715087890625
613, 2865435801, -6.380094528198242, 1.9295459985733032, 6.99190092086792, -0.5026236772537231, -0.8118072748184204, -1.321154236793518, 0.59326171875, 0.21630859375, -0.71728515625
614, 2865452468, -6.373104572296143, 1.9479491710662842, 6.996221542358398, -0.3729209005832672, -0.8236915469169617, -1.3846608400344849, 0.591064453125, 0.2177734375, -0.71923828125
615, 2865469135, -6.38852071762085, 1.9548394680023193, 7.005917549133301, -0.4278729259967804, -0.8803085684776306, -1.264562964439392, 0.59423828125, 0.2177734375, -0.7197265625
616, 2865485802, -6.386300563812256, 1.950972318649292, 6.984224319458008, -0.43039584159851074, -0.9134770035743713, -1.3716626167297363, 0.590087890625, 0.21630859375, -0.7177734375
617, 2865502469, -6.388306140899658, 1.9562314748764038, 7.018120288848877, -0.3307623863220215, -0.937488853931427, -1.3448458909988403, 0.5908203125, 0.2158203125, -0.715087890625
618, 2865519136, -6.367050647735596, 1.9389406442642212, 7.019392490386963, -0.3667738735675812, -0.8563862442970276, -1.3387374877929688, 0.590087890625, 0.216796875, -0.7177734375
619, 2865535803, -6.381211757659912, 1.927932620048523, 7.0044403076171875, -0.4074852466583252, -0.8269444704055786, -1.3479324579238892, 0.590087890625, 0.21630859375, -0.7177734375
620, 2865552470, -6.381405353546143, 1.9352800846099854, 7.007632732391357, -0.31389641761779785, -0.9216217398643494, -1.3245223760604858, 0.589111328125, 0.21630859375, -0.71826171875
621, 2865569137, -6.3898701667785645, 1.9352550506591797, 7.0034990310668945, -0.24166864156723022, -0.9265394806861877, -1.3497765064239502, 0.591064453125, 0.21728515625, -0.71875
622, 2865585804, -6.378535270690918, 1.9534451961517334, 7.0023603439331055, -0.4193439185619354, -0.9954120516777039, -1.333499550819397, 0.59228515625, 0.21728515625, -0.7177734375
623, 2865602471, -6.3688130378723145, 1.9352202415466309, 7.021081447601318, -0.3254733681678772, -0.919214129447937, -1.3057739734649658, 0.59228515625, 0.2158203125, -0.71728515625
624, 2865619138, -6.3849921226501465, 1.9454723596572876, 7.011685371398926, -0.27236542105674744, -0.8638522028923035, -1.418584942817688, 0.591064453125, 0.21875, -0.71728515625
625, 2865635805, -6.382466793060303, 1.9286895990371704, 7.0212297439575195, -0.33046790957450867, -0.9533175826072693, -1.4098126888275146, 0.590087890625, 0.2177734375, -0.7197265625
626, 2865652472, -6.380977630615234, 1.9283093214035034, 7.019451141357422, -0.28035661578178406, -0.7758471369743347, -1.4054714441299438, 0.589599609375, 0.21630859375, -0.71826171875
627, 2865669139, -6.391809463500977, 1.9143025875091553, 7.02638578414917, -0.23594419658184052, -0.8950101137161255, -1.364606261253357, 0.591552734375, 0.21630859375, -0.7197265625
628, 2865685806, -6.386281967163086, 1.9339509010314941, 7.003269195556641, -0.1430981606245041, -0.8231409788131714, -1.2507705688476562, 0.590576171875, 0.21875, -0.71630859375
629, 2865702473, -6.382577419281006, 1.9508110284805298, 7.010662078857422, -0.143930584192276, -0.8513405323028564, -1.2882803678512573, 0.591552734375, 0.2158203125, -0.71923828125
630, 2865719140, -6.378781318664551, 1.9431513547897339, 7.004190921783447, -0.31717488169670105, -0.9501031041145325, -1.4098254442214966, 0.589599609375, 0.2158203125, -0.71826171875
631, 2865735807, -6.386250972747803, 1.9428399801254272, 7.006626129150391, -0.39818787574768066, -0.9746145606040955, -1.4769307374954224, 0.591064453125, 0.21826171875, -0.716796875
632, 2865752474, -6.38247013092041, 1.9472604990005493, 7.01504373550415, -0.4042324125766754, -0.9819011688232422, -1.5219961404800415, 0.59130859375, 0.21630859375, -0.71728515625
633, 2865769141, -6.372317314147949, 1.9277653694152832, 7.002024173736572, -0.4433046281337738, -0.9309064745903015, -1.4941425323486328, 0.591552734375, 0.21875, -0.72021484375
634, 2865785808, -6.365767955780029, 1.928568959236145, 7.005800724029541, -0.3284059762954712, -0.8101167678833008, -1.3335890769958496, 0.592529296875, 0.2177734375, -0.72021484375
635, 2865802475, -6.3701372146606445, 1.9346847534179688, 7.008892059326172, -0.26025062799453735, -0.7193455100059509, -1.4518301486968994, 0.590576171875, 0.21630859375, -0.7177734375
636, 2865819142, -6.381545543670654, 1.9211769104003906, 7.015196323394775, -0.3680161237716675, -0.8002431988716125, -1.5328049659729004, 0.591552734375, 0.21826171875, -0.72021484375
637, 2865835809, -6.373104572296143, 1.9131320714950562, 7.02386999130249, -0.41205716133117676, -0.8859049081802368, -1.413987636566162, 0.590576171875, 0.21826171875, -0.716796875
638, 2865852476, -6.370757102966309, 1.9428448677062988, 7.039151191711426, -0.257663756608963, -0.6290351152420044, -1.5430500507354736, 0.590087890625, 0.2177734375, -0.71875
639, 2865869143, -6.380681037902832, 1.9337103366851807, 7.012026786804199, -0.26443830132484436, -0.6051000356674194, -1.4703737497329712, 0.591552734375, 0.219970703125, -0.71630859375
640, 2865885810, -6.355993747711182, 1.9535223245620728, 7.005537033081055, -0.31096377968788147, -0.4507194459438324, -1.5804188251495361, 0.591064453125, 0.21826171875, -0.71728515625
641, 2865902477, -6.380002021789551, 1.9438223838806152, 6.9737982749938965, -0.37390702962875366, -0.36074212193489075, -1.6959962844848633, 0.589599609375, 0.21826171875, -0.716796875
642, 2865919144, -6.385890483856201, 1.9484525918960571, 7.0139641761779785, -0.477958619594574, -0.36441749334335327, -1.7016054391860962, 0.590576171875, 0.21875, -0.71728515625
643, 2865935811, -6.38554573059082, 1.930846929550171, 7.009749412536621, -0.4166802167892456, -0.4262721836566925, -1.718291997909546, 0.590087890625, 0.21826171875, -0.71875
644, 2865952478, -6.382246971130371, 1.9240342378616333, 6.9904351234436035, -0.4376954436302185, -0.32421836256980896, -1.7028859853744507, 0.589599609375, 0.21826171875, -0.72021484375
645, 2865969145, -6.381570816040039, 1.9205275774002075, 7.011683464050293, -0.43243199586868286, -0.5692038536071777, -1.5009937286376953, 0.59375, 0.218505859375, -0.71826171875
646, 2865985812, -6.397719860076904, 1.9124006032943726, 7.004716873168945, -0.42784732580184937, -0.6961531639099121, -1.564692497253418, 0.592529296875, 0.219482421875, -0.71728515625
647, 2866002479, -6.401496887207031, 1.9213234186172485, 6.995814800262451, -0.3174437880516052, -0.8220396041870117, -1.4093644618988037, 0.590087890625, 0.21923828125, -0.71923828125
648, 2866019146, -6.3902082443237305, 1.9335914850234985, 7.002761363983154, -0.26933035254478455, -0.928729236125946, -1.4303667545318604, 0.5927734375, 0.21826171875, -0.71875
649, 2866035813, -6.389186382293701, 1.922973871231079, 7.011717796325684, -0.43077999353408813, -1.103318214416504, -1.4645085334777832, 0.59326171875, 0.21826171875, -0.71826171875
650, 2866052480, -6.390028953552246, 1.902796983718872, 7.003754138946533, -0.4118777811527252, -1.112295389175415, -1.4908639192581177, 0.59228515625, 0.216796875, -0.71875
651, 2866069147, -6.364319324493408, 1.9270670413970947, 7.044281482696533, -0.3036513924598694, -0.9840014576911926, -1.3382381200790405, 0.589599609375, 0.2177734375, -0.71875
652, 2866085814, -6.384031295776367, 1.9323159456253052, 7.023770332336426, -0.2199234664440155, -0.8555923104286194, -1.3440136909484863, 0.59326171875, 0.218505859375, -0.7177734375
653, 2866102481, -6.383636474609375, 1.9132920503616333, 7.002040386199951, -0.2425650805234909, -0.6472200751304626, -1.4479882717132568, 0.589599609375, 0.219482421875, -0.716796875
654, 2866119148, -6.356239318847656, 1.9254209995269775, 7.002831935882568, -0.19438759982585907, -0.6589763760566711, -1.443224549293518, 0.593017578125, 0.219970703125, -0.7177734375
655, 2866135815, -6.38381814956665, 1.918282151222229, 7.021851062774658, -0.15654483437538147, -0.6332099437713623, -1.4489103555679321, 0.59228515625, 0.21826171875, -0.716796875
