sep=,
DeviceTag:,A,,,,,,,,,,,,,,,,,
FirmwareVersion:,2.2.1,,,,,,,,,,,,,,,,,
AppVersion:,2023.6.1,,,,,,,,,,,,,,,,,
SyncStatus:,Synced,,,,,,,,,,,,,,,,,
OutputRate:,60Hz,,,,,,,,,,,,,,,,,
FilterProfile:,General,,,,,,,,,,,,,,,,,
Measurement Mode:,Inertial Mode - Rate quantities (with mag),,,,,,,,,,,,,,,,,
StartTime:,2023-12-07 12:41:06.989 +0200,,,,,,,,,,,,,,,,,
 2023,,,,,,,,,,,,,,,,,,,

PacketCounter,SampleTimeFine,Acc_X,Acc_Y,Acc_Z,Gyr_X,Gyr_Y,Gyr_Z,Mag_X,Mag_Y,Mag_Z
1, 905663273, -6.76630163192749, -0.8704457879066467, 7.150962829589844, -2.29085111618042, -1.6563348770141602, -2.164926290512085, 1.115478515625, -0.394287109375, 0.049560546875
2, 905679940, -6.767248630523682, -0.8673376441001892, 7.16769552230835, -2.3298847675323486, -1.5481210947036743, -2.1356892585754395, 1.114013671875, -0.396240234375, 0.050537109375
3, 905696607, -6.777285575866699, -0.8688300251960754, 7.152902126312256, -2.3857460021972656, -1.444812297821045, -2.1161084175109863, 1.11669921875, -0.396240234375, 0.051025390625
4, 905713274, -6.74870491027832, -0.8569144606590271, 7.169891357421875, -2.4055960178375244, -1.497702717781067, -2.226896286010742, 1.11865234375, -0.3974609375, 0.050048828125
5, 905729941, -6.764592170715332, -0.8709590435028076, 7.160019874572754, -2.4432528018951416, -1.3694149255752563, -2.169619560241699, 1.11669921875, -0.39794921875, 0.051513671875
6, 905746608, -6.779658794403076, -0.8653630018234253, 7.175770282745361, -2.3324458599090576, -1.4055352210998535, -2.240931749343872, 1.11767578125, -0.396728515625, 0.049560546875
7, 905763275, -6.776601314544678, -0.880815863609314, 7.150930881500244, -2.3908815383911133, -1.5458673238754272, -2.27805757522583, 1.11767578125, -0.396728515625, 0.05126953125
8, 905779942, -6.756947994232178, -0.8620145916938782, 7.161161422729492, -2.339630365371704, -1.5480570793151855, -2.1840717792510986, 1.115234375, -0.397216796875, 0.051513671875
9, 905796609, -6.742606163024902, -0.8718686699867249, 7.170917987823486, -2.2928104400634766, -1.6254332065582275, -2.200144052505493, 1.11572265625, -0.395751953125, 0.051025390625
10, 905813276, -6.752376556396484, -0.8589026927947998, 7.164607048034668, -2.302530288696289, -1.5532052516937256, -2.1206929683685303, 1.115234375, -0.395751953125, 0.050048828125
11, 905829943, -6.769865036010742, -0.8617870211601257, 7.164818286895752, -2.475902557373047, -1.4718722105026245, -2.2249748706817627, 1.1181640625, -0.397216796875, 0.049072265625
12, 905846610, -6.771888256072998, -0.8618456721305847, 7.159574508666992, -2.4776830673217773, -1.419865608215332, -2.302184820175171, 1.11669921875, -0.397216796875, 0.050537109375
13, 905863277, -6.782769680023193, -0.8779757022857666, 7.163208961486816, -2.4696459770202637, -1.4240448474884033, -2.32669734954834, 1.11474609375, -0.396728515625, 0.051025390625
14, 905879944, -6.759011268615723, -0.8657412528991699, 7.163219451904297, -2.4586400985717773, -1.437679409980774, -2.3500163555145264, 1.11669921875, -0.3974609375, 0.051513671875
15, 905896611, -6.761598110198975, -0.8738248348236084, 7.168552875518799, -2.4640824794769287, -1.5478907823562622, -2.431119203567505, 1.11572265625, -0.395751953125, 0.051513671875
16, 905913278, -6.762568950653076, -0.8745798468589783, 7.1797871589660645, -2.514040231704712, -1.5399253368377686, -2.253840684890747, 1.114013671875, -0.395263671875, 0.050537109375
17, 905929945, -6.764607906341553, -0.8689903020858765, 7.165017127990723, -2.2871756553649902, -1.5723637342453003, -2.270322561264038, 1.11572265625, -0.396728515625, 0.05224609375
18, 905946612, -6.758447170257568, -0.8550663590431213, 7.147113800048828, -2.356816530227661, -1.5474168062210083, -2.200399875640869, 1.11669921875, -0.39794921875, 0.051513671875
19, 905963279, -6.773595333099365, -0.8750547766685486, 7.163285732269287, -2.300020456314087, -1.5461746454238892, -2.30812668800354, 1.1171875, -0.3974609375, 0.050537109375
20, 905979946, -6.757392883300781, -0.8746653199195862, 7.147796154022217, -2.458127737045288, -1.5176292657852173, -2.3549983501434326, 1.1162109375, -0.396728515625, 0.050048828125
21, 905996613, -6.753377437591553, -0.8830949664115906, 7.153497695922852, -2.3892934322357178, -1.5353790521621704, -2.3942625522613525, 1.1181640625, -0.396240234375, 0.05126953125
22, 906013280, -6.7572922706604, -0.8720920085906982, 7.156210422515869, -2.3525521755218506, -1.5058475732803345, -2.282578468322754, 1.1162109375, -0.396240234375, 0.050048828125
23, 906029947, -6.783635139465332, -0.8761958479881287, 7.173708915710449, -2.4495604038238525, -1.5443305969238281, -2.2998926639556885, 1.1171875, -0.397216796875, 0.050537109375
24, 906046614, -6.75280237197876, -0.8820652961730957, 7.169550895690918, -2.395735263824463, -1.5978868007659912, -2.247757911682129, 1.11669921875, -0.396728515625, 0.049072265625
25, 906063281, -6.755517959594727, -0.8579632639884949, 7.1723713874816895, -2.462981700897217, -1.5504393577575684, -2.2487952709198, 1.1171875, -0.395263671875, 0.051025390625
26, 906079948, -6.759995937347412, -0.8693202137947083, 7.184513568878174, -2.3809568881988525, -1.5868093967437744, -2.264329433441162, 1.11669921875, -0.394287109375, 0.049560546875
27, 906096615, -6.774028301239014, -0.8713198304176331, 7.166957378387451, -2.37990665435791, -1.5030813217163086, -2.20430588722229, 1.1162109375, -0.396240234375, 0.050537109375
28, 906113282, -6.776521682739258, -0.8772112131118774, 7.151447296142578, -2.3441638946533203, -1.5132750272750854, -2.1812539100646973, 1.1162109375, -0.394775390625, 0.050537109375
29, 906129949, -6.7646403312683105, -0.8768073916435242, 7.170245170593262, -2.4139459133148193, -1.4928492307662964, -2.2073793411254883, 1.1162109375, -0.39794921875, 0.051025390625
30, 906146616, -6.748489856719971, -0.8631101846694946, 7.180733680725098, -2.4224233627319336, -1.473857045173645, -2.1093337535858154, 1.115234375, -0.3984375, 0.050048828125
31, 906163283, -6.7633562088012695, -0.8671259880065918, 7.185039520263672, -2.4004476070404053, -1.5815969705581665, -2.125162363052368, 1.1162109375, -0.394287109375, 0.049560546875
32, 906179950, -6.768202304840088, -0.8593494296073914, 7.183145999908447, -2.433910608291626, -1.4593859910964966, -2.2431344985961914, 1.1162109375, -0.397216796875, 0.050537109375
33, 906196617, -6.74770975112915, -0.8676629662513733, 7.161643981933594, -2.4176976680755615, -1.5541657209396362, -2.1993496417999268, 1.115234375, -0.394775390625, 0.050537109375
34, 906213284, -6.755739212036133, -0.856671929359436, 7.1669745445251465, -2.3188328742980957, -1.5052196979522705, -2.0907387733459473, 1.11376953125, -0.3984375, 0.051513671875
35, 906229951, -6.7667694091796875, -0.8597707152366638, 7.168674468994141, -2.254711151123047, -1.4932587146759033, -2.2176880836486816, 1.114501953125, -0.397216796875, 0.050537109375
36, 906246618, -6.76923131942749, -0.8673867583274841, 7.1778364181518555, -2.3500289916992188, -1.465430498123169, -2.1635942459106445, 1.1171875, -0.3994140625, 0.0517578125
37, 906263285, -6.767819404602051, -0.8777958154678345, 7.1669697761535645, -2.326632261276245, -1.4746640920639038, -2.163159132003784, 1.11669921875, -0.3984375, 0.05224609375
38, 906279952, -6.771078586578369, -0.8659303188323975, 7.1490583419799805, -2.427751064300537, -1.494974970817566, -2.125943899154663, 1.11572265625, -0.39794921875, 0.049560546875
39, 906296619, -6.769560813903809, -0.8733305335044861, 7.154814720153809, -2.3163740634918213, -1.578036904335022, -2.230968713760376, 1.1162109375, -0.39794921875, 0.051513671875
40, 906313286, -6.758738994598389, -0.8656188249588013, 7.176259994506836, -2.4311702251434326, -1.5187433958053589, -2.1809213161468506, 1.1162109375, -0.39794921875, 0.05224609375
41, 906329953, -6.765960693359375, -0.8696860671043396, 7.164419174194336, -2.3498241901397705, -1.5363266468048096, -2.1587791442871094, 1.115234375, -0.3974609375, 0.050537109375
42, 906346620, -6.768540859222412, -0.8628553152084351, 7.157472610473633, -2.4265856742858887, -1.4876240491867065, -2.1808063983917236, 1.11669921875, -0.39794921875, 0.0517578125
43, 906363287, -6.7635111808776855, -0.8593067526817322, 7.163763999938965, -2.4041616916656494, -1.4487055540084839, -2.1956231594085693, 1.11669921875, -0.39794921875, 0.050048828125
44, 906379954, -6.77694034576416, -0.8679267764091492, 7.16081428527832, -2.3805079460144043, -1.4599366188049316, -2.1202704906463623, 1.115234375, -0.396728515625, 0.050537109375
45, 906396621, -6.757462978363037, -0.8647887706756592, 7.18002462387085, -2.288264036178589, -1.569981575012207, -2.197671890258789, 1.1171875, -0.395263671875, 0.050048828125
46, 906413288, -6.76190710067749, -0.8524618148803711, 7.175446510314941, -2.3493504524230957, -1.5152217149734497, -2.2609097957611084, 1.11767578125, -0.3994140625, 0.049560546875
47, 906429955, -6.765517711639404, -0.8688068985939026, 7.1671624183654785, -2.4006400108337402, -1.489775538444519, -2.2099661827087402, 1.1181640625, -0.39794921875, 0.050537109375
48, 906446622, -6.764156818389893, -0.8668641448020935, 7.188099384307861, -2.429966688156128, -1.3971856832504272, -2.2230544090270996, 1.11669921875, -0.397216796875, 0.051513671875
49, 906463289, -6.777464389801025, -0.8722403645515442, 7.1705641746521, -2.441141128540039, -1.4581587314605713, -2.2446906566619873, 1.11474609375, -0.397216796875, 0.051025390625
50, 906479956, -6.767699241638184, -0.8706899285316467, 7.160343170166016, -2.4269442558288574, -1.5679329633712769, -2.2535719871520996, 1.114501953125, -0.396240234375, 0.050537109375
51, 906496623, -6.771686553955078, -0.8641470074653625, 7.175776481628418, -2.397733211517334, -1.5309479236602783, -2.2784292697906494, 1.1171875, -0.396240234375, 0.050537109375
52, 906513290, -6.761233806610107, -0.8611987233161926, 7.155843734741211, -2.4138431549072266, -1.5743228197097778, -2.236462354660034, 1.11767578125, -0.3984375, 0.051025390625
53, 906529957, -6.769972324371338, -0.8471644520759583, 7.158668518066406, -2.3933660984039307, -1.6449116468429565, -2.3303334712982178, 1.11669921875, -0.3974609375, 0.052734375
54, 906546624, -6.7641377449035645, -0.8581184148788452, 7.170744895935059, -2.4099886417388916, -1.552513837814331, -2.288430690765381, 1.11767578125, -0.3994140625, 0.0517578125
55, 906563291, -6.766732215881348, -0.8627200722694397, 7.17241096496582, -2.4431185722351074, -1.5342007875442505, -2.3099069595336914, 1.11474609375, -0.39794921875, 0.050048828125
56, 906579958, -6.760293960571289, -0.8530747294425964, 7.168174743652344, -2.3698277473449707, -1.4635225534439087, -2.3328049182891846, 1.1171875, -0.397216796875, 0.050048828125
57, 906596625, -6.7607316970825195, -0.8696407079696655, 7.162668704986572, -2.3888323307037354, -1.5132877826690674, -2.25186824798584, 1.1162109375, -0.3974609375, 0.050048828125
58, 906613292, -6.7653093338012695, -0.8523887991905212, 7.154507160186768, -2.4055447578430176, -1.631208896636963, -2.259040355682373, 1.11474609375, -0.397216796875, 0.052001953125
59, 906629959, -6.757848262786865, -0.84766685962677, 7.1703362464904785, -2.282501459121704, -1.596209168434143, -2.274996757507324, 1.1142578125, -0.3974609375, 0.052001953125
60, 906646626, -6.772062301635742, -0.8453795909881592, 7.185259819030762, -2.3973615169525146, -1.54206383228302, -2.234567165374756, 1.11669921875, -0.3974609375, 0.0517578125
61, 906663293, -6.773254871368408, -0.8570188879966736, 7.190409183502197, -2.4980835914611816, -1.41757333278656, -2.4041104316711426, 1.1171875, -0.397216796875, 0.051025390625
62, 906679960, -6.777599334716797, -0.8531550765037537, 7.176045894622803, -2.5859227180480957, -1.3864668607711792, -2.4784388542175293, 1.1162109375, -0.395751953125, 0.049072265625
63, 906696627, -6.772896766662598, -0.8635910749435425, 7.157851696014404, -2.479706287384033, -1.4659171104431152, -2.4332447052001953, 1.11572265625, -0.3984375, 0.051025390625
64, 906713294, -6.766722202301025, -0.8714123368263245, 7.167632579803467, -2.441107988357544, -1.5427680015563965, -2.3292953968048096, 1.1171875, -0.39794921875, 0.050537109375
65, 906729961, -6.768529891967773, -0.8639188408851624, 7.1548614501953125, -2.4681291580200195, -1.5187946557998657, -2.2770328521728516, 1.11474609375, -0.39794921875, 0.052001953125
66, 906746628, -6.756727695465088, -0.8488172888755798, 7.170675754547119, -2.5315587520599365, -1.42168390750885, -2.325428009033203, 1.115234375, -0.396728515625, 0.052001953125
67, 906763295, -6.764416694641113, -0.852447509765625, 7.170629978179932, -2.5752482414245605, -1.389866828918457, -2.3205041885375977, 1.11669921875, -0.3974609375, 0.050537109375
68, 906779962, -6.7566375732421875, -0.8638050556182861, 7.167182445526123, -2.5314059257507324, -1.4277032613754272, -2.283000946044922, 1.11474609375, -0.3974609375, 0.051513671875
69, 906796629, -6.7665815353393555, -0.8613093495368958, 7.174840450286865, -2.5155129432678223, -1.4045363664627075, -2.329193353652954, 1.113525390625, -0.396728515625, 0.051025390625
70, 906813296, -6.7729411125183105, -0.8730278611183167, 7.1627936363220215, -2.494215965270996, -1.4354252815246582, -2.2622673511505127, 1.11669921875, -0.3974609375, 0.051513671875
71, 906829963, -6.757100582122803, -0.8704125881195068, 7.179699897766113, -2.3969645500183105, -1.4721667766571045, -2.223771572113037, 1.1162109375, -0.3984375, 0.05224609375
72, 906846630, -6.775731086730957, -0.8761114478111267, 7.179929733276367, -2.3746557235717773, -1.4669417142868042, -2.1502373218536377, 1.1142578125, -0.39794921875, 0.048583984375
73, 906863297, -6.7615556716918945, -0.8747115731239319, 7.170413494110107, -2.358109712600708, -1.445388674736023, -2.1012144088745117, 1.114501953125, -0.394287109375, 0.051025390625
74, 906879964, -6.766360282897949, -0.8551493883132935, 7.177182197570801, -2.3703911304473877, -1.4218761920928955, -2.151658773422241, 1.115234375, -0.396728515625, 0.050048828125
75, 906896631, -6.753194332122803, -0.8606550693511963, 7.172533988952637, -2.2904412746429443, -1.4540328979492188, -2.091776132583618, 1.1171875, -0.397216796875, 0.050048828125
76, 906913298, -6.762796878814697, -0.8580361604690552, 7.160707950592041, -2.333829164505005, -1.525274634361267, -2.167769193649292, 1.1171875, -0.3994140625, 0.05224609375
77, 906929965, -6.768916130065918, -0.8578380346298218, 7.163596153259277, -2.350644111633301, -1.5573291778564453, -2.20334529876709, 1.11572265625, -0.39794921875, 0.051025390625
78, 906946632, -6.758707046508789, -0.8548544049263, 7.154121398925781, -2.4025349617004395, -1.5999484062194824, -2.151620388031006, 1.11669921875, -0.3974609375, 0.0517578125
79, 906963299, -6.780198097229004, -0.8568568825721741, 7.178719997406006, -2.2656867504119873, -1.6215145587921143, -2.1854934692382812, 1.1162109375, -0.3984375, 0.049560546875
80, 906979966, -6.756098747253418, -0.8529949188232422, 7.170697212219238, -2.379227638244629, -1.613548994064331, -2.21820068359375, 1.11474609375, -0.397216796875, 0.051025390625
81, 906996633, -6.759711742401123, -0.860659122467041, 7.140364646911621, -2.387974739074707, -1.539080023765564, -2.2742669582366943, 1.11572265625, -0.3984375, 0.0517578125
82, 907013300, -6.768988609313965, -0.8774192333221436, 7.15295934677124, -2.2919907569885254, -1.5274772644042969, -2.1388907432556152, 1.1162109375, -0.39794921875, 0.051025390625
83, 907029967, -6.769263744354248, -0.8505674600601196, 7.158600807189941, -2.3907535076141357, -1.5406551361083984, -2.229675054550171, 1.1171875, -0.395751953125, 0.049072265625
84, 907046634, -6.758021354675293, -0.8652191162109375, 7.156228542327881, -2.288943290710449, -1.5264145135879517, -2.193894624710083, 1.115234375, -0.396728515625, 0.051513671875
85, 907063301, -6.760965347290039, -0.8621669411659241, 7.153383255004883, -2.341141939163208, -1.589070200920105, -2.282402753829956, 1.1171875, -0.39794921875, 0.051025390625
86, 907079968, -6.769789218902588, -0.8648974895477295, 7.137683391571045, -2.3197550773620605, -1.6665542125701904, -2.1806910037994385, 1.11474609375, -0.397216796875, 0.050537109375
87, 907096635, -6.775752067565918, -0.8539012670516968, 7.163360118865967, -2.2764697074890137, -1.7078804969787598, -2.1408121585845947, 1.113525390625, -0.39794921875, 0.050048828125
88, 907113302, -6.774360179901123, -0.8442373275756836, 7.161407470703125, -2.3068718910217285, -1.6771197319030762, -2.2787110805511475, 1.11767578125, -0.3984375, 0.051025390625
89, 907129969, -6.75583553314209, -0.833665132522583, 7.16671895980835, -2.3469555377960205, -1.6235120296478271, -2.286612033843994, 1.1162109375, -0.3994140625, 0.05322265625
90, 907146636, -6.768410682678223, -0.8572161197662354, 7.180501937866211, -2.379995822906494, -1.5771275758743286, -2.312148094177246, 1.1171875, -0.3974609375, 0.050048828125
91, 907163303, -6.766364574432373, -0.8663066625595093, 7.1561079025268555, -2.45688533782959, -1.58934485912323, -2.395965814590454, 1.114990234375, -0.395751953125, 0.051025390625
92, 907179970, -6.76892614364624, -0.8658992052078247, 7.168479919433594, -2.345419406890869, -1.5734010934829712, -2.3655381202697754, 1.11572265625, -0.396728515625, 0.049560546875
93, 907196637, -6.754659652709961, -0.8655471801757812, 7.170289039611816, -2.334277629852295, -1.6345770359039307, -2.3352508544921875, 1.11767578125, -0.39794921875, 0.051025390625
94, 907213304, -6.771551609039307, -0.8566241264343262, 7.1818132400512695, -2.3291163444519043, -1.6146502494812012, -2.3122377395629883, 1.113525390625, -0.3984375, 0.049560546875
95, 907229971, -6.753642559051514, -0.8607735633850098, 7.159914970397949, -2.3627588748931885, -1.6120377779006958, -2.399653911590576, 1.114501953125, -0.396728515625, 0.051513671875
96, 907246638, -6.760981559753418, -0.8624646663665771, 7.163345813751221, -2.4326813220977783, -1.5739517211914062, -2.312455654144287, 1.115234375, -0.39794921875, 0.052734375
97, 907263305, -6.758363723754883, -0.8430817127227783, 7.16354513168335, -2.4973790645599365, -1.499943733215332, -2.4386491775512695, 1.115234375, -0.3984375, 0.050537109375
98, 907279972, -6.755246162414551, -0.8645245432853699, 7.177027702331543, -2.6222288608551025, -1.3606877326965332, -2.5056779384613037, 1.11865234375, -0.3984375, 0.048583984375
99, 907296639, -6.777393817901611, -0.8708364963531494, 7.142291069030762, -2.5722708702087402, -1.393535852432251, -2.4700379371643066, 1.115234375, -0.396728515625, 0.050048828125
100, 907313306, -6.753041744232178, -0.8755389451980591, 7.164817810058594, -2.4963419437408447, -1.5419613122940063, -2.384568214416504, 1.1162109375, -0.396240234375, 0.048583984375
101, 907329973, -6.7743659019470215, -0.8550832271575928, 7.145742893218994, -2.3996026515960693, -1.6094506978988647, -2.412447214126587, 1.11865234375, -0.3974609375, 0.05126953125
102, 907346640, -6.7610368728637695, -0.8611882328987122, 7.177448272705078, -2.4091691970825195, -1.5875391960144043, -2.405787944793701, 1.115234375, -0.3984375, 0.051513671875
103, 907363307, -6.767524719238281, -0.8648342490196228, 7.173216819763184, -2.4792327880859375, -1.6084904670715332, -2.445359945297241, 1.11669921875, -0.397216796875, 0.049072265625
104, 907379974, -6.766861915588379, -0.8659186959266663, 7.175292491912842, -2.3829803466796875, -1.6380858421325684, -2.320100784301758, 1.11474609375, -0.396728515625, 0.050048828125
105, 907396641, -6.779753684997559, -0.8614861369132996, 7.155725002288818, -2.3368258476257324, -1.7335700988769531, -2.325082540512085, 1.1171875, -0.3974609375, 0.049560546875
106, 907413308, -6.769275188446045, -0.8654536604881287, 7.154276371002197, -2.317462682723999, -1.643195629119873, -2.2491025924682617, 1.11669921875, -0.397216796875, 0.051025390625
107, 907429975, -6.774454116821289, -0.8476455211639404, 7.154740333557129, -2.359403610229492, -1.6622387170791626, -2.2393057346343994, 1.1171875, -0.39794921875, 0.049560546875
108, 907446642, -6.753217697143555, -0.8513893485069275, 7.165151596069336, -2.429992437362671, -1.621181607246399, -2.3232128620147705, 1.11572265625, -0.397216796875, 0.050048828125
109, 907463309, -6.769435405731201, -0.8647733330726624, 7.165791988372803, -2.4521727561950684, -1.5325615406036377, -2.416558265686035, 1.1162109375, -0.3974609375, 0.049072265625
110, 907479976, -6.7457661628723145, -0.8723340034484863, 7.168840408325195, -2.4562320709228516, -1.5257998704910278, -2.364833354949951, 1.11572265625, -0.396240234375, 0.048095703125
111, 907496643, -6.7645583152771, -0.8708862066268921, 7.162598609924316, -2.443669319152832, -1.6012804508209229, -2.377601385116577, 1.11767578125, -0.396728515625, 0.049072265625
112, 907513310, -6.754317283630371, -0.868340790271759, 7.155337333679199, -2.4556689262390137, -1.5601975917816162, -2.314594030380249, 1.1171875, -0.396240234375, 0.050537109375
113, 907529977, -6.759636402130127, -0.8641231656074524, 7.151575565338135, -2.355151891708374, -1.6782339811325073, -2.3120460510253906, 1.114013671875, -0.3974609375, 0.050537109375
114, 907546644, -6.771915435791016, -0.8728736042976379, 7.16532564163208, -2.3908944129943848, -1.7632039785385132, -2.3167712688446045, 1.1162109375, -0.395751953125, 0.050048828125
115, 907563311, -6.759055137634277, -0.8722822070121765, 7.178634166717529, -2.327528238296509, -1.6985445022583008, -2.182931900024414, 1.11669921875, -0.396240234375, 0.05224609375
116, 907579978, -6.757533550262451, -0.8552712202072144, 7.185965538024902, -2.3140945434570312, -1.644911527633667, -2.2191224098205566, 1.1162109375, -0.395751953125, 0.050537109375
117, 907596645, -6.739987373352051, -0.8671611547470093, 7.165737152099609, -2.286804437637329, -1.543190836906433, -2.1896040439605713, 1.1171875, -0.3974609375, 0.050048828125
118, 907613312, -6.744419574737549, -0.8575460314750671, 7.1533894538879395, -2.3704168796539307, -1.5812383890151978, -2.1505062580108643, 1.11572265625, -0.3984375, 0.048095703125
119, 907629979, -6.749431133270264, -0.8503406047821045, 7.164931297302246, -2.3148114681243896, -1.5896905660629272, -2.1306052207946777, 1.1162109375, -0.39892578125, 0.048095703125
120, 907646646, -6.764740943908691, -0.8514724373817444, 7.169872283935547, -2.4390077590942383, -1.429726481437683, -2.1714062690734863, 1.11572265625, -0.40087890625, 0.049072265625
121, 907663313, -6.756213665008545, -0.8502703309059143, 7.174116611480713, -2.3936448097229004, -1.4835264682769775, -2.1581499576568604, 1.11474609375, -0.397216796875, 0.049072265625
122, 907679980, -6.754141807556152, -0.8514849543571472, 7.176385879516602, -2.334866523742676, -1.5580843687057495, -2.1007022857666016, 1.1171875, -0.39794921875, 0.048583984375
123, 907696647, -6.752604961395264, -0.8594739437103271, 7.1619038581848145, -2.2413926124572754, -1.5547676086425781, -2.1209492683410645, 1.11572265625, -0.396728515625, 0.048583984375
124, 907713314, -6.764016151428223, -0.849969208240509, 7.1656107902526855, -2.2058045864105225, -1.5722869634628296, -2.084489583969116, 1.1162109375, -0.39794921875, 0.049560546875
125, 907729981, -6.7573161125183105, -0.851134181022644, 7.170898914337158, -2.3635785579681396, -1.4842942953109741, -2.130438804626465, 1.11474609375, -0.397216796875, 0.049560546875
126, 907746648, -6.7663140296936035, -0.8559072613716125, 7.168583393096924, -2.3285787105560303, -1.5071794986724854, -2.274369239807129, 1.11474609375, -0.39794921875, 0.047607421875
127, 907763315, -6.754113674163818, -0.8683183193206787, 7.16607666015625, -2.3225340843200684, -1.456530213356018, -2.1977615356445312, 1.1162109375, -0.3994140625, 0.049072265625
128, 907779982, -6.7570037841796875, -0.8796290755271912, 7.1521806716918945, -2.2305712699890137, -1.5568678379058838, -2.1469459533691406, 1.1162109375, -0.397216796875, 0.050537109375
129, 907796649, -6.7528300285339355, -0.8668398857116699, 7.175140857696533, -2.2403042316436768, -1.6255611181259155, -2.1405301094055176, 1.115234375, -0.396240234375, 0.050048828125
130, 907813316, -6.758659362792969, -0.8487963676452637, 7.156255722045898, -2.3041694164276123, -1.531037449836731, -2.136803150177002, 1.11572265625, -0.39794921875, 0.049560546875
131, 907829983, -6.771864414215088, -0.852207601070404, 7.172729969024658, -2.256709337234497, -1.4911328554153442, -2.1699461936950684, 1.11669921875, -0.39794921875, 0.048095703125
132, 907846650, -6.7483229637146, -0.8523205518722534, 7.150082111358643, -2.2407779693603516, -1.5080244541168213, -2.103212356567383, 1.115234375, -0.3994140625, 0.049560546875
133, 907863317, -6.763175010681152, -0.8487083315849304, 7.169419288635254, -2.2271652221679688, -1.556266188621521, -2.0671114921569824, 1.114013671875, -0.3984375, 0.050048828125
134, 907879984, -6.752652645111084, -0.8483235836029053, 7.168633460998535, -2.1368675231933594, -1.6198750734329224, -2.1344728469848633, 1.11572265625, -0.400390625, 0.050048828125
135, 907896651, -6.751258373260498, -0.8555386066436768, 7.179500579833984, -2.2980096340179443, -1.547967553138733, -2.0942094326019287, 1.11474609375, -0.3984375, 0.050537109375
136, 907913318, -6.756736755371094, -0.8495898246765137, 7.178797245025635, -2.28100323677063, -1.5456879138946533, -2.191819429397583, 1.11474609375, -0.39794921875, 0.051025390625
137, 907929985, -6.7582316398620605, -0.8492338061332703, 7.1595354080200195, -2.286099672317505, -1.5365314483642578, -2.179922342300415, 1.115234375, -0.396728515625, 0.049560546875
138, 907946652, -6.763308048248291, -0.8530628085136414, 7.17781925201416, -2.2740237712860107, -1.570750117301941, -2.25099778175354, 1.115234375, -0.39794921875, 0.049560546875
139, 907963319, -6.775337219238281, -0.8520631790161133, 7.174524784088135, -2.329014301300049, -1.637343168258667, -2.164990186691284, 1.1171875, -0.3974609375, 0.051025390625
140, 907979986, -6.767556190490723, -0.8382598757743835, 7.183267593383789, -2.3645386695861816, -1.588012933731079, -2.173647403717041, 1.115234375, -0.39892578125, 0.050048828125
141, 907996653, -6.7663116455078125, -0.8564402461051941, 7.184552192687988, -2.3425118923187256, -1.5836330652236938, -2.244504690170288, 1.1162109375, -0.3974609375, 0.049560546875
142, 908013320, -6.742227077484131, -0.8503797650337219, 7.194631576538086, -2.3953895568847656, -1.4725382328033447, -2.2066750526428223, 1.1142578125, -0.3994140625, 0.050048828125
143, 908029987, -6.759001731872559, -0.8584972620010376, 7.170854091644287, -2.365755081176758, -1.5007119178771973, -2.244056463241577, 1.1142578125, -0.3984375, 0.050048828125
144, 908046654, -6.751451015472412, -0.8562334775924683, 7.169422149658203, -2.378126621246338, -1.480209231376648, -2.2270119190216064, 1.1162109375, -0.3994140625, 0.050537109375
145, 908063321, -6.759821891784668, -0.8485143184661865, 7.148929119110107, -2.342755079269409, -1.3838540315628052, -2.1368420124053955, 1.1162109375, -0.39794921875, 0.049072265625
146, 908079988, -6.749491214752197, -0.8431919813156128, 7.191421985626221, -2.3291544914245605, -1.3814209699630737, -2.044405698776245, 1.1162109375, -0.397216796875, 0.050537109375
147, 908096655, -6.776187896728516, -0.8499047756195068, 7.167822360992432, -2.3116228580474854, -1.3523248434066772, -2.0507190227508545, 1.11474609375, -0.39794921875, 0.050048828125
148, 908113322, -6.764876842498779, -0.857244074344635, 7.176922798156738, -2.3320233821868896, -1.3526194095611572, -2.1401844024658203, 1.1162109375, -0.3984375, 0.050537109375
149, 908129989, -6.759390830993652, -0.8589004278182983, 7.174142360687256, -2.3159003257751465, -1.4941551685333252, -2.1262125968933105, 1.11669921875, -0.3984375, 0.050537109375
150, 908146656, -6.757813453674316, -0.8410614132881165, 7.182145118713379, -2.305373191833496, -1.4500757455825806, -2.0506677627563477, 1.11669921875, -0.3984375, 0.051025390625
151, 908163323, -6.7571797370910645, -0.8379480242729187, 7.148512840270996, -2.3283610343933105, -1.400989055633545, -2.144308090209961, 1.11669921875, -0.40087890625, 0.0517578125
152, 908179990, -6.766555309295654, -0.8336647152900696, 7.188528537750244, -2.332247734069824, -1.4703547954559326, -2.1373605728149414, 1.11474609375, -0.3974609375, 0.052001953125
153, 908196657, -6.759374618530273, -0.8454152345657349, 7.171673774719238, -2.3798935413360596, -1.3545277118682861, -2.178629159927368, 1.115234375, -0.39794921875, 0.052001953125
154, 908213324, -6.754513263702393, -0.860618531703949, 7.171063423156738, -2.3825061321258545, -1.3508648872375488, -2.1564226150512695, 1.115234375, -0.396728515625, 0.050048828125
155, 908229991, -6.762415409088135, -0.8333888053894043, 7.168452739715576, -2.4491629600524902, -1.3668216466903687, -2.190244197845459, 1.11474609375, -0.3984375, 0.049560546875
156, 908246658, -6.752444744110107, -0.8340678811073303, 7.174471855163574, -2.487467050552368, -1.331668496131897, -2.2353615760803223, 1.1142578125, -0.3994140625, 0.050537109375
157, 908263325, -6.763914108276367, -0.8351496458053589, 7.1687188148498535, -2.4850640296936035, -1.2586863040924072, -2.2963483333587646, 1.1162109375, -0.39794921875, 0.048583984375
158, 908279992, -6.768886089324951, -0.827491819858551, 7.1723952293396, -2.616875410079956, -1.254023551940918, -2.388794183731079, 1.11669921875, -0.39892578125, 0.050537109375
159, 908296659, -6.767608165740967, -0.8478589057922363, 7.185047626495361, -2.6604042053222656, -1.2856422662734985, -2.3784592151641846, 1.1162109375, -0.397216796875, 0.051513671875
160, 908313326, -6.765106678009033, -0.844837486743927, 7.160879611968994, -2.651132345199585, -1.4154090881347656, -2.3207156658172607, 1.1162109375, -0.3994140625, 0.049560546875
161, 908329993, -6.758272647857666, -0.8467656970024109, 7.159247875213623, -2.645139217376709, -1.3111655712127686, -2.420541286468506, 1.1171875, -0.3974609375, 0.05126953125
162, 908346660, -6.764212608337402, -0.8551421165466309, 7.153189659118652, -2.6268255710601807, -1.436923623085022, -2.344266414642334, 1.11767578125, -0.39794921875, 0.049072265625
163, 908363327, -6.759537220001221, -0.850671112537384, 7.154446601867676, -2.468257427215576, -1.5815714597702026, -2.2642524242401123, 1.1171875, -0.39794921875, 0.050537109375
164, 908379994, -6.770204544067383, -0.8521265387535095, 7.165698528289795, -2.4230127334594727, -1.4924777746200562, -2.2536230087280273, 1.113037109375, -0.397216796875, 0.050537109375
165, 908396661, -6.760706901550293, -0.8281715512275696, 7.153965950012207, -2.46248197555542, -1.4893271923065186, -2.2404708862304688, 1.115234375, -0.39794921875, 0.051025390625
166, 908413328, -6.767326831817627, -0.8663840889930725, 7.146346569061279, -2.5283193588256836, -1.4465925693511963, -2.2435190677642822, 1.11669921875, -0.39794921875, 0.0517578125
167, 908429995, -6.759105682373047, -0.8686338067054749, 7.1653618812561035, -2.579070806503296, -1.4234257936477661, -2.1892712116241455, 1.11669921875, -0.397216796875, 0.051513671875
168, 908446662, -6.758395195007324, -0.8503205180168152, 7.179059028625488, -2.501554250717163, -1.3806270360946655, -2.206982374191284, 1.11669921875, -0.3984375, 0.0517578125
169, 908463329, -6.780397891998291, -0.8489751815795898, 7.157654762268066, -2.4969563484191895, -1.265894889831543, -2.212707042694092, 1.11572265625, -0.3984375, 0.047119140625
170, 908479996, -6.777617454528809, -0.8306663036346436, 7.145092964172363, -2.5755233764648438, -1.2751667499542236, -2.1809215545654297, 1.11474609375, -0.3974609375, 0.051025390625
171, 908496663, -6.778724670410156, -0.854974091053009, 7.14520263671875, -2.537501573562622, -1.3085016012191772, -2.2885076999664307, 1.114013671875, -0.397216796875, 0.051513671875
172, 908513330, -6.771309852600098, -0.8673155307769775, 7.1594648361206055, -2.473572015762329, -1.4445818662643433, -2.2478342056274414, 1.11767578125, -0.3994140625, 0.050048828125
173, 908529997, -6.758080959320068, -0.8466288447380066, 7.149749755859375, -2.464710235595703, -1.5234434604644775, -2.1584463119506836, 1.11572265625, -0.3994140625, 0.050537109375
174, 908546664, -6.759614944458008, -0.8478039503097534, 7.170047760009766, -2.5392942428588867, -1.4936174154281616, -2.2410731315612793, 1.1162109375, -0.39990234375, 0.051025390625
175, 908563331, -6.770704746246338, -0.8295772075653076, 7.17593240737915, -2.5091867446899414, -1.3987480401992798, -2.3377223014831543, 1.11669921875, -0.39794921875, 0.050537109375
176, 908579998, -6.761755466461182, -0.8606603145599365, 7.146890163421631, -2.587139129638672, -1.3473817110061646, -2.406428813934326, 1.11572265625, -0.397216796875, 0.049560546875
177, 908596665, -6.749415397644043, -0.8505197763442993, 7.159395217895508, -2.6174004077911377, -1.3605082035064697, -2.3364930152893066, 1.11572265625, -0.396240234375, 0.049560546875
178, 908613332, -6.762646198272705, -0.8668408989906311, 7.164802551269531, -2.5214807987213135, -1.374159812927246, -2.4239988327026367, 1.115234375, -0.3984375, 0.052734375
179, 908629999, -6.767087936401367, -0.8408784866333008, 7.145522594451904, -2.5728981494903564, -1.3084375858306885, -2.4944210052490234, 1.1171875, -0.3984375, 0.050537109375
180, 908646666, -6.765634536743164, -0.8639525771141052, 7.15916633605957, -2.5813119411468506, -1.380358099937439, -2.4997739791870117, 1.114501953125, -0.397216796875, 0.051513671875
181, 908663333, -6.768295764923096, -0.8514776229858398, 7.145956039428711, -2.615633249282837, -1.4411628246307373, -2.464005947113037, 1.11669921875, -0.3994140625, 0.0537109375
182, 908680000, -6.745582580566406, -0.9009765982627869, 7.158017635345459, -2.516716957092285, -1.519614338874817, -2.3747329711914062, 1.11572265625, -0.3974609375, 0.0517578125
183, 908696667, -6.751455783843994, -0.8775820732116699, 7.159351825714111, -2.390791893005371, -1.4999308586120605, -2.1811392307281494, 1.11572265625, -0.3984375, 0.0517578125
184, 908713334, -6.771143436431885, -0.850111722946167, 7.17568302154541, -2.4070687294006348, -1.515836238861084, -2.130272150039673, 1.1162109375, -0.39794921875, 0.052734375
185, 908730001, -6.775701999664307, -0.8389884829521179, 7.1492018699646, -2.3862454891204834, -1.4508954286575317, -2.1391983032226562, 1.11572265625, -0.3974609375, 0.0517578125
186, 908746668, -6.774474620819092, -0.843472957611084, 7.176636695861816, -2.3725943565368652, -1.4567736387252808, -2.1826887130737305, 1.1171875, -0.3984375, 0.050537109375
187, 908763335, -6.7580437660217285, -0.8312527537345886, 7.147888660430908, -2.299994707107544, -1.4699383974075317, -2.1609818935394287, 1.1171875, -0.397216796875, 0.051025390625
188, 908780002, -6.784813404083252, -0.8477661609649658, 7.172756671905518, -2.374502420425415, -1.5825831890106201, -2.267620801925659, 1.11474609375, -0.396728515625, 0.052001953125
189, 908796669, -6.7767653465271, -0.8384718894958496, 7.1614274978637695, -2.4228720664978027, -1.63133704662323, -2.3904972076416016, 1.1162109375, -0.39794921875, 0.0517578125
190, 908813336, -6.768112659454346, -0.8542811870574951, 7.164488315582275, -2.3944928646087646, -1.5423967838287354, -2.3815712928771973, 1.1171875, -0.39794921875, 0.0517578125
191, 908830003, -6.770472526550293, -0.8659847974777222, 7.1653547286987305, -2.46307110786438, -1.6203619241714478, -2.384030342102051, 1.118896484375, -0.39990234375, 0.05126953125
192, 908846670, -6.76124382019043, -0.8605172634124756, 7.1595611572265625, -2.5003504753112793, -1.6541707515716553, -2.3825063705444336, 1.1162109375, -0.3974609375, 0.051513671875
193, 908863337, -6.7621917724609375, -0.8648805022239685, 7.165371417999268, -2.484679937362671, -1.5422914028167725, -2.2903168201446533, 1.11572265625, -0.397216796875, 0.050537109375
194, 908880004, -6.758871078491211, -0.8539666533470154, 7.157403469085693, -2.4805262088775635, -1.5503368377685547, -2.3097407817840576, 1.11572265625, -0.39794921875, 0.051025390625
195, 908896671, -6.77150821685791, -0.8560523390769958, 7.180032730102539, -2.5578761100769043, -1.3356510400772095, -2.383760929107666, 1.11767578125, -0.39794921875, 0.05126953125
196, 908913338, -6.762862205505371, -0.8681970834732056, 7.180663585662842, -2.563652276992798, -1.330643892288208, -2.300584316253662, 1.1142578125, -0.397216796875, 0.052734375
197, 908930005, -6.767483711242676, -0.857368528842926, 7.1725850105285645, -2.4907968044281006, -1.3797818422317505, -2.2741003036499023, 1.11767578125, -0.396728515625, 0.051025390625
198, 908946672, -6.765012264251709, -0.8608468174934387, 7.1762847900390625, -2.5694150924682617, -1.4139363765716553, -2.323225736618042, 1.11669921875, -0.400390625, 0.05224609375
199, 908963339, -6.765318393707275, -0.8482525944709778, 7.178524017333984, -2.4188125133514404, -1.5226366519927979, -2.3067312240600586, 1.11572265625, -0.395751953125, 0.052734375
200, 908980006, -6.764341354370117, -0.8735405206680298, 7.164941310882568, -2.389946699142456, -1.4993674755096436, -2.3025691509246826, 1.1171875, -0.39892578125, 0.052734375
201, 908996673, -6.769773006439209, -0.8520480394363403, 7.156218528747559, -2.417762041091919, -1.653812050819397, -2.3071537017822266, 1.11572265625, -0.395263671875, 0.051513671875
202, 909013340, -6.762042045593262, -0.8510941863059998, 7.16408109664917, -2.3765385150909424, -1.550119161605835, -2.3021209239959717, 1.11474609375, -0.3974609375, 0.051513671875
203, 909030007, -6.771890640258789, -0.8367077708244324, 7.182897567749023, -2.488222599029541, -1.4209542274475098, -2.287086009979248, 1.115234375, -0.3974609375, 0.052001953125
204, 909046674, -6.770323276519775, -0.8599215149879456, 7.158900260925293, -2.431605577468872, -1.3476890325546265, -2.3666391372680664, 1.1142578125, -0.39794921875, 0.052001953125
205, 909063341, -6.764988422393799, -0.861043393611908, 7.155287265777588, -2.4817683696746826, -1.4481165409088135, -2.2376279830932617, 1.11572265625, -0.3984375, 0.0517578125
206, 909080008, -6.7634100914001465, -0.8727793097496033, 7.154761791229248, -2.4157516956329346, -1.5499910116195679, -2.184699535369873, 1.115234375, -0.39794921875, 0.050048828125
207, 909096675, -6.764776706695557, -0.8569971919059753, 7.161402702331543, -2.227293014526367, -1.5945056676864624, -2.1691648960113525, 1.114501953125, -0.396728515625, 0.050537109375
208, 909113342, -6.750124931335449, -0.866049587726593, 7.151535511016846, -2.277238130569458, -1.6866475343704224, -2.2106194496154785, 1.1171875, -0.39892578125, 0.05126953125
209, 909130009, -6.76893424987793, -0.8621376752853394, 7.156743049621582, -2.2294957637786865, -1.674545407295227, -2.106196165084839, 1.1181640625, -0.3974609375, 0.050537109375
210, 909146676, -6.751700401306152, -0.8786100149154663, 7.159544944763184, -2.255300760269165, -1.6496243476867676, -2.137700080871582, 1.11669921875, -0.3974609375, 0.051513671875
211, 909163343, -6.751898288726807, -0.8730823397636414, 7.17618989944458, -2.34328031539917, -1.5591601133346558, -2.0025928020477295, 1.115234375, -0.39794921875, 0.051513671875
212, 909180010, -6.756729602813721, -0.8552522659301758, 7.1694135665893555, -2.3323566913604736, -1.5808286666870117, -1.977992057800293, 1.11572265625, -0.395751953125, 0.050537109375
213, 909196677, -6.7641472816467285, -0.8537911772727966, 7.166664123535156, -2.326439619064331, -1.4840381145477295, -2.033097505569458, 1.113525390625, -0.396728515625, 0.050537109375
214, 909213344, -6.770392894744873, -0.8435259461402893, 7.160462379455566, -2.2442870140075684, -1.3946369886398315, -2.054561138153076, 1.1171875, -0.3994140625, 0.05224609375
215, 909230011, -6.769688606262207, -0.8518056869506836, 7.147496700286865, -2.363924503326416, -1.4774175882339478, -1.987699270248413, 1.1162109375, -0.3974609375, 0.050048828125
216, 909246678, -6.7718729972839355, -0.8613928556442261, 7.169550895690918, -2.324941635131836, -1.4038193225860596, -2.048401355743408, 1.1181640625, -0.39990234375, 0.049560546875
217, 909263345, -6.784040451049805, -0.8479477167129517, 7.16982889175415, -2.3082163333892822, -1.4444025754928589, -2.1169536113739014, 1.11572265625, -0.3994140625, 0.050048828125
218, 909280012, -6.780138969421387, -0.8467612862586975, 7.144043445587158, -2.3790483474731445, -1.4619601964950562, -2.088331937789917, 1.115234375, -0.3974609375, 0.050537109375
219, 909296679, -6.769427299499512, -0.8488038182258606, 7.169007301330566, -2.2473862171173096, -1.4708348512649536, -2.2298669815063477, 1.11572265625, -0.3984375, 0.052734375
220, 909313346, -6.761659145355225, -0.8531904816627502, 7.155087947845459, -2.293322801589966, -1.565397024154663, -2.1790900230407715, 1.11669921875, -0.39892578125, 0.049072265625
221, 909330013, -6.77013635635376, -0.8541257977485657, 7.162723064422607, -2.3456881046295166, -1.6693718433380127, -2.1275317668914795, 1.1162109375, -0.397216796875, 0.050537109375
222, 909346680, -6.770571708679199, -0.8629247546195984, 7.1601715087890625, -2.2846529483795166, -1.613715410232544, -2.0309336185455322, 1.11767578125, -0.39892578125, 0.0517578125
223, 909363347, -6.7727742195129395, -0.847357988357544, 7.186845302581787, -2.2504725456237793, -1.6853286027908325, -2.1500837802886963, 1.1162109375, -0.39794921875, 0.051025390625
224, 909380014, -6.760902404785156, -0.8330844640731812, 7.157980442047119, -2.255415678024292, -1.572312355041504, -2.1136367321014404, 1.1162109375, -0.3984375, 0.051025390625
225, 909396681, -6.757616996765137, -0.8405416011810303, 7.170663833618164, -2.4139840602874756, -1.3819458484649658, -2.1178371906280518, 1.1162109375, -0.39892578125, 0.051025390625
226, 909413348, -6.756490230560303, -0.8366602063179016, 7.17378044128418, -2.509852647781372, -1.1738172769546509, -2.2763800621032715, 1.113525390625, -0.39794921875, 0.052734375
227, 909430015, -6.766143321990967, -0.8569847941398621, 7.147295951843262, -2.453773260116577, -1.161292552947998, -2.244581699371338, 1.11669921875, -0.39794921875, 0.051513671875
228, 909446682, -6.76077938079834, -0.8633405566215515, 7.1642374992370605, -2.5286903381347656, -1.0059515237808228, -2.171111583709717, 1.1171875, -0.397216796875, 0.051025390625
229, 909463349, -6.763154029846191, -0.8552413582801819, 7.17873477935791, -2.506218671798706, -1.0822380781173706, -2.117095470428467, 1.11669921875, -0.3994140625, 0.0517578125
230, 909480016, -6.7564263343811035, -0.8564566373825073, 7.157605171203613, -2.351745128631592, -1.1355774402618408, -1.9523662328720093, 1.1162109375, -0.3974609375, 0.051513671875
231, 909496683, -6.774801731109619, -0.8414614200592041, 7.156499862670898, -2.309445858001709, -1.1445162296295166, -1.9705514907836914, 1.11474609375, -0.39794921875, 0.05224609375
232, 909513350, -6.7807745933532715, -0.8665200471878052, 7.148697853088379, -2.222644329071045, -1.4113492965698242, -1.8944305181503296, 1.115234375, -0.39892578125, 0.051025390625
233, 909530017, -6.765133380889893, -0.8374595642089844, 7.12869930267334, -2.021392822265625, -1.4331586360931396, -1.7899435758590698, 1.11669921875, -0.3974609375, 0.050537109375
234, 909546684, -6.773886203765869, -0.8487551808357239, 7.132611274719238, -1.9858169555664062, -1.46831214427948, -1.7509994506835938, 1.1181640625, -0.397216796875, 0.0517578125
235, 909563351, -6.794276237487793, -0.8404155373573303, 7.155233860015869, -2.009687662124634, -1.346254825592041, -1.893880009651184, 1.1162109375, -0.39794921875, 0.051513671875
236, 909580018, -6.774685859680176, -0.8284956216812134, 7.149998664855957, -2.2306482791900635, -1.6660676002502441, -2.1364831924438477, 1.11669921875, -0.39990234375, 0.05126953125
237, 909596685, -6.787502765655518, -0.8157497644424438, 7.171794414520264, -2.436126470565796, -1.4789669513702393, -2.3435237407684326, 1.11767578125, -0.3994140625, 0.0517578125
238, 909613352, -6.775511741638184, -0.8282807469367981, 7.158727645874023, -2.566354513168335, -1.3960716724395752, -2.463301658630371, 1.115234375, -0.39892578125, 0.051513671875
239, 909630019, -6.778437614440918, -0.8680493235588074, 7.131026268005371, -2.391035318374634, -1.4069569110870361, -2.4217703342437744, 1.11572265625, -0.397216796875, 0.051513671875
240, 909646686, -6.761314868927002, -0.8616499304771423, 7.142519950866699, -2.2118613719940186, -1.5948387384414673, -2.087268590927124, 1.11669921875, -0.40087890625, 0.051025390625
241, 909663353, -6.785781383514404, -0.8448325991630554, 7.161233901977539, -2.1284663677215576, -1.5793046951293945, -1.9325933456420898, 1.1162109375, -0.39794921875, 0.050537109375
242, 909680020, -6.7872819900512695, -0.8155713081359863, 7.177403926849365, -2.1790387630462646, -1.5567654371261597, -1.9856886863708496, 1.1171875, -0.4013671875, 0.050048828125
243, 909696687, -6.776947498321533, -0.8125248551368713, 7.163641929626465, -2.3396689891815186, -1.5057322978973389, -2.2456576824188232, 1.11669921875, -0.39990234375, 0.0517578125
244, 909713354, -6.77930212020874, -0.8310516476631165, 7.1733598709106445, -2.4150474071502686, -1.3560388088226318, -2.4117815494537354, 1.115234375, -0.4013671875, 0.050537109375
245, 909730021, -6.773318767547607, -0.8473976850509644, 7.157228469848633, -2.5741147994995117, -1.331489086151123, -2.5347354412078857, 1.11767578125, -0.40087890625, 0.05224609375
246, 909746688, -6.768465995788574, -0.8536797165870667, 7.163193225860596, -2.55969500541687, -1.3927161693572998, -2.406799793243408, 1.1171875, -0.40087890625, 0.050537109375
247, 909763355, -6.770568370819092, -0.8626533150672913, 7.168360710144043, -2.4566810131073, -1.5813666582107544, -2.4477038383483887, 1.1171875, -0.39892578125, 0.050537109375
248, 909780022, -6.773982524871826, -0.836357593536377, 7.169008731842041, -2.393096923828125, -1.6774396896362305, -2.3463408946990967, 1.1171875, -0.3974609375, 0.051025390625
249, 909796689, -6.788475036621094, -0.8258666396141052, 7.1541948318481445, -2.3684191703796387, -1.6729063987731934, -2.3298592567443848, 1.11474609375, -0.3984375, 0.050537109375
250, 909813356, -6.77918004989624, -0.8188789486885071, 7.175876140594482, -2.4555280208587646, -1.5479676723480225, -2.4583325386047363, 1.1171875, -0.39892578125, 0.050537109375
251, 909830023, -6.767643928527832, -0.8293258547782898, 7.167811393737793, -2.5695431232452393, -1.4464517831802368, -2.4733803272247314, 1.1162109375, -0.397216796875, 0.051025390625
252, 909846690, -6.773665428161621, -0.8426770567893982, 7.162650108337402, -2.702409029006958, -1.3204758167266846, -2.556967258453369, 1.11474609375, -0.39990234375, 0.0517578125
253, 909863357, -6.755289554595947, -0.85084468126297, 7.155268669128418, -2.582669496536255, -1.2732458114624023, -2.4738667011260986, 1.1162109375, -0.39990234375, 0.05126953125
254, 909880024, -6.775365352630615, -0.8550373315811157, 7.147030830383301, -2.6138527393341064, -1.1961257457733154, -2.4008445739746094, 1.11572265625, -0.400390625, 0.050537109375
255, 909896691, -6.779437065124512, -0.8496447801589966, 7.141039848327637, -2.588637351989746, -1.2136706113815308, -2.379227876663208, 1.115234375, -0.39990234375, 0.051025390625
256, 909913358, -6.777071952819824, -0.837432324886322, 7.159478187561035, -2.5625247955322266, -1.177364468574524, -2.293156147003174, 1.1162109375, -0.3994140625, 0.05126953125
257, 909930025, -6.768266677856445, -0.8516966104507446, 7.156545639038086, -2.500990390777588, -1.1445931196212769, -2.2325947284698486, 1.11865234375, -0.39794921875, 0.05224609375
258, 909946692, -6.7744832038879395, -0.8413750529289246, 7.158472537994385, -2.6298866271972656, -1.1716915369033813, -2.2883667945861816, 1.1162109375, -0.39990234375, 0.0517578125
259, 909963359, -6.779045581817627, -0.8637259602546692, 7.152829647064209, -2.6441397666931152, -1.1396113634109497, -2.379765272140503, 1.11669921875, -0.3974609375, 0.052734375
260, 909980026, -6.7761616706848145, -0.8154320120811462, 7.183793067932129, -2.717546224594116, -0.8630327582359314, -2.2759573459625244, 1.11572265625, -0.3994140625, 0.051513671875
261, 909996693, -6.773787021636963, -0.8161867260932922, 7.174559116363525, -2.8316118717193604, -0.47168347239494324, -2.3567397594451904, 1.11669921875, -0.39794921875, 0.0517578125
262, 910013360, -6.785979270935059, -0.8074390292167664, 7.154278755187988, -3.146033525466919, -0.2078726589679718, -2.6303601264953613, 1.11767578125, -0.39990234375, 0.050537109375
263, 910030027, -6.7808380126953125, -0.8704792261123657, 7.125576496124268, -3.1114819049835205, -0.2682289779186249, -2.714433431625366, 1.1181640625, -0.39892578125, 0.0517578125
264, 910046694, -6.801705837249756, -0.8809462189674377, 7.122899532318115, -2.872272253036499, -0.4391425549983978, -2.3938651084899902, 1.1181640625, -0.39794921875, 0.0546875
265, 910063361, -6.7886643409729, -0.8873338103294373, 7.133225440979004, -2.595499277114868, -0.7157167196273804, -1.9965567588806152, 1.11767578125, -0.3984375, 0.05126953125
266, 910080028, -6.786566734313965, -0.8841692209243774, 7.158891677856445, -2.3582379817962646, -0.8766970634460449, -1.5688546895980835, 1.119384765625, -0.400390625, 0.0537109375
267, 910096695, -6.774258613586426, -0.8521592617034912, 7.143626689910889, -2.0708250999450684, -0.8441048860549927, -1.2667272090911865, 1.1171875, -0.3984375, 0.0517578125
268, 910113362, -6.7949090003967285, -0.8373293876647949, 7.1353983879089355, -1.9547741413116455, -0.8224366307258606, -1.0686641931533813, 1.1181640625, -0.39794921875, 0.0537109375
269, 910130029, -6.786505222320557, -0.9002999067306519, 7.144921779632568, -1.8246103525161743, -0.8577821850776672, -0.8778753280639648, 1.119140625, -0.3984375, 0.05419921875
270, 910146696, -6.794315338134766, -0.8323344588279724, 7.143930435180664, -2.2259230613708496, -0.5843921899795532, -1.1544156074523926, 1.11962890625, -0.397216796875, 0.05322265625
271, 910163363, -6.7900872230529785, -0.8695580959320068, 7.128697395324707, -2.5142834186553955, -0.365249902009964, -1.2428433895111084, 1.1181640625, -0.3984375, 0.055908203125
272, 910180030, -6.806123733520508, -0.8542003035545349, 7.111448287963867, -2.743696451187134, -0.29463568329811096, -1.3544636964797974, 1.1181640625, -0.397216796875, 0.0556640625
273, 910196697, -6.799337863922119, -0.823674738407135, 7.120975494384766, -2.8885488510131836, -0.2545005977153778, -1.6885299682617188, 1.1171875, -0.3994140625, 0.055908203125
274, 910213364, -6.793898105621338, -0.7803952693939209, 7.136746883392334, -2.9353559017181396, 0.03280346468091011, -1.9752384424209595, 1.118408203125, -0.40087890625, 0.055908203125
275, 910230031, -6.814666748046875, -0.8309871554374695, 7.118611812591553, -3.2947285175323486, 0.46334025263786316, -2.24916672706604, 1.119384765625, -0.39892578125, 0.055908203125
276, 910246698, -6.80928897857666, -0.8486800789833069, 7.10762882232666, -3.554633140563965, 0.6358289122581482, -2.532660961151123, 1.118896484375, -0.3994140625, 0.057373046875
277, 910263365, -6.822547435760498, -0.8266574740409851, 7.1533660888671875, -3.6918022632598877, 0.6462149024009705, -2.5986392498016357, 1.120849609375, -0.39990234375, 0.056396484375
278, 910280032, -6.811977386474609, -0.8156805634498596, 7.164186000823975, -4.101221084594727, 1.0420976877212524, -2.8963098526000977, 1.120361328125, -0.400390625, 0.056884765625
279, 910296699, -6.835702419281006, -0.8314921259880066, 7.125519275665283, -4.760684013366699, 1.2089773416519165, -3.4684083461761475, 1.121826171875, -0.397216796875, 0.057861328125
280, 910313366, -6.873020172119141, -0.776150107383728, 7.16447114944458, -4.685139179229736, 0.8551631569862366, -3.8568499088287354, 1.119873046875, -0.397216796875, 0.06103515625
281, 910330033, -6.867843151092529, -0.7083470821380615, 7.141242027282715, -2.6277096271514893, -0.9085466265678406, -4.96873664855957, 1.121337890625, -0.397216796875, 0.057373046875
282, 910346700, -6.789099216461182, -1.2260680198669434, 6.992580413818359, 4.14032506942749, -3.138157844543457, -2.7316713333129883, 1.11962890625, -0.397216796875, 0.060546875
283, 910363367, -6.990297794342041, -1.887555718421936, 6.82720422744751, 9.054062843322754, -9.495196342468262, 4.4239630699157715, 1.119873046875, -0.40087890625, 0.056884765625
284, 910380034, -6.695706844329834, -0.7550358772277832, 6.901862144470215, 8.02151870727539, -17.23687171936035, 6.905852794647217, 1.118408203125, -0.404541015625, 0.052734375
285, 910396701, -6.414957523345947, 0.37862563133239746, 7.175215721130371, -0.4000962972640991, -14.479881286621094, -2.5636026859283447, 1.11572265625, -0.406494140625, 0.05322265625
286, 910413368, -6.275254726409912, 0.21003368496894836, 7.601838111877441, -7.5378217697143555, -5.028967380523682, -10.924643516540527, 1.11474609375, -0.404541015625, 0.050048828125
287, 910430035, -6.638153076171875, -0.3006238341331482, 7.6464056968688965, -15.730671882629395, 9.373146057128906, -16.30753517150879, 1.11376953125, -0.3984375, 0.05224609375
288, 910446702, -6.776699066162109, -1.7169301509857178, 7.069723129272461, -14.463390350341797, 13.65964412689209, -11.759774208068848, 1.11767578125, -0.394775390625, 0.05615234375
289, 910463369, -7.016254425048828, -1.4206148386001587, 6.902562618255615, -10.148924827575684, 10.597602844238281, -6.574645042419434, 1.11669921875, -0.3916015625, 0.060302734375
290, 910480036, -6.996646881103516, -0.9985886216163635, 7.070101261138916, -9.708549499511719, 7.4120306968688965, -4.674921989440918, 1.1171875, -0.38916015625, 0.062255859375
291, 910496703, -6.802671909332275, -0.5376638174057007, 7.150631904602051, -12.386787414550781, 8.255615234375, -7.549311637878418, 1.119140625, -0.38818359375, 0.067626953125
292, 910513370, -6.676303863525391, -0.09365084767341614, 7.4123125076293945, -23.121294021606445, 16.78453826904297, -18.26788330078125, 1.118408203125, -0.37890625, 0.072509765625
293, 910530037, -6.875596046447754, -0.888420045375824, 7.4303131103515625, -36.42090606689453, 28.3251953125, -32.89487838745117, 1.122802734375, -0.366455078125, 0.0830078125
294, 910546704, -7.281485080718994, -1.2861589193344116, 7.386242866516113, -45.48088073730469, 35.13924026489258, -43.493465423583984, 1.124267578125, -0.35009765625, 0.091552734375
295, 910563371, -7.414392471313477, -1.1928951740264893, 7.080625534057617, -44.04781723022461, 33.36452865600586, -44.158992767333984, 1.12548828125, -0.334228515625, 0.101806640625
296, 910580038, -7.253906726837158, -2.6570277214050293, 6.587291717529297, -36.400657653808594, 24.397079467773438, -37.75151062011719, 1.124755859375, -0.322998046875, 0.114501953125
297, 910596705, -7.110105514526367, -3.18747878074646, 6.146203994750977, -26.411190032958984, 15.031718254089355, -24.062824249267578, 1.123046875, -0.314208984375, 0.1201171875
298, 910613372, -7.007417678833008, -2.9160895347595215, 6.387209892272949, -13.776483535766602, 5.124177932739258, -8.889997482299805, 1.12451171875, -0.3095703125, 0.12451171875
299, 910630039, -7.430788993835449, -2.0893592834472656, 7.020279407501221, -9.277076721191406, 0.09651508182287216, -2.1962509155273438, 1.1259765625, -0.309814453125, 0.127197265625
300, 910646706, -7.484621524810791, -1.762269139289856, 6.534032821655273, -6.626263618469238, -6.676156997680664, -0.35444146394729614, 1.125, -0.30859375, 0.128173828125
301, 910663373, -7.135704040527344, -1.4998711347579956, 5.900051116943359, 1.1399534940719604, -13.662422180175781, 1.5656239986419678, 1.12353515625, -0.310791015625, 0.128173828125
302, 910680040, -6.837063312530518, -1.5480077266693115, 5.841175556182861, 3.9918200969696045, -15.19249439239502, 2.605006217956543, 1.12158203125, -0.312744140625, 0.125
303, 910696707, -6.134330749511719, -2.48636794090271, 5.768118381500244, 6.502756595611572, -11.090617179870605, 10.679386138916016, 1.12109375, -0.31591796875, 0.12451171875
304, 910713374, -6.334972858428955, -3.1897735595703125, 5.7768049240112305, 15.038533210754395, -4.689459323883057, 28.86250114440918, 1.122314453125, -0.32568359375, 0.12109375
305, 910730041, -6.650247573852539, -2.3972434997558594, 6.3009819984436035, 23.189714431762695, -2.3715643882751465, 43.82439422607422, 1.122802734375, -0.335693359375, 0.121337890625
306, 910746708, -7.065938472747803, -0.5200552344322205, 7.221610069274902, 25.26959228515625, 2.7657172679901123, 44.71788024902344, 1.12841796875, -0.3505859375, 0.118408203125
307, 910763375, -7.500421047210693, -0.16395239531993866, 7.189933776855469, 20.906042098999023, 6.783482074737549, 36.19755172729492, 1.130126953125, -0.364990234375, 0.119140625
308, 910780042, -7.490103244781494, -0.6861404776573181, 6.623282432556152, 19.513261795043945, 1.545317530632019, 31.475128173828125, 1.131591796875, -0.3720703125, 0.11865234375
309, 910796709, -7.67432165145874, -0.03756958246231079, 6.950011730194092, 18.250988006591797, -9.119081497192383, 27.965286254882812, 1.13134765625, -0.38330078125, 0.11669921875
310, 910813376, -7.596449851989746, 0.20803503692150116, 7.0060343742370605, 13.216196060180664, -18.150087356567383, 20.3387393951416, 1.13134765625, -0.38916015625, 0.112060546875
311, 910830043, -7.426580905914307, -1.1667954921722412, 6.563068866729736, 15.48521900177002, -31.05889320373535, 17.392311096191406, 1.129150390625, -0.397216796875, 0.102783203125
312, 910846710, -7.093420505523682, -1.2611063718795776, 6.826656341552734, 20.98942756652832, -39.506290435791016, 12.903769493103027, 1.126708984375, -0.405517578125, 0.09521484375
313, 910863377, -6.753729343414307, 0.2985585927963257, 7.4971771240234375, 14.912147521972656, -32.71189498901367, 3.7427046298980713, 1.1220703125, -0.407470703125, 0.083251953125
314, 910880044, -6.773373603820801, 0.667763352394104, 7.5502543449401855, 4.505904197692871, -22.142478942871094, -8.434881210327148, 1.118896484375, -0.406982421875, 0.07763671875
315, 910896711, -6.802103519439697, -0.39629873633384705, 7.367753505706787, -1.972590684890747, -15.539083480834961, -14.442269325256348, 1.116455078125, -0.405029296875, 0.072265625
316, 910913378, -6.637591361999512, -1.2936147451400757, 7.345714092254639, -3.3097779750823975, -6.756328105926514, -11.865015029907227, 1.116943359375, -0.403076171875, 0.07177734375
317, 910930045, -6.832218170166016, -0.5375111103057861, 7.209623336791992, -4.708755970001221, 1.5345278978347778, -9.223265647888184, 1.1171875, -0.40234375, 0.069091796875
318, 910946712, -6.951480865478516, -0.6864197850227356, 6.9781999588012695, -7.716010093688965, 4.037735939025879, -11.145116806030273, 1.11474609375, -0.39990234375, 0.07177734375
319, 910963379, -6.910524368286133, -1.196694016456604, 6.994582653045654, -8.812080383300781, 3.578051805496216, -10.580986022949219, 1.1181640625, -0.396240234375, 0.0732421875
320, 910980046, -6.887538433074951, -1.2084689140319824, 7.012121200561523, -8.47100830078125, 3.5716094970703125, -7.9760541915893555, 1.1181640625, -0.393310546875, 0.07421875
321, 910996713, -6.859508514404297, -1.3757270574569702, 7.069562911987305, -5.5189361572265625, 3.277728319168091, -4.574556827545166, 1.11962890625, -0.394287109375, 0.07373046875
322, 911013380, -6.90937614440918, -1.0069926977157593, 6.971474647521973, -3.3150832653045654, 1.2979234457015991, -3.282491445541382, 1.122314453125, -0.393798828125, 0.075439453125
323, 911030047, -6.886595249176025, -0.9579461216926575, 6.911493301391602, -3.0949618816375732, -1.095314383506775, -2.8682894706726074, 1.122314453125, -0.398193359375, 0.074951171875
324, 911046714, -6.972680568695068, -0.9590943455696106, 7.197821617126465, -3.7883238792419434, -1.044050693511963, -4.126616477966309, 1.122802734375, -0.39990234375, 0.072265625
325, 911063381, -7.005029201507568, -1.4630842208862305, 7.060448169708252, -2.1412856578826904, -0.8127294182777405, -1.4261277914047241, 1.12451171875, -0.3984375, 0.072509765625
326, 911080048, -7.098504066467285, -1.556754469871521, 7.014498233795166, 1.553608775138855, -2.8330078125, 4.506535053253174, 1.125, -0.40234375, 0.071533203125
327, 911096715, -7.103347301483154, -1.1588847637176514, 6.942908763885498, 6.3514862060546875, -7.622408390045166, 9.633832931518555, 1.12451171875, -0.405517578125, 0.06982421875
328, 911113382, -6.826438903808594, -0.7058061957359314, 7.147998809814453, 7.704582214355469, -9.97025203704834, 10.090497016906738, 1.12353515625, -0.41015625, 0.0693359375
329, 911130049, -6.636569976806641, -0.9672829508781433, 7.0094428062438965, 8.362226486206055, -9.355712890625, 11.271589279174805, 1.12255859375, -0.414306640625, 0.06689453125
330, 911146716, -6.675617218017578, -1.7210960388183594, 6.817366600036621, 10.681095123291016, -11.731583595275879, 14.719865798950195, 1.122802734375, -0.419921875, 0.064208984375
331, 911163383, -7.014902114868164, -1.8396492004394531, 6.864985942840576, 19.49488067626953, -16.710159301757812, 25.31777572631836, 1.120849609375, -0.428955078125, 0.063232421875
332, 911180050, -6.970165729522705, 0.17083421349525452, 7.130150318145752, 21.737815856933594, -16.38290786743164, 29.21533203125, 1.119384765625, -0.439208984375, 0.057861328125
333, 911196717, -6.714897155761719, 1.9597121477127075, 7.375201225280762, 10.535820960998535, -11.605158805847168, 15.843267440795898, 1.117431640625, -0.445556640625, 0.05517578125
334, 911213384, -6.446547985076904, 1.8839733600616455, 7.4476213455200195, -6.485150337219238, -2.705867290496826, -6.257478713989258, 1.1181640625, -0.447021484375, 0.0546875
335, 911230051, -6.658936023712158, 0.2487042397260666, 7.2847161293029785, -17.767297744750977, 6.0670318603515625, -20.91946029663086, 1.119873046875, -0.4404296875, 0.058837890625
336, 911246718, -6.515588760375977, -0.8781694769859314, 7.092179775238037, -19.527870178222656, 10.335522651672363, -22.621585845947266, 1.118408203125, -0.435302734375, 0.059326171875
337, 911263385, -6.665291786193848, -1.3083187341690063, 7.048412799835205, -14.450706481933594, 10.833294868469238, -16.780147552490234, 1.121826171875, -0.428955078125, 0.0634765625
338, 911280052, -6.974910259246826, -1.5814001560211182, 6.916133880615234, -5.969311237335205, 5.873551845550537, -7.66466760635376, 1.123779296875, -0.42431640625, 0.061767578125
339, 911296719, -7.005359172821045, -1.1582506895065308, 7.050593852996826, -0.02836606279015541, -0.8571673631668091, -1.1338998079299927, 1.123291015625, -0.425537109375, 0.06396484375
340, 911313386, -6.95810079574585, -0.3904842138290405, 7.206216335296631, 0.7022681832313538, -4.252963542938232, -0.9377322793006897, 1.120849609375, -0.427490234375, 0.064453125
341, 911330053, -6.847334384918213, -0.14575397968292236, 7.270602703094482, -1.521164059638977, -3.7166337966918945, -3.57269024848938, 1.121826171875, -0.425537109375, 0.062255859375
342, 911346720, -6.827813625335693, -0.22038422524929047, 7.209555625915527, -3.866558074951172, -1.737655758857727, -6.567930698394775, 1.120849609375, -0.425537109375, 0.064208984375
343, 911363387, -6.716485977172852, -0.4544669985771179, 7.160206317901611, -4.948976516723633, -0.29517361521720886, -8.116127967834473, 1.121826171875, -0.42431640625, 0.063720703125
344, 911380054, -6.839249134063721, -1.066904067993164, 7.009279251098633, -3.378303289413452, -0.7078968286514282, -6.094902515411377, 1.121337890625, -0.4228515625, 0.061279296875
345, 911396721, -6.862551212310791, -0.9663558006286621, 7.045750141143799, -1.4867916107177734, -3.138810873031616, -3.525357723236084, 1.11962890625, -0.42236328125, 0.063232421875
346, 911413388, -6.806714057922363, -0.834281861782074, 7.123428821563721, -0.3593462109565735, -4.336639881134033, -1.6626996994018555, 1.1201171875, -0.421875, 0.060791015625
347, 911430055, -6.815003395080566, -0.6820777654647827, 7.136936664581299, 0.3582640588283539, -4.897429943084717, -0.5461652278900146, 1.12060546875, -0.42138671875, 0.062255859375
348, 911446722, -6.8225789070129395, -0.5357593297958374, 7.1598310470581055, -0.13499173521995544, -5.048699378967285, -0.42456895112991333, 1.120849609375, -0.423828125, 0.061279296875
349, 911463389, -6.769226551055908, -0.4764306843280792, 7.21653413772583, -1.1869052648544312, -4.558291912078857, -1.08527410030365, 1.1201171875, -0.424560546875, 0.059814453125
350, 911480056, -6.760937690734863, -0.5882629156112671, 7.200475692749023, -1.5978868007659912, -2.9285945892333984, -1.5063854455947876, 1.120849609375, -0.425048828125, 0.05908203125
351, 911496723, -6.808499813079834, -0.541753351688385, 7.18099308013916, -1.9220666885375977, -1.5307815074920654, -1.622820496559143, 1.121826171875, -0.426513671875, 0.05859375
352, 911513390, -6.829775333404541, -0.5133441686630249, 7.162945747375488, -2.6397602558135986, -1.1791318655014038, -2.472048282623291, 1.120361328125, -0.426025390625, 0.0595703125
353, 911530057, -6.817397594451904, -0.6379768252372742, 7.146028518676758, -2.990577459335327, -1.3159934282302856, -2.8129279613494873, 1.120849609375, -0.424560546875, 0.05712890625
354, 911546724, -6.789129734039307, -0.6945824027061462, 7.149778842926025, -2.72102952003479, -1.5503498315811157, -2.5145654678344727, 1.12109375, -0.42333984375, 0.05908203125
355, 911563391, -6.815293312072754, -0.5484262704849243, 7.136554718017578, -2.6315131187438965, -1.6210920810699463, -2.429006338119507, 1.12109375, -0.42236328125, 0.06005859375
356, 911580058, -6.800845623016357, -0.5985127091407776, 7.143646717071533, -2.742940902709961, -1.8494161367416382, -2.839923143386841, 1.119140625, -0.424560546875, 0.05859375
357, 911596725, -6.766465187072754, -0.7190076112747192, 7.13096284866333, -2.570606231689453, -1.9466935396194458, -2.433065891265869, 1.12109375, -0.42333984375, 0.059814453125
358, 911613392, -6.797069072723389, -0.652271032333374, 7.125119686126709, -2.101841926574707, -1.955042839050293, -1.9234496355056763, 1.12060546875, -0.42333984375, 0.061279296875
359, 911630059, -6.784933090209961, -0.4957558512687683, 7.1481733322143555, -2.186697006225586, -1.9156889915466309, -2.4404678344726562, 1.1201171875, -0.425537109375, 0.05908203125
360, 911646726, -6.768143177032471, -0.47021958231925964, 7.160931587219238, -2.4947285652160645, -1.7199697494506836, -3.265350341796875, 1.121337890625, -0.423828125, 0.05908203125
361, 911663393, -6.779538154602051, -0.4789242744445801, 7.159331798553467, -3.188781499862671, -1.334485650062561, -4.315586566925049, 1.1201171875, -0.423828125, 0.056640625
362, 911680060, -6.773433208465576, -0.6122903823852539, 7.171308994293213, -3.7043142318725586, -0.989290714263916, -5.175200462341309, 1.11767578125, -0.421875, 0.055908203125
363, 911696727, -6.7888078689575195, -0.828455924987793, 7.130307197570801, -3.455486536026001, -0.704426109790802, -4.498358726501465, 1.11962890625, -0.4208984375, 0.05908203125
364, 911713394, -6.808055877685547, -0.7851786613464355, 7.1326189041137695, -2.669137954711914, -0.958977997303009, -3.2390589714050293, 1.12109375, -0.423828125, 0.05810546875
365, 911730061, -6.832796573638916, -0.6250651478767395, 7.150870323181152, -2.29012131690979, -0.9528309106826782, -2.739342451095581, 1.12060546875, -0.42236328125, 0.05810546875
366, 911746728, -6.849558353424072, -0.5715125203132629, 7.176718235015869, -2.5356576442718506, -0.4194720387458801, -3.0437495708465576, 1.119140625, -0.419921875, 0.05810546875
367, 911763395, -6.842286586761475, -0.6834310293197632, 7.151866436004639, -2.5336151123046875, -0.4366261661052704, -3.07277512550354, 1.12109375, -0.421875, 0.0595703125
368, 911780062, -6.824222087860107, -0.7132549285888672, 7.160266399383545, -2.337350845336914, -0.9426755309104919, -2.778491497039795, 1.1201171875, -0.42041015625, 0.05712890625
369, 911796729, -6.806821346282959, -0.6377901434898376, 7.145572662353516, -2.2923238277435303, -1.0120857954025269, -2.533454418182373, 1.12109375, -0.421875, 0.0595703125
370, 911813396, -6.8133344650268555, -0.7001686692237854, 7.142223358154297, -2.4761338233947754, -1.2611823081970215, -2.627133369445801, 1.1201171875, -0.42041015625, 0.05712890625
371, 911830063, -6.837329864501953, -0.6586589813232422, 7.138704776763916, -2.5045509338378906, -1.6097456216812134, -2.6358542442321777, 1.122802734375, -0.42041015625, 0.05810546875
372, 911846730, -6.82138204574585, -0.6305251717567444, 7.15589714050293, -2.726343870162964, -1.494641900062561, -2.9582412242889404, 1.12158203125, -0.419921875, 0.05810546875
373, 911863397, -6.8193464279174805, -0.6842823624610901, 7.133297920227051, -3.0902562141418457, -1.568901777267456, -3.2117555141448975, 1.121826171875, -0.42138671875, 0.05859375
374, 911880064, -6.80758810043335, -0.6394075155258179, 7.1327290534973145, -2.960648775100708, -1.473703384399414, -2.9141616821289062, 1.119140625, -0.42041015625, 0.05615234375
375, 911896731, -6.779770374298096, -0.8402611017227173, 7.145386219024658, -2.6303858757019043, -1.5841326713562012, -2.220198392868042, 1.119140625, -0.42041015625, 0.055908203125
376, 911913398, -6.7721171379089355, -0.7999841570854187, 7.1246657371521, -1.7528820037841797, -1.9756356477737427, -0.7472377419471741, 1.12109375, -0.42138671875, 0.05810546875
377, 911930065, -6.79178524017334, -0.6545414924621582, 7.146740436553955, -0.9227103590965271, -2.5241189002990723, 0.11284315586090088, 1.1201171875, -0.42138671875, 0.05810546875
378, 911946732, -6.818726062774658, -0.5150457620620728, 7.180067539215088, -1.009447693824768, -2.281681776046753, -0.11922712624073029, 1.12060546875, -0.42236328125, 0.0556640625
379, 911963399, -6.8185224533081055, -0.5801746845245361, 7.175474166870117, -1.4522398710250854, -1.8279911279678345, -0.9889318943023682, 1.119140625, -0.4208984375, 0.056640625
380, 911980066, -6.800136566162109, -0.6311103701591492, 7.144111156463623, -1.6512765884399414, -1.4253339767456055, -0.9771245121955872, 1.12109375, -0.4208984375, 0.05712890625
381, 911996733, -6.856043815612793, -0.6067575216293335, 7.162940502166748, -1.7876895666122437, -1.5011472702026367, -1.2574682235717773, 1.12109375, -0.42333984375, 0.05517578125
382, 912013400, -6.845251560211182, -0.5698367953300476, 7.160364151000977, -1.9137810468673706, -1.6334627866744995, -1.6032910346984863, 1.119140625, -0.42236328125, 0.05712890625
383, 912030067, -6.819879531860352, -0.5684263706207275, 7.1916632652282715, -2.1288249492645264, -1.5970029830932617, -2.2128090858459473, 1.12109375, -0.42333984375, 0.05615234375
384, 912046734, -6.81780481338501, -0.6362214088439941, 7.169416904449463, -2.1425278186798096, -1.8538216352462769, -2.205368757247925, 1.12060546875, -0.424072265625, 0.05712890625
385, 912063401, -6.806001663208008, -0.6306994557380676, 7.160332202911377, -2.0842978954315186, -2.0164623260498047, -2.1206164360046387, 1.11962890625, -0.42333984375, 0.0576171875
386, 912080068, -6.788711071014404, -0.6381284594535828, 7.1395039558410645, -1.870700478553772, -2.351719856262207, -2.136317014694214, 1.123291015625, -0.425537109375, 0.0556640625
387, 912096735, -6.78397798538208, -0.6242221593856812, 7.147486686706543, -1.87369704246521, -2.2860870361328125, -2.164196252822876, 1.12109375, -0.42333984375, 0.05615234375
388, 912113402, -6.770645618438721, -0.6086628437042236, 7.172693252563477, -1.8877453804016113, -2.045366048812866, -2.1131885051727295, 1.12109375, -0.42333984375, 0.05712890625
389, 912130069, -6.7839860916137695, -0.6048831343650818, 7.1622819900512695, -1.948729395866394, -1.7167935371398926, -2.1437058448791504, 1.11962890625, -0.425048828125, 0.05712890625
390, 912146736, -6.782529830932617, -0.6044375896453857, 7.15763521194458, -2.119835138320923, -1.5632966756820679, -2.0989480018615723, 1.11962890625, -0.423828125, 0.054443359375
391, 912163403, -6.803076267242432, -0.5776177644729614, 7.1664252281188965, -2.108360767364502, -1.3308486938476562, -2.110409736633301, 1.1201171875, -0.424072265625, 0.05517578125
392, 912180070, -6.802653789520264, -0.6338285207748413, 7.153802394866943, -1.9848557710647583, -1.2881009578704834, -2.093287467956543, 1.11962890625, -0.4228515625, 0.05615234375
393, 912196737, -6.816683769226074, -0.660808801651001, 7.128612518310547, -1.9279321432113647, -1.521484136581421, -1.9078131914138794, 1.11962890625, -0.425048828125, 0.056640625
394, 912213404, -6.797420978546143, -0.6368832588195801, 7.160919666290283, -1.9664279222488403, -1.6895800828933716, -1.7581967115402222, 1.119140625, -0.426513671875, 0.05712890625
395, 912230071, -6.8180437088012695, -0.6254572868347168, 7.17597770690918, -2.0279877185821533, -1.872288465499878, -1.8042224645614624, 1.1201171875, -0.425537109375, 0.0556640625
396, 912246738, -6.8128581047058105, -0.5706555843353271, 7.1874098777771, -2.155820846557617, -1.6578971147537231, -1.8784223794937134, 1.119873046875, -0.427001953125, 0.0546875
397, 912263405, -6.810586452484131, -0.5762532353401184, 7.162398338317871, -2.409937620162964, -1.7064334154129028, -2.2896602153778076, 1.12060546875, -0.424072265625, 0.05517578125
398, 912280072, -6.8061981201171875, -0.5948026180267334, 7.165010452270508, -2.4738543033599854, -1.6562966108322144, -2.441044330596924, 1.1201171875, -0.424072265625, 0.054443359375
399, 912296739, -6.800779819488525, -0.6141153573989868, 7.15621280670166, -2.517894983291626, -1.6113463640213013, -2.6100242137908936, 1.11767578125, -0.42236328125, 0.056396484375
400, 912313406, -6.7928314208984375, -0.6150163412094116, 7.185105800628662, -2.6071293354034424, -1.761065125465393, -2.640361785888672, 1.1201171875, -0.42333984375, 0.0576171875
401, 912330073, -6.825790882110596, -0.5998230576515198, 7.163094520568848, -2.6340739727020264, -1.8296175003051758, -2.547464609146118, 1.119140625, -0.424072265625, 0.0576171875
402, 912346740, -6.788364410400391, -0.6223596930503845, 7.207313060760498, -2.6988484859466553, -1.69074547290802, -2.7962405681610107, 1.1201171875, -0.42333984375, 0.054931640625
403, 912363407, -6.812664985656738, -0.5750669836997986, 7.171995639801025, -3.0677998065948486, -1.219753623008728, -2.8501172065734863, 1.11962890625, -0.424072265625, 0.053955078125
404, 912380074, -6.806156635284424, -0.5910046100616455, 7.181115627288818, -3.2365875244140625, -0.8874800801277161, -3.005061388015747, 1.11962890625, -0.424560546875, 0.0556640625
405, 912396741, -6.778387069702148, -0.6312651038169861, 7.156833171844482, -2.9893345832824707, -0.791714072227478, -2.6937255859375, 1.1181640625, -0.42041015625, 0.055908203125
406, 912413408, -6.783721446990967, -0.6546149253845215, 7.110042572021484, -2.5550973415374756, -1.0271333456039429, -2.273664951324463, 1.12060546875, -0.424560546875, 0.0556640625
407, 912430075, -6.786350250244141, -0.6378946900367737, 7.138075828552246, -2.2601544857025146, -1.0188732147216797, -1.8309496641159058, 1.11962890625, -0.424560546875, 0.05615234375
408, 912446742, -6.802070617675781, -0.5880889296531677, 7.1451311111450195, -2.1405043601989746, -1.0344328880310059, -1.7382444143295288, 1.11962890625, -0.42236328125, 0.055419921875
409, 912463409, -6.811448574066162, -0.6114811301231384, 7.139575958251953, -2.195517063140869, -0.836703896522522, -1.8963655233383179, 1.1201171875, -0.42138671875, 0.0556640625
410, 912480076, -6.816624164581299, -0.587607741355896, 7.140891075134277, -2.473315954208374, -0.96699458360672, -2.307089328765869, 1.121826171875, -0.42333984375, 0.05712890625
411, 912496743, -6.813117980957031, -0.6037673950195312, 7.147200584411621, -2.7692325115203857, -0.6032559275627136, -2.5708236694335938, 1.11962890625, -0.4228515625, 0.05615234375
412, 912513410, -6.805718898773193, -0.6537543535232544, 7.147651195526123, -2.9765164852142334, -0.5978133082389832, -2.641655683517456, 1.121826171875, -0.42431640625, 0.0576171875
413, 912530077, -6.815662384033203, -0.61751389503479, 7.1420817375183105, -2.746027708053589, -0.7662807703018188, -2.5495524406433105, 1.12060546875, -0.424072265625, 0.05810546875
414, 912546744, -6.80791711807251, -0.6246757507324219, 7.159897804260254, -2.7154970169067383, -1.029361605644226, -2.584872007369995, 1.122314453125, -0.42431640625, 0.05712890625
415, 912563411, -6.816441535949707, -0.6513530015945435, 7.12897253036499, -2.7363460063934326, -1.2898045778274536, -2.6358542442321777, 1.122314453125, -0.424560546875, 0.05712890625
416, 912580078, -6.822262287139893, -0.641786515712738, 7.1552886962890625, -2.697875738143921, -1.4401766061782837, -2.5743839740753174, 1.121337890625, -0.423828125, 0.056640625
417, 912596745, -6.7924885749816895, -0.6393479704856873, 7.168979167938232, -2.768310070037842, -1.4563124179840088, -2.645369291305542, 1.11962890625, -0.423828125, 0.05859375
418, 912613412, -6.813108444213867, -0.6234645843505859, 7.149677276611328, -2.808227777481079, -1.370318055152893, -2.5603864192962646, 1.11962890625, -0.4228515625, 0.05859375
419, 912630079, -6.807356357574463, -0.6019059419631958, 7.162043571472168, -2.9259564876556396, -1.205743432044983, -2.845353364944458, 1.12109375, -0.4228515625, 0.05859375
420, 912646746, -6.8094096183776855, -0.597939670085907, 7.140925884246826, -3.0246424674987793, -1.145733118057251, -3.0664806365966797, 1.12158203125, -0.41943359375, 0.0576171875
421, 912663413, -6.811253070831299, -0.6224976181983948, 7.140029430389404, -2.9650025367736816, -1.1759685277938843, -3.031134605407715, 1.121826171875, -0.42236328125, 0.05810546875
422, 912680080, -6.814571380615234, -0.6378098726272583, 7.136337757110596, -2.708223342895508, -1.0971201658248901, -2.6839168071746826, 1.12060546875, -0.4228515625, 0.0556640625
423, 912696747, -6.777956485748291, -0.7346245646476746, 7.132350921630859, -2.044175386428833, -1.2041555643081665, -1.7294464111328125, 1.12158203125, -0.42041015625, 0.05615234375
424, 912713414, -6.785315990447998, -0.7227991223335266, 7.124133586883545, -1.266471028327942, -1.313688039779663, -0.34297963976860046, 1.122314453125, -0.421875, 0.05712890625
425, 912730081, -6.810000419616699, -0.663033127784729, 7.130336284637451, -0.964919924736023, -1.4847170114517212, 0.4603946805000305, 1.121337890625, -0.42333984375, 0.0576171875
426, 912746748, -6.821163654327393, -0.5994735360145569, 7.1404500007629395, -1.048724889755249, -1.8141732215881348, 0.5272566676139832, 1.120849609375, -0.424560546875, 0.05712890625
427, 912763415, -6.825994491577148, -0.5289342999458313, 7.159708023071289, -1.4630872011184692, -1.7246184349060059, -0.13120105862617493, 1.121337890625, -0.42333984375, 0.05810546875
428, 912780082, -6.8087029457092285, -0.5354619026184082, 7.1698431968688965, -2.0406532287597656, -1.251129150390625, -1.2027723789215088, 1.121337890625, -0.425048828125, 0.05810546875
429, 912796749, -6.806457996368408, -0.5797455310821533, 7.157071113586426, -2.4890546798706055, -0.9100064039230347, -1.8604295253753662, 1.121337890625, -0.425048828125, 0.0576171875
430, 912813416, -6.83608341217041, -0.5814762711524963, 7.14757776260376, -2.582643985748291, -0.9739359021186829, -2.140030860900879, 1.12060546875, -0.425048828125, 0.05712890625
431, 912830083, -6.841923236846924, -0.6115249395370483, 7.1190948486328125, -2.5699403285980225, -1.229051113128662, -2.2675180435180664, 1.121826171875, -0.425048828125, 0.05908203125
432, 912846750, -6.8484930992126465, -0.5960309505462646, 7.126671314239502, -2.4068000316619873, -1.8944562673568726, -2.43424391746521, 1.123291015625, -0.425048828125, 0.05615234375
433, 912863417, -6.8222527503967285, -0.585965633392334, 7.143104553222656, -2.4286346435546875, -2.2799787521362305, -2.69918155670166, 1.123291015625, -0.426025390625, 0.05859375
434, 912880084, -6.815205097198486, -0.6057752966880798, 7.146883964538574, -2.41461181640625, -2.395684242248535, -2.8486061096191406, 1.122314453125, -0.425048828125, 0.05712890625
435, 912896751, -6.811575889587402, -0.5516602993011475, 7.151424407958984, -2.5756261348724365, -2.1381611824035645, -3.0750739574432373, 1.121337890625, -0.426025390625, 0.05810546875
436, 912913418, -6.832467555999756, -0.5826621651649475, 7.155580997467041, -2.7562079429626465, -1.9147922992706299, -3.4893205165863037, 1.121826171875, -0.42431640625, 0.05615234375
437, 912930085, -6.81304931640625, -0.625457763671875, 7.129908561706543, -2.897385597229004, -1.9343223571777344, -3.5911056995391846, 1.123291015625, -0.423828125, 0.05712890625
438, 912946752, -6.801162242889404, -0.6334218978881836, 7.145962715148926, -2.9388909339904785, -2.0302164554595947, -3.464566230773926, 1.120849609375, -0.42431640625, 0.05810546875
439, 912963419, -6.805172443389893, -0.6413875222206116, 7.1547393798828125, -2.738523006439209, -1.7962957620620728, -3.2770047187805176, 1.11962890625, -0.423828125, 0.0556640625
440, 912980086, -6.813170909881592, -0.6515478491783142, 7.153980731964111, -2.6482763290405273, -1.7767786979675293, -3.006214141845703, 1.11962890625, -0.42333984375, 0.054443359375
441, 912996753, -6.824819564819336, -0.6363433599472046, 7.153662204742432, -2.6769113540649414, -1.8795112371444702, -2.903327465057373, 1.12060546875, -0.421875, 0.056640625
442, 913013420, -6.805936813354492, -0.638827919960022, 7.145040035247803, -2.5583629608154297, -1.917571783065796, -2.8851428031921387, 1.1201171875, -0.42333984375, 0.05859375
443, 913030087, -6.798260688781738, -0.6284375190734863, 7.152179718017578, -2.459280014038086, -1.9019479751586914, -2.8192667961120605, 1.122314453125, -0.42431640625, 0.05712890625
444, 913046754, -6.7978715896606445, -0.5888647437095642, 7.174775123596191, -2.575305700302124, -1.7058444023132324, -2.9814846515655518, 1.122802734375, -0.4228515625, 0.05810546875
445, 913063421, -6.800373077392578, -0.6582847237586975, 7.144806385040283, -2.640190362930298, -1.5249396562576294, -2.868513822555542, 1.11962890625, -0.42138671875, 0.055419921875
446, 913080088, -6.799697399139404, -0.6526570320129395, 7.138945579528809, -2.490860939025879, -1.5666521787643433, -2.472893714904785, 1.1201171875, -0.41943359375, 0.054443359375
447, 913096755, -6.80623722076416, -0.6449226140975952, 7.159761428833008, -2.3842222690582275, -1.6546573638916016, -2.302274465560913, 1.12060546875, -0.42333984375, 0.0556640625
448, 913113422, -6.8145246505737305, -0.6131404042243958, 7.142579555511475, -2.289787769317627, -1.551053762435913, -2.4372146129608154, 1.12109375, -0.4208984375, 0.056640625
449, 913130089, -6.8011651039123535, -0.6376446485519409, 7.164172649383545, -2.4852514266967773, -1.4815537929534912, -2.4601638317108154, 1.1201171875, -0.419921875, 0.054931640625
450, 913146756, -6.810619354248047, -0.6326799392700195, 7.159516334533691, -2.4267139434814453, -1.5208821296691895, -2.5208661556243896, 1.119140625, -0.4208984375, 0.05615234375
451, 913163423, -6.8185954093933105, -0.6393779516220093, 7.165525913238525, -2.414983034133911, -1.6671947240829468, -2.491091251373291, 1.12158203125, -0.4208984375, 0.0576171875
452, 913180090, -6.813817501068115, -0.6254619359970093, 7.142766952514648, -2.410987615585327, -1.7803901433944702, -2.6182713508605957, 1.12060546875, -0.42041015625, 0.05712890625
453, 913196757, -6.815243244171143, -0.6203762888908386, 7.144449234008789, -2.4855847358703613, -1.8265187740325928, -2.655268907546997, 1.12109375, -0.42236328125, 0.056640625
454, 913213424, -6.792166233062744, -0.6486106514930725, 7.161695957183838, -2.570439338684082, -1.8451899290084839, -2.7578728199005127, 1.11865234375, -0.4228515625, 0.05615234375
455, 913230091, -6.807075500488281, -0.6295366287231445, 7.138770580291748, -2.6211395263671875, -1.6572823524475098, -2.6690735816955566, 1.12158203125, -0.42236328125, 0.05712890625
456, 913246758, -6.816335678100586, -0.6143611669540405, 7.170444965362549, -2.7214515209198, -1.6251128911972046, -2.7684638500213623, 1.1181640625, -0.42041015625, 0.056640625
457, 913263425, -6.811570167541504, -0.6548048853874207, 7.135400772094727, -2.721938371658325, -1.6206308603286743, -2.7987256050109863, 1.12158203125, -0.421875, 0.056640625
458, 913280092, -6.802018642425537, -0.6508557796478271, 7.148721218109131, -2.707198143005371, -1.768121361732483, -2.756412982940674, 1.1201171875, -0.421875, 0.055419921875
459, 913296759, -6.787242412567139, -0.670443594455719, 7.150949478149414, -2.442427158355713, -1.872288703918457, -2.4767098426818848, 1.1201171875, -0.42041015625, 0.055908203125
460, 913313426, -6.800814628601074, -0.6058592200279236, 7.1646952629089355, -2.47859263420105, -1.7751013040542603, -2.434410572052002, 1.11962890625, -0.4208984375, 0.055908203125
461, 913330093, -6.807436466217041, -0.6244553327560425, 7.17982292175293, -2.6368401050567627, -1.6242291927337646, -2.7184932231903076, 1.11962890625, -0.421875, 0.055908203125
462, 913346760, -6.804114818572998, -0.6469814777374268, 7.161214351654053, -2.8418827056884766, -1.5417948961257935, -2.9229726791381836, 1.1201171875, -0.42236328125, 0.05615234375
463, 913363427, -6.787221908569336, -0.6620705723762512, 7.16874361038208, -2.852076768875122, -1.5673308372497559, -2.917786121368408, 1.12158203125, -0.421875, 0.056640625
464, 913380094, -6.795237064361572, -0.673026442527771, 7.150533199310303, -2.7317097187042236, -1.670562744140625, -2.8792645931243896, 1.12109375, -0.419921875, 0.054443359375
465, 913396761, -6.798056125640869, -0.6386818289756775, 7.165667533874512, -2.765979290008545, -1.6952788829803467, -2.8388986587524414, 1.119140625, -0.4189453125, 0.056396484375
466, 913413428, -6.797967433929443, -0.6250370144844055, 7.181360721588135, -2.9442825317382812, -1.489493727684021, -3.055697441101074, 1.1201171875, -0.419921875, 0.055908203125
467, 913430095, -6.807507514953613, -0.6118693351745605, 7.178218841552734, -3.292064666748047, -1.3937792778015137, -3.60129976272583, 1.12158203125, -0.4189453125, 0.055419921875
468, 913446762, -6.794336318969727, -0.6119665503501892, 7.206230640411377, -3.8887124061584473, -1.104022741317749, -4.259251594543457, 1.12109375, -0.4208984375, 0.055419921875
469, 913463429, -6.78664493560791, -0.6196956038475037, 7.183786869049072, -4.208205699920654, -0.49897387623786926, -4.798872470855713, 1.12109375, -0.417236328125, 0.055419921875
470, 913480096, -6.802121162414551, -0.6712606549263, 7.160636901855469, -4.4506425857543945, -0.03191342577338219, -4.951114654541016, 1.12060546875, -0.417724609375, 0.053955078125
471, 913496763, -6.806070804595947, -0.691725492477417, 7.146272659301758, -4.476626873016357, -0.02887832000851631, -4.914078712463379, 1.11962890625, -0.415771484375, 0.056884765625
472, 913513430, -6.811315059661865, -0.6938309669494629, 7.168567657470703, -4.458403587341309, 0.01388848852366209, -4.809015274047852, 1.11962890625, -0.4130859375, 0.05712890625
473, 913530097, -6.82293176651001, -0.696174681186676, 7.1413350105285645, -4.701429843902588, 0.36844512820243835, -4.93682336807251, 1.12109375, -0.413818359375, 0.05712890625
474, 913546764, -6.827828884124756, -0.7315232753753662, 7.12527322769165, -4.618149280548096, 0.3301028907299042, -4.862302303314209, 1.1201171875, -0.41259765625, 0.0595703125
475, 913563431, -6.816518306732178, -0.7158342599868774, 7.1601643562316895, -4.513304233551025, 0.047710057348012924, -4.781340599060059, 1.1220703125, -0.41064453125, 0.05810546875
476, 913580098, -6.816050052642822, -0.7687898874282837, 7.126465797424316, -4.394294261932373, -0.011282396502792835, -4.657862186431885, 1.120361328125, -0.40966796875, 0.05810546875
477, 913596765, -6.817793369293213, -0.7829139828681946, 7.141164779663086, -4.213276386260986, -0.06952567398548126, -4.433775901794434, 1.119873046875, -0.41064453125, 0.05859375
478, 913613432, -6.826873302459717, -0.8007829785346985, 7.100391387939453, -3.8199033737182617, -0.4117881953716278, -3.9042458534240723, 1.12060546875, -0.4111328125, 0.05859375
479, 913630099, -6.8178324699401855, -0.8086596131324768, 7.097207546234131, -3.40053391456604, -0.9581968188285828, -3.498080253601074, 1.12109375, -0.41064453125, 0.0595703125
480, 913646766, -6.816877841949463, -0.8023110628128052, 7.120468616485596, -2.959829807281494, -1.4764058589935303, -3.0889816284179688, 1.123046875, -0.407958984375, 0.0615234375
481, 913663433, -6.819528579711914, -0.7650182843208313, 7.100838661193848, -2.6778390407562256, -1.6770700216293335, -2.771768093109131, 1.119384765625, -0.40869140625, 0.06005859375
482, 913680100, -6.822879314422607, -0.7805272340774536, 7.120303153991699, -2.627338409423828, -1.6314396858215332, -2.5487327575683594, 1.119873046875, -0.408447265625, 0.05908203125
483, 913696767, -6.82722806930542, -0.7677038908004761, 7.135075092315674, -2.535606861114502, -1.570724606513977, -2.4757494926452637, 1.12158203125, -0.40966796875, 0.06103515625
484, 913713434, -6.81930685043335, -0.7813858985900879, 7.114821910858154, -2.459728479385376, -1.616865634918213, -2.3974769115448, 1.120361328125, -0.407958984375, 0.06103515625
485, 913730101, -6.829550743103027, -0.7639947533607483, 7.112612247467041, -2.3363137245178223, -1.6199135780334473, -2.2502806186676025, 1.12158203125, -0.40869140625, 0.06005859375
486, 913746768, -6.826236248016357, -0.7616621255874634, 7.115447521209717, -2.1834185123443604, -1.8370579481124878, -2.1209876537323, 1.12158203125, -0.407470703125, 0.05908203125
487, 913763435, -6.834103584289551, -0.7939968705177307, 7.126695156097412, -1.8547948598861694, -2.0780222415924072, -1.8082693815231323, 1.1220703125, -0.40869140625, 0.05908203125
488, 913780102, -6.820847511291504, -0.8081648945808411, 7.099711894989014, -1.1619585752487183, -2.7764933109283447, -1.1995964050292969, 1.119873046875, -0.41162109375, 0.05908203125
489, 913796769, -6.818928241729736, -0.7683614492416382, 7.135483264923096, -1.0888983011245728, -3.1308581829071045, -1.0333189964294434, 1.12109375, -0.41015625, 0.05859375
490, 913813436, -6.830513000488281, -0.7195099592208862, 7.163540363311768, -1.2800332307815552, -2.968627452850342, -1.2534728050231934, 1.120849609375, -0.4091796875, 0.05810546875
491, 913830103, -6.8191304206848145, -0.7424572110176086, 7.134140491485596, -1.6441431045532227, -2.7192234992980957, -1.5762438774108887, 1.12109375, -0.4111328125, 0.05712890625
492, 913846770, -6.80876350402832, -0.7070669531822205, 7.166944980621338, -1.9355900287628174, -2.3116486072540283, -1.8642715215682983, 1.12060546875, -0.41162109375, 0.060546875
493, 913863437, -6.79953145980835, -0.7338259220123291, 7.144347667694092, -2.188669204711914, -1.828734040260315, -2.216510534286499, 1.12060546875, -0.41064453125, 0.057373046875
494, 913880104, -6.795439720153809, -0.7525334358215332, 7.149614334106445, -2.4017412662506104, -1.616148591041565, -2.3002254962921143, 1.1201171875, -0.4111328125, 0.05859375
495, 913896771, -6.796207427978516, -0.7447400689125061, 7.14026403427124, -2.763136625289917, -1.3764266967773438, -2.3462772369384766, 1.120361328125, -0.41064453125, 0.05810546875
496, 913913438, -6.808483600616455, -0.7273862957954407, 7.1332244873046875, -2.7962920665740967, -1.262309193611145, -2.365422487258911, 1.1220703125, -0.41064453125, 0.0595703125
497, 913930105, -6.81650447845459, -0.7387511134147644, 7.123841285705566, -2.8396546840667725, -1.202298641204834, -2.5379626750946045, 1.119384765625, -0.41064453125, 0.054931640625
498, 913946772, -6.799862384796143, -0.7448184490203857, 7.125699996948242, -2.808701992034912, -1.179656982421875, -2.621601104736328, 1.1220703125, -0.4111328125, 0.0576171875
499, 913963439, -6.810474872589111, -0.7419326305389404, 7.149223327636719, -2.838655948638916, -1.236376404762268, -2.6485843658447266, 1.1201171875, -0.41162109375, 0.05859375
500, 913980106, -6.820257663726807, -0.7303217053413391, 7.152807235717773, -2.850590467453003, -1.358407735824585, -2.7721519470214844, 1.119873046875, -0.41064453125, 0.0595703125
501, 913996773, -6.79897403717041, -0.7427325248718262, 7.138241291046143, -2.8873965740203857, -1.315186619758606, -2.8725411891937256, 1.119873046875, -0.40869140625, 0.0595703125
502, 914013440, -6.807194232940674, -0.7732301354408264, 7.1291704177856445, -2.808457851409912, -1.2156810760498047, -2.7006025314331055, 1.119384765625, -0.41162109375, 0.0595703125
503, 914030107, -6.8223724365234375, -0.7532105445861816, 7.144059181213379, -2.780348300933838, -1.3474586009979248, -2.737062692642212, 1.119873046875, -0.40966796875, 0.05810546875
504, 914046774, -6.81125020980835, -0.7633134722709656, 7.12637186050415, -2.599407911300659, -1.4414829015731812, -2.6710081100463867, 1.1220703125, -0.41162109375, 0.05859375
505, 914063441, -6.803819179534912, -0.7703201174736023, 7.119838714599609, -2.4885942935943604, -1.7180745601654053, -2.550640821456909, 1.119873046875, -0.40869140625, 0.05908203125
506, 914080108, -6.801189422607422, -0.766765296459198, 7.129350185394287, -2.356727123260498, -1.6806541681289673, -2.4275591373443604, 1.120361328125, -0.41015625, 0.056884765625
507, 914096775, -6.815566062927246, -0.7359739542007446, 7.165289878845215, -2.559272527694702, -1.576500415802002, -2.4298388957977295, 1.119384765625, -0.407958984375, 0.0595703125
508, 914113442, -6.810865879058838, -0.7573394775390625, 7.145461082458496, -2.5421502590179443, -1.5228415727615356, -2.509263515472412, 1.12109375, -0.40869140625, 0.05810546875
509, 914130109, -6.817397594451904, -0.7372047901153564, 7.127654075622559, -2.642603635787964, -1.4726663827896118, -2.568634033203125, 1.118896484375, -0.40966796875, 0.05859375
510, 914146776, -6.8215203285217285, -0.7366745471954346, 7.142821311950684, -2.7074670791625977, -1.5749374628067017, -2.7038557529449463, 1.120361328125, -0.40869140625, 0.05908203125
511, 914163443, -6.808769226074219, -0.7811270952224731, 7.109241485595703, -2.5634467601776123, -1.5637192726135254, -2.776608467102051, 1.118408203125, -0.40869140625, 0.057373046875
512, 914180110, -6.815333843231201, -0.7703970074653625, 7.1457366943359375, -2.754619836807251, -1.5408214330673218, -2.8051154613494873, 1.12060546875, -0.41015625, 0.05859375
513, 914196777, -6.801234245300293, -0.7505359053611755, 7.1438093185424805, -2.682251453399658, -1.5691747665405273, -2.9083986282348633, 1.120849609375, -0.407470703125, 0.057373046875
514, 914213444, -6.81726598739624, -0.7659279108047485, 7.138999938964844, -2.6075775623321533, -1.586348056793213, -2.994201183319092, 1.12353515625, -0.407470703125, 0.05859375
515, 914230111, -6.811146259307861, -0.7942270040512085, 7.117395877838135, -2.643371820449829, -1.6717153787612915, -2.938621997833252, 1.12158203125, -0.407958984375, 0.05908203125
516, 914246778, -6.798442363739014, -0.7650007605552673, 7.128358364105225, -2.57314133644104, -1.723158359527588, -2.8907644748687744, 1.12255859375, -0.408447265625, 0.05908203125
517, 914263445, -6.7957000732421875, -0.7818585634231567, 7.123377323150635, -2.5424582958221436, -1.5923612117767334, -2.784151077270508, 1.118896484375, -0.407470703125, 0.058349609375
518, 914280112, -6.812020301818848, -0.7619141936302185, 7.137883186340332, -2.633100748062134, -1.5899337530136108, -2.7768774032592773, 1.119384765625, -0.407958984375, 0.056884765625
519, 914296779, -6.809632301330566, -0.791764497756958, 7.129716396331787, -2.5641517639160156, -1.57890784740448, -2.7333364486694336, 1.119873046875, -0.407470703125, 0.05908203125
520, 914313446, -6.797427177429199, -0.7815812230110168, 7.147919654846191, -2.531418800354004, -1.577780842781067, -2.577803373336792, 1.119384765625, -0.408203125, 0.05810546875
521, 914330113, -6.80604887008667, -0.7833161950111389, 7.135770797729492, -2.5198287963867188, -1.7614496946334839, -2.597499370574951, 1.118408203125, -0.406494140625, 0.058837890625
522, 914346780, -6.809922695159912, -0.7696533799171448, 7.1339616775512695, -2.515526294708252, -1.667847990989685, -2.6204614639282227, 1.120849609375, -0.408447265625, 0.056396484375
523, 914363447, -6.794129371643066, -0.7591951489448547, 7.151810646057129, -2.6167469024658203, -1.641735553741455, -2.762829065322876, 1.119873046875, -0.407958984375, 0.05810546875
524, 914380114, -6.820584297180176, -0.7786697745323181, 7.141221046447754, -2.6710076332092285, -1.6721889972686768, -2.776198625564575, 1.119384765625, -0.407958984375, 0.0595703125
525, 914396781, -6.817330360412598, -0.7897453308105469, 7.13718318939209, -2.718672752380371, -1.6801930665969849, -2.8419978618621826, 1.119873046875, -0.406494140625, 0.056884765625
526, 914413448, -6.802863121032715, -0.8037089705467224, 7.133758544921875, -2.6737735271453857, -1.6359472274780273, -2.7265357971191406, 1.117919921875, -0.406005859375, 0.058349609375
527, 914430115, -6.803159236907959, -0.8056038618087769, 7.132991313934326, -2.5822336673736572, -1.666426181793213, -2.6988868713378906, 1.1220703125, -0.406005859375, 0.056884765625
528, 914446782, -6.791242599487305, -0.8159232139587402, 7.140467166900635, -2.543943405151367, -1.6818068027496338, -2.592735528945923, 1.12109375, -0.40869140625, 0.056884765625
529, 914463449, -6.808638572692871, -0.8017481565475464, 7.139614582061768, -2.4606761932373047, -1.7850772142410278, -2.476069211959839, 1.120361328125, -0.406494140625, 0.055419921875
530, 914480116, -6.799201965332031, -0.792177140712738, 7.128954887390137, -2.4540553092956543, -1.7536379098892212, -2.4629175662994385, 1.119384765625, -0.406982421875, 0.056396484375
531, 914496783, -6.805391311645508, -0.7976492047309875, 7.149330139160156, -2.5203797817230225, -1.7364901304244995, -2.387552261352539, 1.121337890625, -0.406494140625, 0.05859375
532, 914513450, -6.799729347229004, -0.787484347820282, 7.1432719230651855, -2.5313546657562256, -1.7001073360443115, -2.433680534362793, 1.119873046875, -0.407470703125, 0.056884765625
533, 914530117, -6.810177326202393, -0.7950525879859924, 7.130619525909424, -2.4427857398986816, -1.5939809083938599, -2.3813538551330566, 1.118896484375, -0.407470703125, 0.056884765625
534, 914546784, -6.816639423370361, -0.7884306311607361, 7.144042015075684, -2.4112050533294678, -1.6150473356246948, -2.4449117183685303, 1.120849609375, -0.406005859375, 0.05810546875
535, 914563451, -6.794408321380615, -0.7936533093452454, 7.127871990203857, -2.4552204608917236, -1.5639753341674805, -2.436612844467163, 1.121826171875, -0.403564453125, 0.055908203125
536, 914580118, -6.7938551902771, -0.7948999404907227, 7.111663818359375, -2.343421459197998, -1.6740846633911133, -2.4142918586730957, 1.120361328125, -0.405029296875, 0.056884765625
537, 914596785, -6.792173385620117, -0.7792922854423523, 7.139525890350342, -2.4219114780426025, -1.7253868579864502, -2.306948661804199, 1.120361328125, -0.405517578125, 0.058349609375
538, 914613452, -6.801921367645264, -0.7847643494606018, 7.135611534118652, -2.40541672706604, -1.6450269222259521, -2.421757459640503, 1.119384765625, -0.406494140625, 0.0595703125
539, 914630119, -6.799592018127441, -0.7940322756767273, 7.1328229904174805, -2.4264321327209473, -1.7010294198989868, -2.4356911182403564, 1.119384765625, -0.406494140625, 0.058349609375
540, 914646786, -6.800230503082275, -0.8065465092658997, 7.141435146331787, -2.3721463680267334, -1.7258737087249756, -2.4482672214508057, 1.119384765625, -0.404541015625, 0.056396484375
541, 914663453, -6.809381008148193, -0.7948455810546875, 7.151723384857178, -2.4090282917022705, -1.6283529996871948, -2.315349578857422, 1.119384765625, -0.406494140625, 0.056396484375
542, 914680120, -6.791082859039307, -0.8100999593734741, 7.153299331665039, -2.5057036876678467, -1.6058781147003174, -2.386117935180664, 1.120849609375, -0.406005859375, 0.055419921875
543, 914696787, -6.790739059448242, -0.801895260810852, 7.123764991760254, -2.4293134212493896, -1.6575642824172974, -2.2865097522735596, 1.119873046875, -0.405517578125, 0.057373046875
544, 914713454, -6.786667823791504, -0.8136745691299438, 7.156764030456543, -2.327310800552368, -1.7712464332580566, -2.3125452995300293, 1.119873046875, -0.404541015625, 0.056884765625
545, 914730121, -6.8018646240234375, -0.7918980121612549, 7.150553226470947, -2.3636040687561035, -1.7724885940551758, -2.338106870651245, 1.121337890625, -0.406982421875, 0.057373046875
546, 914746788, -6.796531677246094, -0.791795551776886, 7.173201084136963, -2.2675564289093018, -1.8045297861099243, -2.2181878089904785, 1.118408203125, -0.405517578125, 0.056396484375
547, 914763455, -6.7982001304626465, -0.799421489238739, 7.147423267364502, -2.163184642791748, -2.0662918090820312, -2.1139185428619385, 1.118408203125, -0.406982421875, 0.057373046875
548, 914780122, -6.791957378387451, -0.8191459774971008, 7.142771244049072, -1.8640028238296509, -2.513643503189087, -1.8124827146530151, 1.120361328125, -0.406982421875, 0.055908203125
549, 914796789, -6.796245098114014, -0.7789941430091858, 7.162256717681885, -1.6894010305404663, -2.749689817428589, -1.704781413078308, 1.119384765625, -0.407470703125, 0.055908203125
550, 914813456, -6.801927089691162, -0.768578290939331, 7.127370834350586, -1.8016101121902466, -2.479552984237671, -1.9108483791351318, 1.118408203125, -0.406005859375, 0.055419921875
551, 914830123, -6.8007893562316895, -0.7743845582008362, 7.146985054016113, -2.009188175201416, -2.3413336277008057, -1.985816478729248, 1.118408203125, -0.40869140625, 0.056396484375
552, 914846790, -6.785317420959473, -0.7775018811225891, 7.171031475067139, -2.2211720943450928, -2.23240327835083, -2.2311482429504395, 1.119384765625, -0.406982421875, 0.054931640625
553, 914863457, -6.780641555786133, -0.7751526236534119, 7.141079902648926, -2.2797393798828125, -1.9117964506149292, -2.2561256885528564, 1.119873046875, -0.406982421875, 0.054443359375
554, 914880124, -6.771871566772461, -0.759077787399292, 7.187043190002441, -2.4253311157226562, -1.7556227445602417, -2.393507242202759, 1.116455078125, -0.407470703125, 0.055419921875
555, 914896791, -6.783970832824707, -0.7755345106124878, 7.186923980712891, -2.6067330837249756, -1.5055402517318726, -2.417903423309326, 1.117919921875, -0.406982421875, 0.055419921875
556, 914913458, -6.784297943115234, -0.7924358248710632, 7.159660339355469, -2.5806846618652344, -1.4089677333831787, -2.4521217346191406, 1.119384765625, -0.405517578125, 0.055908203125
557, 914930125, -6.793342590332031, -0.797508716583252, 7.156834125518799, -2.740546464920044, -1.2644222974777222, -2.411768913269043, 1.117919921875, -0.407470703125, 0.056396484375
558, 914946792, -6.7817535400390625, -0.7997938990592957, 7.152298927307129, -2.713268995285034, -1.4610509872436523, -2.389460325241089, 1.119384765625, -0.406494140625, 0.054931640625
559, 914963459, -6.783943176269531, -0.7992585897445679, 7.158674716949463, -2.6706621646881104, -1.617749571800232, -2.430581569671631, 1.119384765625, -0.406982421875, 0.0537109375
560, 914980126, -6.774965763092041, -0.8202568888664246, 7.171699523925781, -2.628298759460449, -1.5976052284240723, -2.3246090412139893, 1.119873046875, -0.405029296875, 0.054931640625
561, 914996793, -6.791633605957031, -0.7608603239059448, 7.151462078094482, -2.8324832916259766, -1.4064321517944336, -2.426445245742798, 1.119873046875, -0.407470703125, 0.054443359375
562, 915013460, -6.783010959625244, -0.7961223721504211, 7.149918079376221, -2.9724302291870117, -1.446054458618164, -2.4484457969665527, 1.117431640625, -0.406494140625, 0.056396484375
563, 915030127, -6.789370059967041, -0.8134253621101379, 7.146414756774902, -2.8682639598846436, -1.5170016288757324, -2.4876461029052734, 1.118408203125, -0.406494140625, 0.054931640625
564, 915046794, -6.789877891540527, -0.79909348487854, 7.151221752166748, -2.8030800819396973, -1.5341242551803589, -2.521865129470825, 1.119873046875, -0.403564453125, 0.056396484375
565, 915063461, -6.789980411529541, -0.7987932562828064, 7.131377696990967, -2.7610623836517334, -1.6174166202545166, -2.514284133911133, 1.118896484375, -0.405517578125, 0.056884765625
566, 915080128, -6.791994571685791, -0.793533444404602, 7.154553413391113, -2.7481658458709717, -1.6985188722610474, -2.6700854301452637, 1.118896484375, -0.406494140625, 0.054931640625
567, 915096795, -6.771413326263428, -0.8016326427459717, 7.151548385620117, -2.710348606109619, -1.5852339267730713, -2.630629301071167, 1.119873046875, -0.405517578125, 0.053955078125
568, 915113462, -6.785015106201172, -0.7963659763336182, 7.180558681488037, -2.719197988510132, -1.5505287647247314, -2.647738218307495, 1.118896484375, -0.406005859375, 0.056396484375
569, 915130129, -6.769564628601074, -0.8041373491287231, 7.15158224105835, -2.6549487113952637, -1.5140565633773804, -2.618476152420044, 1.120361328125, -0.406494140625, 0.055419921875
570, 915146796, -6.789127349853516, -0.7990373373031616, 7.1516523361206055, -2.7051753997802734, -1.441943883895874, -2.6180663108825684, 1.119873046875, -0.406005859375, 0.053955078125
571, 915163463, -6.782438278198242, -0.8321202993392944, 7.147636890411377, -2.6598405838012695, -1.436962366104126, -2.6113433837890625, 1.119873046875, -0.406982421875, 0.057373046875
572, 915180130, -6.773895263671875, -0.8084849119186401, 7.149997711181641, -2.6599433422088623, -1.4268708229064941, -2.587536096572876, 1.119384765625, -0.406494140625, 0.056396484375
573, 915196797, -6.786564826965332, -0.7942618727684021, 7.151953220367432, -2.76530122756958, -1.2932878732681274, -2.6526694297790527, 1.118408203125, -0.407470703125, 0.055908203125
574, 915213464, -6.782848834991455, -0.7919449806213379, 7.159258842468262, -2.8856546878814697, -1.1370116472244263, -2.7621119022369385, 1.117919921875, -0.404541015625, 0.055419921875
575, 915230131, -6.799118518829346, -0.8156865835189819, 7.152140140533447, -2.8453528881073, -1.092253565788269, -2.713332414627075, 1.119384765625, -0.405029296875, 0.054931640625
576, 915246798, -6.781237602233887, -0.8421937823295593, 7.129734039306641, -2.6486096382141113, -1.2091501951217651, -2.5101730823516846, 1.118896484375, -0.404541015625, 0.056396484375
577, 915263465, -6.760411739349365, -0.8362436294555664, 7.123752117156982, -2.3525264263153076, -1.468004584312439, -2.1973772048950195, 1.119384765625, -0.403564453125, 0.055419921875
578, 915280132, -6.787337779998779, -0.811692476272583, 7.132893085479736, -2.1966989040374756, -1.7031291723251343, -2.061335563659668, 1.119384765625, -0.403564453125, 0.054443359375
579, 915296799, -6.797600269317627, -0.8172838091850281, 7.133932113647461, -2.171009063720703, -1.7592594623565674, -2.046761989593506, 1.118896484375, -0.406982421875, 0.054931640625
580, 915313466, -6.789063453674316, -0.7985743880271912, 7.138721466064453, -2.2113752365112305, -1.955747365951538, -2.0754358768463135, 1.118896484375, -0.403564453125, 0.055419921875
581, 915330133, -6.790684700012207, -0.7994878888130188, 7.173958778381348, -2.134459972381592, -1.8509018421173096, -2.152209758758545, 1.117919921875, -0.406494140625, 0.055908203125
582, 915346800, -6.779281139373779, -0.822380542755127, 7.144880771636963, -2.236987590789795, -1.8232526779174805, -2.236347198486328, 1.121337890625, -0.404541015625, 0.053955078125
583, 915363467, -6.769815921783447, -0.8205923438072205, 7.1608099937438965, -2.2630741596221924, -1.8041458129882812, -2.277967929840088, 1.118408203125, -0.405029296875, 0.054931640625
584, 915380134, -6.786355495452881, -0.8184582591056824, 7.166141986846924, -2.361823797225952, -1.5889990329742432, -2.237435817718506, 1.118896484375, -0.404052734375, 0.054443359375
585, 915396801, -6.779376983642578, -0.8389358520507812, 7.140355110168457, -2.461047649383545, -1.565832495689392, -2.3170528411865234, 1.118408203125, -0.404052734375, 0.0537109375
586, 915413468, -6.769631385803223, -0.8092718720436096, 7.14762544631958, -2.3342390060424805, -1.4532004594802856, -2.171931266784668, 1.118896484375, -0.405029296875, 0.05419921875
587, 915430135, -6.811840534210205, -0.7807027101516724, 7.15574836730957, -2.387385368347168, -1.496626853942871, -2.2828211784362793, 1.119384765625, -0.404541015625, 0.057373046875
588, 915446802, -6.7801923751831055, -0.8057265281677246, 7.156634330749512, -2.3924825191497803, -1.829336166381836, -2.3627207279205322, 1.119384765625, -0.405517578125, 0.057373046875
589, 915463469, -6.802377223968506, -0.7684155106544495, 7.1670145988464355, -2.492081880569458, -1.541612982749939, -2.435225009918213, 1.118408203125, -0.404052734375, 0.055908203125
590, 915480136, -6.807220935821533, -0.7981141805648804, 7.165519714355469, -2.617375135421753, -1.5923162698745728, -2.5773425102233887, 1.118408203125, -0.405029296875, 0.054931640625
591, 915496803, -6.79166316986084, -0.791694700717926, 7.174549579620361, -2.637160539627075, -1.5633352994918823, -2.6100881099700928, 1.119384765625, -0.403564453125, 0.055908203125
592, 915513470, -6.781896114349365, -0.8346391916275024, 7.156073570251465, -2.5733468532562256, -1.7035393714904785, -2.558926820755005, 1.116943359375, -0.405517578125, 0.055908203125
593, 915530137, -6.791279315948486, -0.8204988241195679, 7.149019718170166, -2.451148509979248, -1.737104892730713, -2.45027756690979, 1.1171875, -0.404052734375, 0.0546875
594, 915546804, -6.778966426849365, -0.8301581740379333, 7.168127059936523, -2.4394049644470215, -1.753637671470642, -2.4457695484161377, 1.118896484375, -0.403564453125, 0.055419921875
595, 915563471, -6.783929824829102, -0.8175005316734314, 7.1335768699646, -2.502105236053467, -1.6686421632766724, -2.4202723503112793, 1.119384765625, -0.404052734375, 0.055419921875
596, 915580138, -6.780716419219971, -0.8152395486831665, 7.168071269989014, -2.425407648086548, -1.7875361442565918, -2.43829083442688, 1.119873046875, -0.404541015625, 0.055419921875
597, 915596805, -6.770954608917236, -0.8154627084732056, 7.141739845275879, -2.3322160243988037, -1.7754215002059937, -2.4313242435455322, 1.118896484375, -0.404052734375, 0.054443359375
598, 915613472, -6.773930072784424, -0.8052551746368408, 7.145306587219238, -2.4644157886505127, -1.632912278175354, -2.511504888534546, 1.117919921875, -0.40283203125, 0.05224609375
599, 915630139, -6.790065288543701, -0.7710743546485901, 7.185015678405762, -2.8056282997131348, -1.1396757364273071, -2.584949254989624, 1.118896484375, -0.403076171875, 0.054931640625
600, 915646806, -6.779050827026367, -0.8023813366889954, 7.1603007316589355, -3.5065581798553467, -0.42848774790763855, -2.914059638977051, 1.120361328125, -0.403564453125, 0.055419921875
601, 915663473, -6.790615558624268, -0.8209883570671082, 7.1446661949157715, -3.9158875942230225, -0.21873247623443604, -2.9803194999694824, 1.119873046875, -0.40234375, 0.054931640625
602, 915680140, -6.7740373611450195, -0.82103431224823, 7.1627912521362305, -4.859869003295898, 0.3538586497306824, -3.1040287017822266, 1.118896484375, -0.403564453125, 0.057861328125
603, 915696807, -6.850584030151367, -0.7301542162895203, 7.252884387969971, -8.612478256225586, 4.022405624389648, -3.1448051929473877, 1.117919921875, -0.40185546875, 0.057861328125
604, 915713474, -6.941046714782715, -0.6039626002311707, 7.260617256164551, -12.480603218078613, 5.645049095153809, -5.258406162261963, 1.120361328125, -0.4013671875, 0.058837890625
605, 915730141, -6.90899133682251, -0.7829258441925049, 7.151174068450928, -13.1630277633667, 4.348520755767822, -6.979644298553467, 1.122802734375, -0.397705078125, 0.06201171875
606, 915746808, -6.874999523162842, -0.846043050289154, 7.148954391479492, -12.893672943115234, 3.094240665435791, -7.7714362144470215, 1.120361328125, -0.395263671875, 0.06396484375
607, 915763475, -6.8713154792785645, -0.9422572255134583, 7.094497203826904, -12.634960174560547, 2.128077507019043, -8.570938110351562, 1.12060546875, -0.392578125, 0.0634765625
608, 915780142, -6.908228397369385, -0.9704692363739014, 7.126246452331543, -12.192946434020996, 0.9097573161125183, -8.971251487731934, 1.123291015625, -0.390625, 0.064453125
609, 915796809, -6.899929523468018, -0.9995336532592773, 7.085539817810059, -12.636460304260254, -0.2838786244392395, -9.727097511291504, 1.12255859375, -0.387451171875, 0.06494140625
610, 915813476, -6.807939052581787, -1.188461184501648, 7.001198768615723, -11.575733184814453, -1.1504594087600708, -9.31003189086914, 1.12109375, -0.383056640625, 0.0654296875
611, 915830143, -6.793950080871582, -1.2343382835388184, 6.9691267013549805, -10.127869606018066, -1.7807494401931763, -8.288453102111816, 1.123046875, -0.382568359375, 0.068603515625
612, 915846810, -6.789210319519043, -1.2306454181671143, 6.974646091461182, -8.51846694946289, -2.5314064025878906, -7.122842788696289, 1.124755859375, -0.38232421875, 0.067626953125
613, 915863477, -6.729196548461914, -1.3106188774108887, 6.962808132171631, -6.442376136779785, -3.0311737060546875, -5.378283500671387, 1.1240234375, -0.3779296875, 0.067626953125
614, 915880144, -6.774142742156982, -1.2288181781768799, 7.036526203155518, -4.642353057861328, -3.1124427318573, -3.8919780254364014, 1.1220703125, -0.376708984375, 0.068115234375
615, 915896811, -6.922131061553955, -1.1126601696014404, 7.115716934204102, -5.054513454437256, -3.3195087909698486, -3.731719493865967, 1.12109375, -0.376953125, 0.06640625
616, 915913478, -6.821033000946045, -1.1889166831970215, 7.048592567443848, -5.240896701812744, -3.902209997177124, -3.7289788722991943, 1.120849609375, -0.374267578125, 0.0654296875
617, 915930145, -6.780751705169678, -1.198551893234253, 7.050846576690674, -4.6159467697143555, -3.747920036315918, -3.4176435470581055, 1.1220703125, -0.374755859375, 0.06640625
618, 915946812, -6.826686382293701, -1.1734429597854614, 7.086431980133057, -4.5379557609558105, -3.585432291030884, -3.142063617706299, 1.1220703125, -0.374755859375, 0.0654296875
619, 915963479, -6.784495830535889, -1.206099510192871, 7.0797529220581055, -4.494683742523193, -3.2226924896240234, -3.077289581298828, 1.120849609375, -0.375732421875, 0.064453125
620, 915980146, -6.827692031860352, -1.122260332107544, 7.113946437835693, -4.838995456695557, -2.654449224472046, -3.127272367477417, 1.119873046875, -0.373779296875, 0.064453125
621, 915996813, -6.700659275054932, -1.196783423423767, 7.050961017608643, -4.871099948883057, -2.062718629837036, -2.9606997966766357, 1.119873046875, -0.375732421875, 0.06494140625
622, 916013480, -6.631453990936279, -1.1781748533248901, 7.065273761749268, -4.1763176918029785, 0.02948662079870701, -2.0392448902130127, 1.119873046875, -0.373291015625, 0.06640625
623, 916030147, -6.589166641235352, -1.277168869972229, 7.1221923828125, -3.3274741172790527, 3.332500457763672, -1.5855669975280762, 1.121337890625, -0.375244140625, 0.06787109375
624, 916046814, -6.6151604652404785, -1.1258677244186401, 7.207787990570068, -3.535231351852417, 7.728549480438232, -2.0605928897857666, 1.123046875, -0.37158203125, 0.069091796875
625, 916063481, -6.009274005889893, -1.4988107681274414, 7.066808700561523, -1.6339421272277832, 14.750252723693848, -0.7839454412460327, 1.12255859375, -0.371826171875, 0.07275390625
626, 916080148, -5.41214656829834, -1.9238483905792236, 7.16745662689209, 3.188849449157715, 30.56510353088379, 4.92423152923584, 1.12451171875, -0.374267578125, 0.077880859375
627, 916096815, -5.763166427612305, -1.2041826248168945, 7.97707462310791, 2.880094051361084, 52.58156967163086, 10.904801368713379, 1.130859375, -0.37841796875, 0.08984375
628, 916113482, -6.294779300689697, -0.24841052293777466, 10.598016738891602, -20.854555130004883, 75.34817504882812, 19.5686092376709, 1.140625, -0.38330078125, 0.109619140625
629, 916130149, -5.975038528442383, -2.5385913848876953, 11.708970069885254, -42.918174743652344, 88.242431640625, 35.899906158447266, 1.150390625, -0.387451171875, 0.131591796875
630, 916146816, -3.553846597671509, -3.661625385284424, 12.387969017028809, -31.27525520324707, 95.5993423461914, 60.84248733520508, 1.163818359375, -0.39599609375, 0.156005859375
631, 916163483, -2.56569766998291, -4.60884428024292, 14.111455917358398, -8.598278045654297, 82.81745910644531, 74.16767120361328, 1.17236328125, -0.4150390625, 0.18017578125
632, 916180150, -1.1136839389801025, -5.707987308502197, 15.10132122039795, 8.070109367370605, 54.64751434326172, 65.0702133178711, 1.180908203125, -0.432861328125, 0.19677734375
633, 916196817, -0.21596461534500122, -4.8401899337768555, 15.626163482666016, 2.1547460556030273, 27.31428337097168, 43.62961196899414, 1.184814453125, -0.447021484375, 0.20263671875
634, 916213484, -0.7815442681312561, -4.789210319519043, 15.615474700927734, -19.94120979309082, -5.947320461273193, 15.612915992736816, 1.184814453125, -0.44873046875, 0.204345703125
635, 916230151, -0.7350537776947021, -4.707781791687012, 14.243611335754395, -35.03015899658203, -42.37747573852539, -10.070448875427246, 1.18408203125, -0.446044921875, 0.195068359375
636, 916246818, -0.7074863910675049, -4.053400993347168, 12.746478080749512, -37.08804702758789, -67.65440368652344, -25.210693359375, 1.179931640625, -0.434326171875, 0.178955078125
637, 916263485, -1.554121732711792, -3.225167989730835, 11.949851036071777, -38.066715240478516, -82.61573028564453, -33.47615051269531, 1.177490234375, -0.423095703125, 0.15966796875
638, 916280152, -2.6579883098602295, -3.1848275661468506, 11.060059547424316, -33.93010330200195, -90.98462677001953, -35.97206115722656, 1.1669921875, -0.410400390625, 0.13623046875
639, 916296819, -4.587528705596924, -3.141714572906494, 11.023646354675293, -23.605730056762695, -93.5994644165039, -34.764442443847656, 1.16064453125, -0.396728515625, 0.1162109375
640, 916313486, -7.633389949798584, -2.886234760284424, 11.859803199768066, -19.70159912109375, -105.87702941894531, -39.52785873413086, 1.149658203125, -0.3837890625, 0.09033203125
641, 916330153, -9.254263877868652, -2.8761074542999268, 11.846386909484863, -23.773447036743164, -132.72134399414062, -52.147926330566406, 1.134033203125, -0.365478515625, 0.057861328125
642, 916346820, -9.126704216003418, -2.8289365768432617, 10.525738716125488, -27.107986450195312, -153.68263244628906, -64.09825134277344, 1.115234375, -0.34521484375, 0.021240234375
643, 916363487, -8.982560157775879, -2.6435251235961914, 9.153112411499023, -23.43720054626465, -160.15255737304688, -71.08647155761719, 1.08935546875, -0.3251953125, -0.014892578125
644, 916380154, -8.995062828063965, -1.9969680309295654, 8.102648735046387, -17.045948028564453, -158.8098907470703, -73.69277954101562, 1.05908203125, -0.302001953125, -0.04931640625
645, 916396821, -8.944253921508789, -1.0706313848495483, 7.238383769989014, -13.85718059539795, -150.95370483398438, -73.63490295410156, 1.028076171875, -0.282958984375, -0.079345703125
646, 916413488, -9.007560729980469, -0.4584856927394867, 6.780607223510742, -14.27396011352539, -140.3994598388672, -71.5088882446289, 0.999267578125, -0.265869140625, -0.104736328125
647, 916430155, -9.420473098754883, -0.15999241173267365, 6.613951683044434, -15.270021438598633, -132.31248474121094, -67.817138671875, 0.971435546875, -0.25048828125, -0.128662109375
648, 916446822, -9.347744941711426, -0.3742898106575012, 5.8771185874938965, -11.401131629943848, -128.4471435546875, -60.7866096496582, 0.945556640625, -0.23583984375, -0.15185546875
649, 916463489, -8.288729667663574, -0.028167426586151123, 4.550344944000244, -7.612349033355713, -120.04975891113281, -51.552703857421875, 0.919189453125, -0.226806640625, -0.175048828125
650, 916480156, -7.657527923583984, 0.3731795847415924, 3.4174633026123047, -12.046083450317383, -101.77635955810547, -41.97755813598633, 0.898193359375, -0.215576171875, -0.192626953125
651, 916496823, -7.645954608917236, 0.6822705864906311, 2.8753199577331543, -19.42304039001465, -81.46743774414062, -31.403615951538086, 0.878173828125, -0.2080078125, -0.2080078125
652, 916513490, -7.154277801513672, 1.0302506685256958, 2.624535083770752, -24.5394344329834, -66.21189880371094, -20.840476989746094, 0.86474609375, -0.201416015625, -0.22119140625
653, 916530157, -6.522183895111084, 1.1993622779846191, 2.4659981727600098, -22.506742477416992, -47.726898193359375, -5.883475303649902, 0.857421875, -0.1943359375, -0.228515625
654, 916546824, -6.454203128814697, 1.326274037361145, 2.630063056945801, -20.134464263916016, -26.756296157836914, 11.900577545166016, 0.8486328125, -0.193603515625, -0.234375
655, 916563491, -6.634557247161865, 0.9249296188354492, 2.748530387878418, -21.874530792236328, -7.432867050170898, 29.53285026550293, 0.8505859375, -0.19384765625, -0.2353515625
656, 916580158, -7.168980121612549, 0.4069901704788208, 2.728386402130127, -24.07854461669922, 11.503475189208984, 42.414974212646484, 0.85009765625, -0.19482421875, -0.23291015625
