sep=,
DeviceTag:,B,,,,,,,,,,,,,,,,,
FirmwareVersion:,2.2.1,,,,,,,,,,,,,,,,,
AppVersion:,2023.6.1,,,,,,,,,,,,,,,,,
SyncStatus:,Synced,,,,,,,,,,,,,,,,,
OutputRate:,60Hz,,,,,,,,,,,,,,,,,
FilterProfile:,General,,,,,,,,,,,,,,,,,
Measurement Mode:,Inertial Mode - Rate quantities (with mag),,,,,,,,,,,,,,,,,
StartTime:,2023-12-07 12:41:06.987 +0200,,,,,,,,,,,,,,,,,
 2023,,,,,,,,,,,,,,,,,,,

PacketCounter,SampleTimeFine,Acc_X,Acc_Y,Acc_Z,Gyr_X,Gyr_Y,Gyr_Z,Mag_X,Mag_Y,Mag_Z
1, 905679940, -6.317600727081299, 1.7551614046096802, 7.0916547775268555, -0.1114792674779892, -0.7162078619003296, -1.3749922513961792, 0.600830078125, 0.2001953125, -0.709228515625
2, 905696607, -6.305790424346924, 1.7283529043197632, 7.097905158996582, -0.11835628002882004, -0.6885205507278442, -1.249733328819275, 0.6005859375, 0.2001953125, -0.709228515625
3, 905713274, -6.308803081512451, 1.7572336196899414, 7.09264612197876, -0.06004897505044937, -0.6676462292671204, -1.186649203300476, 0.602783203125, 0.19970703125, -0.709228515625
4, 905729941, -6.292879104614258, 1.7384090423583984, 7.11348295211792, -0.04203043505549431, -0.7071282267570496, -1.22837233543396, 0.604248046875, 0.2001953125, -0.709228515625
5, 905746608, -6.302754878997803, 1.7644805908203125, 7.107237815856934, -0.03542236611247063, -0.6695159673690796, -1.2214183807373047, 0.601318359375, 0.20166015625, -0.707763671875
6, 905763275, -6.309909820556641, 1.755245327949524, 7.108621597290039, -0.001216603210195899, -0.565028965473175, -1.237400770187378, 0.603271484375, 0.20166015625, -0.709716796875
7, 905779942, -6.303994655609131, 1.7559725046157837, 7.113774299621582, -0.05523378774523735, -0.7196144461631775, -1.3225117921829224, 0.600830078125, 0.199951171875, -0.708740234375
8, 905796609, -6.308337688446045, 1.744154930114746, 7.094203948974609, -0.13152121007442474, -0.6887382864952087, -1.3232543468475342, 0.599365234375, 0.200439453125, -0.705810546875
9, 905813276, -6.321335792541504, 1.7620967626571655, 7.1136393547058105, -0.0687444731593132, -0.6861000657081604, -1.4059576988220215, 0.601806640625, 0.197998046875, -0.706298828125
10, 905829943, -6.316429138183594, 1.7299607992172241, 7.121341228485107, -0.019158300012350082, -0.5957770347595215, -1.3699721097946167, 0.601318359375, 0.2001953125, -0.706787109375
11, 905846610, -6.327657699584961, 1.755145788192749, 7.097378730773926, -0.12542538344860077, -0.5243304371833801, -1.4118232727050781, 0.600830078125, 0.2001953125, -0.707275390625
12, 905863277, -6.321295261383057, 1.7647466659545898, 7.11435604095459, -0.09912114590406418, -0.7053097486495972, -1.4269347190856934, 0.599609375, 0.199951171875, -0.708251953125
13, 905879944, -6.308854103088379, 1.7378746271133423, 7.103191375732422, -0.3040355443954468, -0.7557795643806458, -1.535187005996704, 0.5986328125, 0.198974609375, -0.708740234375
14, 905896611, -6.321433067321777, 1.7483080625534058, 7.078588485717773, -0.2768605053424835, -0.8547214269638062, -1.4567480087280273, 0.602783203125, 0.20068359375, -0.707275390625
15, 905913278, -6.316302299499512, 1.7542259693145752, 7.106119632720947, -0.24300047755241394, -0.7823270559310913, -1.3966859579086304, 0.60009765625, 0.201171875, -0.708740234375
16, 905929945, -6.300869464874268, 1.753104329109192, 7.126369476318359, -0.2831227779388428, -0.9332883954048157, -1.3996957540512085, 0.6005859375, 0.20068359375, -0.708740234375
17, 905946612, -6.298189163208008, 1.7530490159988403, 7.106851577758789, -0.26139041781425476, -0.8252028226852417, -1.4117463827133179, 0.600341796875, 0.199951171875, -0.707763671875
18, 905963279, -6.304068565368652, 1.7485915422439575, 7.094362258911133, -0.3262289762496948, -0.8426579236984253, -1.3911281824111938, 0.60009765625, 0.20166015625, -0.708251953125
19, 905979946, -6.297307014465332, 1.7419263124465942, 7.116320610046387, -0.269381582736969, -0.8571034073829651, -1.3792823553085327, 0.599609375, 0.20068359375, -0.706298828125
20, 905996613, -6.318331718444824, 1.747476577758789, 7.116575241088867, -0.30911970138549805, -0.7643085718154907, -1.3791543245315552, 0.600830078125, 0.2001953125, -0.707275390625
21, 906013280, -6.307143688201904, 1.7475955486297607, 7.114387512207031, -0.3547359108924866, -0.8189532160758972, -1.3718546628952026, 0.602294921875, 0.2001953125, -0.706787109375
22, 906029947, -6.324033260345459, 1.7430294752120972, 7.095998764038086, -0.2892570197582245, -0.817109227180481, -1.4632279872894287, 0.59912109375, 0.199951171875, -0.708251953125
23, 906046614, -6.304734230041504, 1.7408958673477173, 7.089151859283447, -0.28510782122612, -0.8752884268760681, -1.5403223037719727, 0.601318359375, 0.2001953125, -0.707275390625
24, 906063281, -6.3247528076171875, 1.743567943572998, 7.10628604888916, -0.23520146310329437, -0.8199906349182129, -1.4688116312026978, 0.60009765625, 0.2021484375, -0.707763671875
25, 906079948, -6.305473327636719, 1.746977686882019, 7.118949890136719, -0.29137009382247925, -0.8101425170898438, -1.3560386896133423, 0.600830078125, 0.199951171875, -0.707275390625
26, 906096615, -6.304942607879639, 1.745877742767334, 7.1163411140441895, -0.2064511626958847, -0.7292575836181641, -1.2864618301391602, 0.6005859375, 0.201171875, -0.708740234375
27, 906113282, -6.301990509033203, 1.7353960275650024, 7.118030548095703, -0.08033423125743866, -0.6513950228691101, -1.261284589767456, 0.601806640625, 0.20068359375, -0.705810546875
28, 906129949, -6.306821823120117, 1.7578892707824707, 7.118099689483643, -0.027021395042538643, -0.6790182590484619, -1.2860262393951416, 0.600830078125, 0.2001953125, -0.705810546875
29, 906146616, -6.316142559051514, 1.7543292045593262, 7.107119083404541, -0.09390895068645477, -0.7217274308204651, -1.251820683479309, 0.599365234375, 0.200439453125, -0.705810546875
30, 906163283, -6.318098068237305, 1.747391700744629, 7.1123456954956055, -0.18558962643146515, -0.8298386335372925, -1.212991714477539, 0.601318359375, 0.198974609375, -0.708251953125
31, 906179950, -6.308018207550049, 1.734879970550537, 7.09247350692749, -0.12080229073762894, -0.7961068153381348, -1.139931559562683, 0.602294921875, 0.20068359375, -0.707275390625
32, 906196617, -6.30635929107666, 1.7393020391464233, 7.102133274078369, -0.12213416397571564, -0.736006498336792, -1.2682896852493286, 0.600341796875, 0.198974609375, -0.706298828125
33, 906213284, -6.317607879638672, 1.7577919960021973, 7.106967449188232, -0.11003217101097107, -0.7599800825119019, -1.240820050239563, 0.60009765625, 0.200439453125, -0.708740234375
34, 906229951, -6.312232494354248, 1.7577435970306396, 7.115744590759277, -0.20660485327243805, -0.8862890005111694, -1.2752562761306763, 0.60009765625, 0.2021484375, -0.708251953125
35, 906246618, -6.308239936828613, 1.754213809967041, 7.088842391967773, -0.20847459137439728, -0.7237892746925354, -1.2752947807312012, 0.601806640625, 0.20068359375, -0.706298828125
36, 906263285, -6.311145782470703, 1.760675311088562, 7.116087436676025, -0.18292589485645294, -0.7539738416671753, -1.2938127517700195, 0.60009765625, 0.201171875, -0.708740234375
37, 906279952, -6.314690113067627, 1.7476048469543457, 7.118492126464844, -0.15151190757751465, -0.7653842568397522, -1.2926344871520996, 0.600341796875, 0.20068359375, -0.705810546875
38, 906296619, -6.319397449493408, 1.7421659231185913, 7.119414806365967, -0.11115910857915878, -0.807350754737854, -1.2380666732788086, 0.600341796875, 0.198974609375, -0.708251953125
39, 906313286, -6.309446811676025, 1.7505486011505127, 7.099838733673096, -0.12142980098724365, -0.8330145478248596, -1.2445850372314453, 0.600830078125, 0.2001953125, -0.708740234375
40, 906329953, -6.32177734375, 1.749284029006958, 7.1278767585754395, -0.04434838891029358, -0.7707501649856567, -1.180655837059021, 0.599609375, 0.2021484375, -0.707763671875
41, 906346620, -6.320534706115723, 1.7500170469284058, 7.070727825164795, -0.01230690162628889, -0.8276743292808533, -1.213055968284607, 0.600830078125, 0.20068359375, -0.708251953125
42, 906363287, -6.305877208709717, 1.7548065185546875, 7.097874641418457, -0.028097134083509445, -0.7553440928459167, -1.1460275650024414, 0.600341796875, 0.198974609375, -0.707763671875
43, 906379954, -6.318696975708008, 1.7616376876831055, 7.097248554229736, -0.13368549942970276, -0.7815843820571899, -1.2069344520568848, 0.599609375, 0.20068359375, -0.706298828125
44, 906396621, -6.311463356018066, 1.760130763053894, 7.1114301681518555, -0.12427280843257904, -0.9058827757835388, -1.295093297958374, 0.601318359375, 0.2001953125, -0.709228515625
45, 906413288, -6.309300422668457, 1.7432739734649658, 7.107656002044678, -0.11124876886606216, -0.7337911128997803, -1.2640637159347534, 0.602294921875, 0.197509765625, -0.707275390625
46, 906429955, -6.322952747344971, 1.7474664449691772, 7.1098313331604, -0.14998796582221985, -0.7311656475067139, -1.2749744653701782, 0.601806640625, 0.201171875, -0.706298828125
47, 906446622, -6.2959489822387695, 1.7582212686538696, 7.117396831512451, -0.038764823228120804, -0.6420078873634338, -1.317722201347351, 0.600830078125, 0.199462890625, -0.707275390625
48, 906463289, -6.303241729736328, 1.7476154565811157, 7.127861499786377, -0.12323550134897232, -0.6625620722770691, -1.3377385139465332, 0.600830078125, 0.201171875, -0.707763671875
49, 906479956, -6.322594165802002, 1.7525818347930908, 7.101734161376953, -0.20660485327243805, -0.6531623005867004, -1.3474714756011963, 0.59912109375, 0.20068359375, -0.708251953125
50, 906496623, -6.315759658813477, 1.7640045881271362, 7.108971118927002, -0.1982038915157318, -0.6828346252441406, -1.3552961349487305, 0.59912109375, 0.200439453125, -0.708251953125
51, 906513290, -6.327101707458496, 1.7550359964370728, 7.108470916748047, -0.1999199241399765, -0.7518223524093628, -1.2828376293182373, 0.599853515625, 0.199462890625, -0.707275390625
52, 906529957, -6.31171178817749, 1.7386716604232788, 7.08329439163208, -0.19468212127685547, -0.8830490112304688, -1.2785857915878296, 0.600830078125, 0.20166015625, -0.706298828125
53, 906546624, -6.300601005554199, 1.7460006475448608, 7.100191593170166, -0.17352603375911713, -0.7150553464889526, -1.3285306692123413, 0.600830078125, 0.2001953125, -0.705322265625
54, 906563291, -6.309277057647705, 1.768509030342102, 7.134573459625244, -0.1453520506620407, -0.7133008241653442, -1.3162366151809692, 0.600830078125, 0.20068359375, -0.706787109375
55, 906579958, -6.313131332397461, 1.7470990419387817, 7.090874195098877, -0.09625251591205597, -0.6585793495178223, -1.3358687162399292, 0.599609375, 0.199951171875, -0.707275390625
56, 906596625, -6.304775238037109, 1.7493733167648315, 7.0867414474487305, -0.14888660609722137, -0.6599624752998352, -1.3176709413528442, 0.6005859375, 0.20068359375, -0.708740234375
57, 906613292, -6.3104753494262695, 1.760428547859192, 7.094361782073975, -0.16200032830238342, -0.6827961802482605, -1.3910130262374878, 0.59912109375, 0.20068359375, -0.708740234375
58, 906629959, -6.311751842498779, 1.760750412940979, 7.120432376861572, -0.258163183927536, -0.7649616599082947, -1.4074177742004395, 0.601318359375, 0.201171875, -0.706787109375
59, 906646626, -6.309691429138184, 1.7668908834457397, 7.111398696899414, -0.14247064292430878, -0.6572474837303162, -1.3965580463409424, 0.601318359375, 0.20068359375, -0.708740234375
60, 906663293, -6.295130729675293, 1.7549232244491577, 7.102663516998291, -0.3144855201244354, -0.7328562140464783, -1.3781936168670654, 0.600341796875, 0.2001953125, -0.705322265625
61, 906679960, -6.322867393493652, 1.7502645254135132, 7.094490051269531, -0.2646560072898865, -0.7390416264533997, -1.4062268733978271, 0.599853515625, 0.199951171875, -0.706787109375
62, 906696627, -6.320784091949463, 1.7479232549667358, 7.1157450675964355, -0.32565268874168396, -0.7321646213531494, -1.4620625972747803, 0.6005859375, 0.203125, -0.707275390625
63, 906713294, -6.31968879699707, 1.7523401975631714, 7.117880344390869, -0.2336902618408203, -0.7850804328918457, -1.4352716207504272, 0.5986328125, 0.199951171875, -0.708251953125
64, 906729961, -6.33062219619751, 1.7382795810699463, 7.088779926300049, -0.12369654327630997, -0.7143382430076599, -1.3858263492584229, 0.600341796875, 0.2001953125, -0.706787109375
65, 906746628, -6.3081889152526855, 1.7488905191421509, 7.1114373207092285, -0.1082264706492424, -0.6773791313171387, -1.3074642419815063, 0.600830078125, 0.20166015625, -0.706298828125
66, 906763295, -6.328821182250977, 1.761353850364685, 7.105009078979492, -0.2063615322113037, -0.6635738611221313, -1.3636457920074463, 0.601806640625, 0.201171875, -0.707763671875
67, 906779962, -6.307460784912109, 1.7455092668533325, 7.107357025146484, -0.1555459201335907, -0.8481646180152893, -1.3741214275360107, 0.602783203125, 0.2001953125, -0.708740234375
68, 906796629, -6.313630104064941, 1.7486939430236816, 7.097733497619629, -0.15814560651779175, -0.7214585542678833, -1.2968605756759644, 0.599609375, 0.203125, -0.705322265625
69, 906813296, -6.32211971282959, 1.7541241645812988, 7.098165512084961, -0.1565704494714737, -0.7779985666275024, -1.296860694885254, 0.601806640625, 0.20068359375, -0.707763671875
70, 906829963, -6.316875457763672, 1.75186026096344, 7.098463535308838, -0.1677759885787964, -0.7914324402809143, -1.285091519355774, 0.599365234375, 0.199462890625, -0.706787109375
71, 906846630, -6.314169406890869, 1.7466202974319458, 7.123305797576904, -0.1393202841281891, -0.7561764121055603, -1.3065292835235596, 0.601806640625, 0.20166015625, -0.706298828125
72, 906863297, -6.321846961975098, 1.7429654598236084, 7.092845916748047, -0.10817523300647736, -0.8872750997543335, -1.2852836847305298, 0.6005859375, 0.201171875, -0.707763671875
73, 906879964, -6.31148624420166, 1.7432682514190674, 7.113388538360596, -0.1629992127418518, -0.7209462523460388, -1.2987174987792969, 0.59814453125, 0.201171875, -0.707275390625
74, 906896631, -6.328005790710449, 1.7450395822525024, 7.101322650909424, -0.1340184509754181, -0.7706862092018127, -1.2904447317123413, 0.602294921875, 0.2001953125, -0.705810546875
75, 906913298, -6.326930046081543, 1.7487255334854126, 7.084120273590088, -0.1820806860923767, -0.724685788154602, -1.220342755317688, 0.599609375, 0.200439453125, -0.707763671875
76, 906929965, -6.3243021965026855, 1.7467217445373535, 7.103823184967041, -0.07988601177930832, -0.838137149810791, -1.2167953252792358, 0.603271484375, 0.20166015625, -0.706298828125
77, 906946632, -6.325308322906494, 1.7509208917617798, 7.084041118621826, -0.09399861097335815, -0.8285452127456665, -1.0599688291549683, 0.602294921875, 0.201171875, -0.704833984375
78, 906963299, -6.30388069152832, 1.752166509628296, 7.085391998291016, -0.058499403297901154, -0.9141044020652771, -1.0900509357452393, 0.5986328125, 0.201171875, -0.709228515625
79, 906979966, -6.304478168487549, 1.7630276679992676, 7.109034061431885, -0.06733578443527222, -0.8457953333854675, -1.069483757019043, 0.600830078125, 0.20068359375, -0.706298828125
80, 906996633, -6.305575847625732, 1.7475650310516357, 7.099783420562744, 0.002503641415387392, -0.7787542343139648, -1.0778976678848267, 0.602294921875, 0.19970703125, -0.708251953125
81, 907013300, -6.31456995010376, 1.7728441953659058, 7.127867698669434, -0.03583216667175293, -0.774310290813446, -1.1485886573791504, 0.603271484375, 0.201171875, -0.707275390625
82, 907029967, -6.31099796295166, 1.7722814083099365, 7.095043182373047, -0.1759336292743683, -0.8235635757446289, -1.2744879722595215, 0.6005859375, 0.20361328125, -0.708251953125
83, 907046634, -6.322195053100586, 1.754876732826233, 7.094913959503174, -0.15091000497341156, -0.7510154843330383, -1.2834522724151611, 0.602294921875, 0.20068359375, -0.707763671875
84, 907063301, -6.308088779449463, 1.7512341737747192, 7.1086201667785645, -0.23308837413787842, -0.6453759670257568, -1.4214791059494019, 0.59912109375, 0.199951171875, -0.706298828125
85, 907079968, -6.312772274017334, 1.7651468515396118, 7.1217851638793945, -0.14390496909618378, -0.7886918783187866, -1.389079213142395, 0.59912109375, 0.199951171875, -0.707275390625
86, 907096635, -6.314272880554199, 1.7675825357437134, 7.109356880187988, -0.24150212109088898, -0.7846706509590149, -1.376746654510498, 0.599609375, 0.20068359375, -0.706298828125
87, 907113302, -6.317134857177734, 1.7540383338928223, 7.116814613342285, -0.2761048376560211, -0.8777728080749512, -1.4541481733322144, 0.600341796875, 0.20068359375, -0.707763671875
88, 907129969, -6.320055961608887, 1.7540966272354126, 7.094090461730957, -0.2085770219564438, -0.9297922849655151, -1.3893224000930786, 0.601806640625, 0.2001953125, -0.707763671875
89, 907146636, -6.323580741882324, 1.762180209159851, 7.111494064331055, -0.36407172679901123, -0.921929121017456, -1.381485104560852, 0.5986328125, 0.20068359375, -0.707275390625
90, 907163303, -6.308748722076416, 1.7589523792266846, 7.114348888397217, -0.3841392993927002, -0.9368870258331299, -1.3626084327697754, 0.599609375, 0.200439453125, -0.707763671875
91, 907179970, -6.299878120422363, 1.7448481321334839, 7.122217655181885, -0.3475387692451477, -0.8968158960342407, -1.3851091861724854, 0.600341796875, 0.199951171875, -0.707275390625
92, 907196637, -6.305111885070801, 1.7582881450653076, 7.1078057289123535, -0.26279908418655396, -0.8994028568267822, -1.3053640127182007, 0.5986328125, 0.20068359375, -0.708251953125
93, 907213304, -6.307806015014648, 1.7536104917526245, 7.100605487823486, -0.23208948969841003, -0.8612399101257324, -1.3644269704818726, 0.602294921875, 0.20068359375, -0.707275390625
94, 907229971, -6.300496578216553, 1.7684110403060913, 7.131074905395508, -0.33035263419151306, -0.8926666975021362, -1.4014759063720703, 0.601318359375, 0.199462890625, -0.707763671875
95, 907246638, -6.309267520904541, 1.746626853942871, 7.126208305358887, -0.29735067486763, -0.8976483345031738, -1.4263585805892944, 0.6005859375, 0.20263671875, -0.705810546875
96, 907263305, -6.3033857345581055, 1.7424958944320679, 7.098019599914551, -0.27072620391845703, -0.8489328622817993, -1.389770746231079, 0.601318359375, 0.2001953125, -0.708740234375
97, 907279972, -6.315252780914307, 1.7461566925048828, 7.12941837310791, -0.2748754620552063, -0.8162639141082764, -1.4869709014892578, 0.599853515625, 0.198486328125, -0.708251953125
98, 907296639, -6.303652763366699, 1.7562440633773804, 7.106518268585205, -0.30002716183662415, -0.8064669966697693, -1.3684865236282349, 0.600830078125, 0.199951171875, -0.705810546875
99, 907313306, -6.306754112243652, 1.752392292022705, 7.128693103790283, -0.34052085876464844, -0.8446685075759888, -1.4623315334320068, 0.599853515625, 0.2001953125, -0.704345703125
100, 907329973, -6.30792760848999, 1.744041085243225, 7.111576080322266, -0.37206289172172546, -0.9081495404243469, -1.4764186143875122, 0.6015625, 0.2041015625, -0.708251953125
101, 907346640, -6.310759544372559, 1.7514654397964478, 7.078816890716553, -0.3872639834880829, -0.8577948808670044, -1.4700151681900024, 0.601318359375, 0.20068359375, -0.708251953125
102, 907363307, -6.3174567222595215, 1.7433196306228638, 7.097275257110596, -0.34472134709358215, -0.8870702981948853, -1.4574522972106934, 0.601806640625, 0.2001953125, -0.709228515625
103, 907379974, -6.3015546798706055, 1.7399096488952637, 7.0748701095581055, -0.33126184344291687, -0.923658013343811, -1.3564996719360352, 0.601318359375, 0.2001953125, -0.708251953125
104, 907396641, -6.305451393127441, 1.7642592191696167, 7.111636161804199, -0.24077220261096954, -0.887134313583374, -1.313905954360962, 0.599609375, 0.199462890625, -0.708740234375
105, 907413308, -6.290186405181885, 1.7466926574707031, 7.134685516357422, -0.20158475637435913, -0.7653459310531616, -1.2870253324508667, 0.602294921875, 0.201171875, -0.706298828125
106, 907429975, -6.30145263671875, 1.7470030784606934, 7.134894847869873, -0.1253485381603241, -0.6716418862342834, -1.2410889863967896, 0.600830078125, 0.20068359375, -0.708740234375
107, 907446642, -6.306450366973877, 1.7515833377838135, 7.11289119720459, 0.05299908295273781, -0.6479501128196716, -1.2237236499786377, 0.60009765625, 0.201171875, -0.709228515625
108, 907463309, -6.313907623291016, 1.7699064016342163, 7.11600923538208, -0.011436070315539837, -0.6033199429512024, -1.19785475730896, 0.6005859375, 0.201171875, -0.708740234375
109, 907479976, -6.317512035369873, 1.7553107738494873, 7.117249011993408, -0.04400261864066124, -0.7139796614646912, -1.1510859727859497, 0.600341796875, 0.20068359375, -0.707275390625
110, 907496643, -6.3019609451293945, 1.751572608947754, 7.103883743286133, 0.0509500689804554, -0.574787437915802, -1.2159501314163208, 0.599609375, 0.20068359375, -0.709228515625
111, 907513310, -6.305654048919678, 1.7485054731369019, 7.101372241973877, 0.0726696327328682, -0.5271094441413879, -1.0973633527755737, 0.599365234375, 0.198974609375, -0.706787109375
112, 907529977, -6.319378852844238, 1.7438628673553467, 7.098517894744873, 0.042843643575906754, -0.51690274477005, -1.0973633527755737, 0.602294921875, 0.199462890625, -0.708251953125
113, 907546644, -6.3326873779296875, 1.7687108516693115, 7.0880656242370605, -0.01940162293612957, -0.6513822078704834, -1.0577276945114136, 0.602294921875, 0.19970703125, -0.706298828125
114, 907563311, -6.323757171630859, 1.7148269414901733, 7.102092742919922, 0.09412027150392532, -0.6364116072654724, -1.0981061458587646, 0.599365234375, 0.199951171875, -0.706298828125
115, 907579978, -6.303217887878418, 1.756121039390564, 7.101817607879639, 0.11788886785507202, -0.6534311771392822, -0.962973415851593, 0.59912109375, 0.2021484375, -0.709228515625
116, 907596645, -6.3118696212768555, 1.7537668943405151, 7.112127304077148, 0.13981333374977112, -0.6037681698799133, -0.9951046705245972, 0.59912109375, 0.200439453125, -0.707275390625
117, 907613312, -6.309221267700195, 1.758444905281067, 7.098635673522949, 0.2395363599061966, -0.6387166380882263, -0.9226717948913574, 0.600830078125, 0.198974609375, -0.706787109375
118, 907629979, -6.292842864990234, 1.7875462770462036, 7.112931251525879, -0.06121435761451721, -0.7641933560371399, -1.209175705909729, 0.601806640625, 0.199462890625, -0.706298828125
119, 907646646, -6.290704250335693, 1.7662725448608398, 7.094395160675049, -0.23484285175800323, -0.7687267661094666, -1.271043062210083, 0.600830078125, 0.198974609375, -0.707763671875
120, 907663313, -6.30369758605957, 1.7645562887191772, 7.106873989105225, -0.10123419761657715, -0.6370903253555298, -1.3621858358383179, 0.601806640625, 0.2001953125, -0.706787109375
121, 907679980, -6.3172736167907715, 1.7467881441116333, 7.114900588989258, 0.05351133272051811, -0.4903039038181305, -1.1429411172866821, 0.599609375, 0.200439453125, -0.707763671875
122, 907696647, -6.321136951446533, 1.75350821018219, 7.084776401519775, 0.35047775506973267, -0.3365764617919922, -1.1147414445877075, 0.599853515625, 0.199462890625, -0.707763671875
123, 907713314, -6.313299179077148, 1.7784969806671143, 7.093446731567383, 0.2797611355781555, -0.46426862478256226, -1.0908704996109009, 0.600341796875, 0.199462890625, -0.708740234375
124, 907729981, -6.308157920837402, 1.7769660949707031, 7.110622882843018, 0.1859033852815628, -0.5166850090026855, -1.0940335988998413, 0.600341796875, 0.199462890625, -0.709228515625
125, 907746648, -6.323523044586182, 1.7631511688232422, 7.0917253494262695, 0.0616561658680439, -0.6452735662460327, -1.2432531118392944, 0.598388671875, 0.197509765625, -0.706787109375
126, 907763315, -6.310403347015381, 1.7716552019119263, 7.113084316253662, -0.055746037513017654, -0.7617601156234741, -1.3628005981445312, 0.600341796875, 0.2001953125, -0.706298828125
127, 907779982, -6.3188157081604, 1.7515290975570679, 7.081490516662598, -0.142906054854393, -0.6964221596717834, -1.3395698070526123, 0.602294921875, 0.199462890625, -0.706298828125
128, 907796649, -6.30699348449707, 1.7710143327713013, 7.105316638946533, -0.1344282478094101, -0.7302563786506653, -1.4233616590499878, 0.600830078125, 0.199462890625, -0.708251953125
129, 907813316, -6.315964221954346, 1.7711979150772095, 7.110391616821289, -0.2248026579618454, -0.727912962436676, -1.4160109758377075, 0.599365234375, 0.199951171875, -0.704833984375
130, 907829983, -6.314994812011719, 1.7649633884429932, 7.085380554199219, -0.29238176345825195, -0.7293087840080261, -1.3346648216247559, 0.603271484375, 0.197021484375, -0.709228515625
131, 907846650, -6.309121608734131, 1.7483879327774048, 7.091917991638184, -0.22508440911769867, -0.7650641202926636, -1.3675259351730347, 0.601318359375, 0.197998046875, -0.707275390625
132, 907863317, -6.315143585205078, 1.7742027044296265, 7.123092174530029, -0.27461937069892883, -0.795018196105957, -1.4034991264343262, 0.601318359375, 0.2001953125, -0.708740234375
133, 907879984, -6.315106391906738, 1.755846619606018, 7.0947794914245605, -0.28125303983688354, -0.8514429330825806, -1.3708300590515137, 0.599853515625, 0.198974609375, -0.706298828125
134, 907896651, -6.317837238311768, 1.756095290184021, 7.093322277069092, -0.2633753716945648, -0.7754500508308411, -1.2828633785247803, 0.601806640625, 0.198974609375, -0.708740234375
135, 907913318, -6.32301664352417, 1.7667309045791626, 7.111846446990967, -0.1918647438287735, -0.8311577439308167, -1.3472920656204224, 0.601806640625, 0.19970703125, -0.704833984375
136, 907929985, -6.320184230804443, 1.7708213329315186, 7.1102776527404785, -0.17352601885795593, -0.8614062070846558, -1.2662532329559326, 0.600830078125, 0.199462890625, -0.709228515625
137, 907946652, -6.318891525268555, 1.7527886629104614, 7.102428913116455, -0.20520895719528198, -0.8552079796791077, -1.277484655380249, 0.600830078125, 0.198486328125, -0.706298828125
138, 907963319, -6.3194260597229, 1.7593692541122437, 7.119587421417236, -0.08544395864009857, -0.7799322605133057, -1.2482861280441284, 0.599853515625, 0.197509765625, -0.706787109375
139, 907979986, -6.321773529052734, 1.7679730653762817, 7.12818717956543, -0.10745806992053986, -0.8395458459854126, -1.2174996137619019, 0.600830078125, 0.2001953125, -0.709228515625
140, 907996653, -6.309358596801758, 1.7588245868682861, 7.088929176330566, -0.08736491948366165, -0.7630791664123535, -1.2427793741226196, 0.600341796875, 0.199951171875, -0.707275390625
141, 908013320, -6.310697078704834, 1.765807032585144, 7.116524696350098, -0.046986497938632965, -0.7225086092948914, -1.1699752807617188, 0.600341796875, 0.198486328125, -0.708251953125
142, 908029987, -6.315008640289307, 1.7684956789016724, 7.116846561431885, -0.043080560863018036, -0.7465717792510986, -1.2325727939605713, 0.600830078125, 0.199951171875, -0.70361328125
143, 908046654, -6.32713508605957, 1.7728562355041504, 7.087769031524658, -0.07444330304861069, -0.6433268785476685, -1.2295632362365723, 0.599853515625, 0.199462890625, -0.704833984375
144, 908063321, -6.314361095428467, 1.7927852869033813, 7.094032287597656, 0.10829689353704453, -0.617611825466156, -1.0983365774154663, 0.601806640625, 0.199462890625, -0.706787109375
145, 908079988, -6.313270568847656, 1.7597723007202148, 7.093823432922363, 0.18418730795383453, -0.5003056526184082, -1.0602120161056519, 0.600830078125, 0.197021484375, -0.70458984375
146, 908096655, -6.3154401779174805, 1.7584871053695679, 7.12238883972168, 0.31130310893058777, -0.33564162254333496, -0.9791861772537231, 0.59912109375, 0.198974609375, -0.706787109375
147, 908113322, -6.304300785064697, 1.7732198238372803, 7.107975959777832, 0.7454000115394592, -0.13654130697250366, -0.7873215675354004, 0.599853515625, 0.196044921875, -0.707763671875
148, 908129989, -6.332812786102295, 1.770786166191101, 7.10006856918335, 0.8252602815628052, -0.03256654739379883, -0.6338374018669128, 0.602783203125, 0.197998046875, -0.707763671875
149, 908146656, -6.31851863861084, 1.7944824695587158, 7.108119487762451, 0.5868445634841919, -0.3517135977745056, -0.7729784846305847, 0.603759765625, 0.197998046875, -0.707275390625
150, 908163323, -6.313809871673584, 1.8144419193267822, 7.099393367767334, 0.3320366442203522, -0.5935743451118469, -0.9790455102920532, 0.601806640625, 0.198486328125, -0.705078125
151, 908179990, -6.3125433921813965, 1.793636679649353, 7.075170993804932, 0.0902271494269371, -0.7555618286132812, -1.0318716764450073, 0.602294921875, 0.197998046875, -0.706787109375
152, 908196657, -6.303857326507568, 1.779970407485962, 7.108156681060791, 0.08539914339780807, -0.6199041604995728, -1.088987946510315, 0.600341796875, 0.197509765625, -0.704833984375
153, 908213324, -6.3197197914123535, 1.8074204921722412, 7.090066432952881, 0.19061613082885742, -0.5489826798439026, -1.025635004043579, 0.602783203125, 0.196533203125, -0.705810546875
154, 908229991, -6.314478874206543, 1.797735333442688, 7.09519100189209, 0.156000554561615, -0.5043140053749084, -1.0426162481307983, 0.601806640625, 0.199462890625, -0.705810546875
155, 908246658, -6.328948020935059, 1.8046365976333618, 7.092241287231445, 0.0099185174331069, -0.7466614842414856, -1.2489008903503418, 0.601318359375, 0.195556640625, -0.705810546875
156, 908263325, -6.318222522735596, 1.7951329946517944, 7.099700927734375, -0.15322798490524292, -0.7825191617012024, -1.354719638824463, 0.602294921875, 0.197509765625, -0.70458984375
157, 908279992, -6.320757865905762, 1.7947279214859009, 7.098477363586426, -0.19486141204833984, -0.6621138453483582, -1.39051353931427, 0.599365234375, 0.196044921875, -0.70458984375
158, 908296659, -6.3208208084106445, 1.7996107339859009, 7.124992370605469, -0.26472008228302, -0.7720052003860474, -1.4274598360061646, 0.601318359375, 0.19482421875, -0.705810546875
159, 908313326, -6.318404674530029, 1.8013914823532104, 7.090335845947266, -0.3979317247867584, -0.9079062342643738, -1.5032222270965576, 0.601806640625, 0.199462890625, -0.705322265625
160, 908329993, -6.324857711791992, 1.7820370197296143, 7.113227844238281, -0.44056397676467896, -0.9157691597938538, -1.55609929561615, 0.601806640625, 0.197021484375, -0.708251953125
161, 908346660, -6.314951419830322, 1.7923197746276855, 7.096593856811523, -0.5028925538063049, -0.9041154384613037, -1.5649869441986084, 0.600341796875, 0.198486328125, -0.70361328125
162, 908363327, -6.325222492218018, 1.7857112884521484, 7.096465587615967, -0.4820438027381897, -0.8973792791366577, -1.5474936962127686, 0.600341796875, 0.198486328125, -0.705810546875
163, 908379994, -6.305581569671631, 1.7945058345794678, 7.090114116668701, -0.6048054099082947, -0.867348313331604, -1.6075680255889893, 0.600341796875, 0.197021484375, -0.707763671875
164, 908396661, -6.316051483154297, 1.768014907836914, 7.122082233428955, -0.5188364386558533, -0.781994104385376, -1.5828903913497925, 0.598876953125, 0.197998046875, -0.705810546875
165, 908413328, -6.315731525421143, 1.783378005027771, 7.094814777374268, -0.40985438227653503, -0.793391764163971, -1.6180565357208252, 0.600341796875, 0.198974609375, -0.70458984375
166, 908429995, -6.3160223960876465, 1.784990906715393, 7.087059497833252, -0.4678542912006378, -0.8036879301071167, -1.659241795539856, 0.603271484375, 0.196044921875, -0.706298828125
167, 908446662, -6.335676670074463, 1.7773221731185913, 7.095243453979492, -0.5296193957328796, -0.7941473126411438, -1.8036717176437378, 0.601318359375, 0.197509765625, -0.706787109375
168, 908463329, -6.319179058074951, 1.777783989906311, 7.0989837646484375, -0.5092571973800659, -0.7553055882453918, -1.7217621803283691, 0.603271484375, 0.197021484375, -0.707275390625
169, 908479996, -6.322727680206299, 1.7675586938858032, 7.1121826171875, -0.5895915031433105, -0.850533664226532, -1.6737642288208008, 0.601318359375, 0.198486328125, -0.709228515625
170, 908496663, -6.307849884033203, 1.7594763040542603, 7.094305515289307, -0.5163648128509521, -0.8207845091819763, -1.6786178350448608, 0.601806640625, 0.198974609375, -0.705810546875
171, 908513330, -6.307535648345947, 1.7731056213378906, 7.089682579040527, -0.5433093309402466, -0.8694230318069458, -1.6814607381820679, 0.599365234375, 0.197998046875, -0.707275390625
172, 908529997, -6.319199562072754, 1.748274803161621, 7.097541809082031, -0.6071874499320984, -0.7168866395950317, -1.6366386413574219, 0.601318359375, 0.197998046875, -0.705322265625
173, 908546664, -6.324545860290527, 1.7562124729156494, 7.084197998046875, -0.44730016589164734, -0.8895546197891235, -1.6277382373809814, 0.603271484375, 0.199462890625, -0.70458984375
174, 908563331, -6.322930812835693, 1.7592402696609497, 7.086215019226074, -0.6276391744613647, -0.827546238899231, -1.6331168413162231, 0.59912109375, 0.199462890625, -0.708251953125
175, 908579998, -6.326808929443359, 1.764966368675232, 7.091226577758789, -0.5937920212745667, -0.8952534794807434, -1.6714718341827393, 0.599853515625, 0.199951171875, -0.706787109375
176, 908596665, -6.323019027709961, 1.8022981882095337, 7.067622661590576, -0.625487744808197, -1.000457763671875, -1.7799162864685059, 0.599853515625, 0.198486328125, -0.705322265625
177, 908613332, -6.318887233734131, 1.7421989440917969, 7.089812755584717, -0.6693239212036133, -0.9708878397941589, -1.8491218090057373, 0.601318359375, 0.2001953125, -0.707763671875
178, 908629999, -6.33250093460083, 1.7606037855148315, 7.090954303741455, -0.6706173419952393, -0.8396227955818176, -1.8495571613311768, 0.602294921875, 0.199462890625, -0.705322265625
179, 908646666, -6.321050643920898, 1.7612106800079346, 7.126232624053955, -0.7235075235366821, -0.8431828618049622, -1.8193724155426025, 0.600341796875, 0.20068359375, -0.706298828125
180, 908663333, -6.333329200744629, 1.75027596950531, 7.0852861404418945, -0.6694391965866089, -0.9252844452857971, -1.77170729637146, 0.599853515625, 0.200439453125, -0.706298828125
181, 908680000, -6.314670562744141, 1.7713513374328613, 7.101438045501709, -0.7339703440666199, -0.9685827493667603, -1.7561603784561157, 0.601806640625, 0.197998046875, -0.706787109375
182, 908696667, -6.325793743133545, 1.7543623447418213, 7.115566730499268, -0.5776687264442444, -0.6981124877929688, -1.7316102981567383, 0.598876953125, 0.199462890625, -0.705322265625
183, 908713334, -6.3249287605285645, 1.7384469509124756, 7.078958988189697, -0.3652627468109131, -0.5774383544921875, -1.5914068222045898, 0.601806640625, 0.199462890625, -0.705810546875
184, 908730001, -6.320718288421631, 1.7473487854003906, 7.109201908111572, -0.45162877440452576, -0.5928444266319275, -1.5778703689575195, 0.599609375, 0.201171875, -0.707275390625
185, 908746668, -6.336491107940674, 1.7462397813796997, 7.1081414222717285, -0.373305082321167, -0.7071281671524048, -1.5827109813690186, 0.59912109375, 0.20166015625, -0.707763671875
186, 908763335, -6.331769943237305, 1.7518417835235596, 7.099880218505859, -0.3595382571220398, -0.8174164295196533, -1.6006526947021484, 0.601318359375, 0.20068359375, -0.707763671875
187, 908780002, -6.312801837921143, 1.7495617866516113, 7.085517406463623, -0.39400017261505127, -0.8965341448783875, -1.5190637111663818, 0.601806640625, 0.2021484375, -0.707275390625
188, 908796669, -6.312600612640381, 1.7586042881011963, 7.109370231628418, -0.3772622346878052, -0.990686297416687, -1.52573561668396, 0.59912109375, 0.201171875, -0.705810546875
189, 908813336, -6.318325042724609, 1.7336969375610352, 7.09694242477417, -0.6223629117012024, -1.037826418876648, -1.62654709815979, 0.601806640625, 0.2001953125, -0.708740234375
190, 908830003, -6.311537265777588, 1.7476904392242432, 7.095037937164307, -0.827187716960907, -1.3190027475357056, -1.5980020761489868, 0.602294921875, 0.199462890625, -0.705322265625
191, 908846670, -6.31099271774292, 1.7644611597061157, 7.095611095428467, -1.1331697702407837, -1.6416457891464233, -1.8213446140289307, 0.602294921875, 0.201171875, -0.705810546875
192, 908863337, -6.309346675872803, 1.7636457681655884, 7.097787380218506, -1.4158827066421509, -1.8429745435714722, -2.1022517681121826, 0.601806640625, 0.201171875, -0.707275390625
193, 908880004, -6.312802314758301, 1.7417954206466675, 7.100740432739258, -1.0108307600021362, -1.5602487325668335, -2.0059096813201904, 0.6005859375, 0.2021484375, -0.706787109375
194, 908896671, -6.32330322265625, 1.7146602869033813, 7.1051459312438965, -0.7683297395706177, -1.180079460144043, -1.7885605096817017, 0.60009765625, 0.20361328125, -0.705322265625
195, 908913338, -6.31171178817749, 1.7207703590393066, 7.122846603393555, -0.7306150794029236, -1.0273255109786987, -1.793055534362793, 0.60009765625, 0.20166015625, -0.705810546875
196, 908930005, -6.30985689163208, 1.7428632974624634, 7.1165313720703125, -0.7005329728126526, -1.0887062549591064, -1.7154744863510132, 0.601318359375, 0.201171875, -0.707275390625
197, 908946672, -6.319979667663574, 1.7213032245635986, 7.104438781738281, -0.6779041290283203, -1.14630925655365, -1.7237091064453125, 0.6015625, 0.205078125, -0.706298828125
198, 908963339, -6.316163063049316, 1.7130125761032104, 7.118401050567627, -0.7181545495986938, -1.1187883615493774, -1.6927690505981445, 0.599609375, 0.20361328125, -0.708251953125
199, 908980006, -6.316314220428467, 1.7422749996185303, 7.10176944732666, -0.7269909381866455, -1.2374264001846313, -1.6080806255340576, 0.599609375, 0.20361328125, -0.707763671875
200, 908996673, -6.3148322105407715, 1.7256665229797363, 7.10386323928833, -0.5923449397087097, -1.1960105895996094, -1.622129201889038, 0.5986328125, 0.20458984375, -0.706298828125
201, 909013340, -6.31611967086792, 1.7264214754104614, 7.106071949005127, -0.49493980407714844, -1.0307061672210693, -1.5257357358932495, 0.59814453125, 0.205078125, -0.708251953125
202, 909030007, -6.3089799880981445, 1.7271971702575684, 7.125421047210693, -0.5350236892700195, -1.020947813987732, -1.6254587173461914, 0.60107421875, 0.20263671875, -0.708251953125
203, 909046674, -6.308782577514648, 1.7042361497879028, 7.127303123474121, -0.4944787621498108, -0.9370661973953247, -1.4818867444992065, 0.60107421875, 0.203125, -0.708251953125
204, 909063341, -6.315556526184082, 1.7168585062026978, 7.09827995300293, -0.4208422303199768, -0.9660083651542664, -1.5055911540985107, 0.602783203125, 0.2021484375, -0.707275390625
205, 909080008, -6.302453994750977, 1.7210566997528076, 7.108878135681152, -0.3182378113269806, -0.8470760583877563, -1.3904110193252563, 0.59912109375, 0.20263671875, -0.709228515625
206, 909096675, -6.305867671966553, 1.718336820602417, 7.099893093109131, -0.3674910366535187, -0.971733033657074, -1.4224910736083984, 0.59912109375, 0.203125, -0.707763671875
207, 909113342, -6.312881946563721, 1.7182341814041138, 7.109262943267822, -0.3338615596294403, -1.0615694522857666, -1.3869788646697998, 0.599609375, 0.2041015625, -0.7109375
208, 909130009, -6.301779747009277, 1.7327197790145874, 7.105175971984863, -0.39745789766311646, -1.0219340324401855, -1.4159084558486938, 0.60009765625, 0.20361328125, -0.708251953125
209, 909146676, -6.308451175689697, 1.7184052467346191, 7.116465091705322, -0.43367424607276917, -0.919790506362915, -1.3874784708023071, 0.60107421875, 0.205322265625, -0.707763671875
210, 909163343, -6.321863174438477, 1.715980052947998, 7.111320972442627, -0.3485375940799713, -0.9765481352806091, -1.445631980895996, 0.60205078125, 0.20458984375, -0.707275390625
211, 909180010, -6.29396915435791, 1.7210129499435425, 7.130375385284424, -0.3232322633266449, -0.8796170353889465, -1.4723460674285889, 0.60009765625, 0.20166015625, -0.709716796875
212, 909196677, -6.299218654632568, 1.7119921445846558, 7.103756904602051, -0.26514264941215515, -0.7857719659805298, -1.4675050973892212, 0.60009765625, 0.20361328125, -0.708251953125
213, 909213344, -6.309403419494629, 1.720202922821045, 7.1153459548950195, -0.22473862767219543, -0.7910481691360474, -1.4422380924224854, 0.5986328125, 0.2041015625, -0.708740234375
214, 909230011, -6.31086540222168, 1.7256666421890259, 7.109246730804443, -0.2908066213130951, -0.7966575026512146, -1.5250955820083618, 0.60107421875, 0.2021484375, -0.7099609375
215, 909246678, -6.30809211730957, 1.7134770154953003, 7.105745792388916, -0.31982579827308655, -0.791086733341217, -1.533201813697815, 0.599609375, 0.203125, -0.70947265625
216, 909263345, -6.3138885498046875, 1.7168420553207397, 7.113807201385498, -0.3546590507030487, -0.912247359752655, -1.5050917863845825, 0.60009765625, 0.205078125, -0.708740234375
217, 909280012, -6.314858913421631, 1.714712142944336, 7.127936363220215, -0.37358683347702026, -0.8564886450767517, -1.4849090576171875, 0.602294921875, 0.2041015625, -0.707763671875
218, 909296679, -6.301078796386719, 1.7088907957077026, 7.107358455657959, -0.30913245677948, -0.9308038949966431, -1.4368082284927368, 0.599609375, 0.20458984375, -0.707763671875
219, 909313346, -6.307643413543701, 1.7080096006393433, 7.120941162109375, -0.2723142206668854, -0.88614821434021, -1.3793976306915283, 0.60107421875, 0.20166015625, -0.709228515625
220, 909330013, -6.313924312591553, 1.7096664905548096, 7.115052700042725, -0.1524852067232132, -0.7677279114723206, -1.3410297632217407, 0.59912109375, 0.20361328125, -0.707275390625
221, 909346680, -6.30499267578125, 1.6937119960784912, 7.111167907714844, -0.0976100042462349, -0.7877825498580933, -1.2435734272003174, 0.59765625, 0.205078125, -0.708984375
222, 909363347, -6.3110127449035645, 1.7172777652740479, 7.1176323890686035, -0.10601097345352173, -0.6805806756019592, -1.2367221117019653, 0.59912109375, 0.203125, -0.70947265625
223, 909380014, -6.310372829437256, 1.7157930135726929, 7.115371227264404, -0.016315288841724396, -0.6900061964988708, -1.1488192081451416, 0.599609375, 0.20263671875, -0.706787109375
224, 909396681, -6.301272392272949, 1.7219098806381226, 7.131258964538574, 0.0032976348884403706, -0.5634153485298157, -1.0394401550292969, 0.5986328125, 0.20458984375, -0.706298828125
225, 909413348, -6.297539234161377, 1.6781691312789917, 7.096489906311035, 0.7912338376045227, 0.21880288422107697, -0.6571577191352844, 0.60009765625, 0.20458984375, -0.706298828125
226, 909430015, -6.314985275268555, 1.7229835987091064, 7.103984832763672, 0.9456528425216675, 0.40983518958091736, -0.5486496090888977, 0.59814453125, 0.20263671875, -0.706298828125
227, 909446682, -6.314359664916992, 1.7378181219100952, 7.116081237792969, 0.8437399864196777, 0.22269603610038757, -0.46857157349586487, 0.601806640625, 0.2021484375, -0.705810546875
228, 909463349, -6.307526588439941, 1.737255573272705, 7.097477912902832, 0.718224823474884, -0.0569114163517952, -0.6155627965927124, 0.602294921875, 0.20166015625, -0.707763671875
229, 909480016, -6.312540531158447, 1.7395185232162476, 7.096427917480469, 0.515180230140686, -0.14326463639736176, -0.7271189093589783, 0.599609375, 0.20263671875, -0.707763671875
230, 909496683, -6.316391468048096, 1.7455953359603882, 7.127856254577637, 0.35105404257774353, -0.2076549530029297, -0.8887861967086792, 0.59814453125, 0.201171875, -0.705810546875
231, 909513350, -6.317075252532959, 1.737138271331787, 7.099766254425049, -0.05055946856737137, -0.5988761782646179, -1.2246712446212769, 0.6005859375, 0.20263671875, -0.705810546875
232, 909530017, -6.315919876098633, 1.7228747606277466, 7.111678600311279, -0.2855687737464905, -0.9022713899612427, -1.2899068593978882, 0.60107421875, 0.20263671875, -0.707275390625
233, 909546684, -6.33082389831543, 1.7596951723098755, 7.090437412261963, -0.33847182989120483, -0.9259374737739563, -1.3394927978515625, 0.6005859375, 0.203125, -0.706787109375
234, 909563351, -6.3213677406311035, 1.7523488998413086, 7.092290878295898, -0.4140549302101135, -0.9763817191123962, -1.3808703422546387, 0.60009765625, 0.203125, -0.708251953125
235, 909580018, -6.316106796264648, 1.7151190042495728, 7.120419025421143, -0.2581504285335541, -0.911427915096283, -1.3934205770492554, 0.60009765625, 0.20068359375, -0.707763671875
236, 909596685, -6.300334930419922, 1.7153680324554443, 7.12219762802124, -0.19691044092178345, -0.836792528629303, -1.2828633785247803, 0.60107421875, 0.2021484375, -0.708251953125
237, 909613352, -6.318054676055908, 1.7254605293273926, 7.115440368652344, 0.01425986923277378, -0.6205573081970215, -1.1206836700439453, 0.601806640625, 0.20166015625, -0.705810546875
238, 909630019, -6.321552753448486, 1.7377523183822632, 7.118624210357666, 0.10935982316732407, -0.5151097774505615, -1.0104594230651855, 0.601318359375, 0.2001953125, -0.707275390625
239, 909646686, -6.336288928985596, 1.7411079406738281, 7.090835094451904, 0.11595508456230164, -0.4958106279373169, -1.0238419771194458, 0.60009765625, 0.199951171875, -0.708251953125
240, 909663353, -6.316296577453613, 1.7583153247833252, 7.0883636474609375, -0.02921128273010254, -0.6842048168182373, -1.1344120502471924, 0.59912109375, 0.2021484375, -0.707763671875
241, 909680020, -6.313623905181885, 1.7485556602478027, 7.108859539031982, -0.09145014733076096, -0.7510027885437012, -1.205013632774353, 0.599609375, 0.2021484375, -0.708740234375
242, 909696687, -6.315152645111084, 1.755933165550232, 7.098155975341797, -0.14072895050048828, -0.8343848586082458, -1.2539335489273071, 0.600341796875, 0.199462890625, -0.706787109375
243, 909713354, -6.309969425201416, 1.7389603853225708, 7.0916619300842285, -0.25558915734291077, -0.9635498523712158, -1.3062607049942017, 0.59912109375, 0.2021484375, -0.707763671875
244, 909730021, -6.312506675720215, 1.7418792247772217, 7.109569072723389, -0.18199104070663452, -1.0222541093826294, -1.2884852886199951, 0.601318359375, 0.20166015625, -0.706298828125
245, 909746688, -6.315102577209473, 1.7427937984466553, 7.1044135093688965, -0.1744224727153778, -1.067050576210022, -1.2196768522262573, 0.599609375, 0.2021484375, -0.706787109375
246, 909763355, -6.33057975769043, 1.714242696762085, 7.105827331542969, -0.22391903400421143, -0.9597078561782837, -1.2164111137390137, 0.601318359375, 0.20166015625, -0.707763671875
247, 909780022, -6.321990013122559, 1.7393860816955566, 7.108374118804932, -0.15006479620933533, -0.975446879863739, -1.1733818054199219, 0.600830078125, 0.2001953125, -0.707275390625
248, 909796689, -6.301326274871826, 1.7513799667358398, 7.125344753265381, -0.2234708070755005, -1.098259687423706, -1.1760199069976807, 0.601318359375, 0.2021484375, -0.706787109375
249, 909813356, -6.296955108642578, 1.7462809085845947, 7.094831943511963, -0.22831161320209503, -1.066064715385437, -1.2264386415481567, 0.5986328125, 0.20458984375, -0.708251953125
250, 909830023, -6.317708969116211, 1.7451411485671997, 7.120171546936035, -0.07204851508140564, -0.9443657398223877, -1.3103711605072021, 0.599609375, 0.20068359375, -0.708740234375
251, 909846690, -6.307908535003662, 1.7353638410568237, 7.095706462860107, -0.1504490077495575, -0.8444890975952148, -1.2262848615646362, 0.60107421875, 0.201171875, -0.709228515625
252, 909863357, -6.305367946624756, 1.7561287879943848, 7.119100570678711, -0.18938031792640686, -0.8920775651931763, -1.279815435409546, 0.60009765625, 0.203125, -0.707275390625
253, 909880024, -6.305603504180908, 1.7337491512298584, 7.099817276000977, -0.010834172368049622, -0.6525604128837585, -1.2348010540008545, 0.600830078125, 0.2021484375, -0.706298828125
254, 909896691, -6.315168857574463, 1.7269638776779175, 7.12424898147583, 0.3638603687286377, -0.2653219401836395, -1.0475209951400757, 0.60009765625, 0.201171875, -0.708251953125
255, 909913358, -6.327174186706543, 1.740516185760498, 7.104885578155518, 0.5740255117416382, -0.1393458992242813, -0.8383805155754089, 0.602294921875, 0.201171875, -0.71044921875
256, 909930025, -6.305513858795166, 1.7410778999328613, 7.0837507247924805, 0.5272949934005737, -0.18973885476589203, -0.8752755522727966, 0.600341796875, 0.199951171875, -0.706787109375
257, 909946692, -6.309933185577393, 1.740402340888977, 7.105724811553955, 0.27407512068748474, -0.4598888158798218, -0.8144710659980774, 0.599609375, 0.201171875, -0.706787109375
258, 909963359, -6.318050861358643, 1.7478116750717163, 7.108901023864746, 0.13762344419956207, -0.6831932067871094, -0.9755749106407166, 0.600830078125, 0.199951171875, -0.708740234375
259, 909980026, -6.338866233825684, 1.7133464813232422, 7.104404449462891, 0.004629495553672314, -0.8916293382644653, -0.9568648934364319, 0.600830078125, 0.201171875, -0.707275390625
260, 909996693, -6.318068504333496, 1.7229833602905273, 7.09686803817749, 0.12339558452367783, -1.0138530731201172, -0.689160943031311, 0.6005859375, 0.2021484375, -0.706298828125
261, 910013360, -6.330547332763672, 1.7232638597488403, 7.085933685302734, 0.5234659314155579, -1.080702304840088, -0.3327473998069763, 0.600341796875, 0.199951171875, -0.708740234375
262, 910030027, -6.337256908416748, 1.7485214471817017, 7.073365688323975, 1.154639720916748, -0.7857208251953125, 0.1573324054479599, 0.600341796875, 0.197998046875, -0.706787109375
263, 910046694, -6.314040660858154, 1.7937754392623901, 7.092073917388916, 1.1647311449050903, -0.849624514579773, 0.16409416496753693, 0.599853515625, 0.2001953125, -0.704833984375
264, 910063361, -6.288513660430908, 1.8235560655593872, 7.082535743713379, 0.677833616733551, -1.3941632509231567, -0.20529858767986298, 0.599609375, 0.198486328125, -0.709716796875
265, 910080028, -6.313412189483643, 1.7817158699035645, 7.078653812408447, 0.20031051337718964, -1.900871992111206, -0.6071873903274536, 0.601318359375, 0.199951171875, -0.708740234375
266, 910096695, -6.294360637664795, 1.7276893854141235, 7.105278968811035, 1.350077509880066, -1.2063326835632324, -0.08228080719709396, 0.600341796875, 0.198974609375, -0.710205078125
267, 910113362, -6.307607650756836, 1.7752304077148438, 7.1185221672058105, 2.1186249256134033, -0.8603562712669373, 0.3264786899089813, 0.601318359375, 0.197509765625, -0.707275390625
268, 910130029, -6.309501647949219, 1.7649455070495605, 7.107214450836182, 2.245612859725952, -0.4141445755958557, 0.618540346622467, 0.600341796875, 0.195556640625, -0.707763671875
269, 910146696, -6.30332612991333, 1.798100233078003, 7.097038745880127, 2.342223882675171, -0.5286461114883423, 0.6482894420623779, 0.602783203125, 0.196044921875, -0.707763671875
270, 910163363, -6.332202434539795, 1.8338059186935425, 7.090784072875977, 1.9563941955566406, -0.8910402655601501, 0.5142070055007935, 0.599365234375, 0.193359375, -0.705810546875
271, 910180030, -6.311074733734131, 1.8451422452926636, 7.097691535949707, 1.3637162446975708, -1.6809871196746826, 0.2392546385526657, 0.599365234375, 0.193359375, -0.710205078125
272, 910196697, -6.292125701904297, 1.86064875125885, 7.09967565536499, 1.075150728225708, -1.9597175121307373, -0.0432470478117466, 0.600830078125, 0.19287109375, -0.711181640625
273, 910213364, -6.289361000061035, 1.8378828763961792, 7.105663776397705, 1.508536696434021, -1.3078739643096924, -0.19099389016628265, 0.599853515625, 0.196533203125, -0.706787109375
274, 910230031, -6.29709529876709, 1.786062479019165, 7.129921913146973, 2.0836892127990723, -0.5158013701438904, -0.04154380038380623, 0.598388671875, 0.19140625, -0.708740234375
275, 910246698, -6.300271987915039, 1.8363157510757446, 7.141188621520996, 2.42258358001709, -0.00922057218849659, 0.07913684099912643, 0.599365234375, 0.19091796875, -0.708740234375
276, 910263365, -6.29596471786499, 1.8313275575637817, 7.124908447265625, 2.1481308937072754, -0.30269089341163635, 0.3086778521537781, 0.599853515625, 0.18994140625, -0.710205078125
277, 910280032, -6.269780158996582, 1.881039023399353, 7.122072219848633, 1.361641526222229, -0.7579822540283203, -0.1652403473854065, 0.598876953125, 0.189697265625, -0.710205078125
278, 910296699, -6.257874965667725, 1.8890119791030884, 7.125284194946289, 0.22224777936935425, -1.1531349420547485, -0.8345130681991577, 0.600830078125, 0.1904296875, -0.707763671875
279, 910313366, -6.270694732666016, 1.9089727401733398, 7.104269504547119, -0.6853188872337341, -0.9435973763465881, -1.5866551399230957, 0.599365234375, 0.1923828125, -0.706787109375
280, 910330033, -6.2935872077941895, 1.9357333183288574, 7.089802265167236, -1.3737373352050781, -0.7921496629714966, -2.3046562671661377, 0.599853515625, 0.18994140625, -0.708251953125
281, 910346700, -6.30877685546875, 1.8885674476623535, 7.071194648742676, -1.2899709939956665, -0.8943570852279663, -2.702242374420166, 0.600830078125, 0.189208984375, -0.708251953125
282, 910363367, -6.2945146560668945, 1.9414937496185303, 7.129113674163818, -0.5801020860671997, -0.3060077428817749, -3.262366533279419, 0.598388671875, 0.19189453125, -0.710693359375
283, 910380034, -6.277273178100586, 1.860999584197998, 7.152338981628418, 1.0412651300430298, 1.9510538578033447, -3.81430721282959, 0.597412109375, 0.1923828125, -0.706787109375
284, 910396701, -6.25786828994751, 1.4831676483154297, 7.392421245574951, 4.976120948791504, 8.126970291137695, -3.8069071769714355, 0.600341796875, 0.19287109375, -0.70556640625
285, 910413368, -6.4621124267578125, 0.2875812351703644, 7.816266059875488, 13.043733596801758, 18.718454360961914, 1.4235371351242065, 0.60302734375, 0.188232421875, -0.7021484375
286, 910430035, -7.09794807434082, -0.1240631714463234, 7.787849426269531, 24.936708450317383, 22.412233352661133, 13.70195484161377, 0.607177734375, 0.184814453125, -0.6953125
287, 910446702, -5.6428985595703125, 0.3206328749656677, 8.323439598083496, 41.08681869506836, 23.818206787109375, 23.69634246826172, 0.610107421875, 0.174072265625, -0.690185546875
288, 910463369, -4.8431196212768555, -3.72641921043396, 12.282537460327148, 71.22894287109375, 59.36882400512695, 40.779048919677734, 0.614990234375, 0.15771484375, -0.67822265625
289, 910480036, 7.178034782409668, -11.67093563079834, 23.91415786743164, -11.271011352539062, 85.31396484375, 48.326499938964844, 0.621826171875, 0.139892578125, -0.656982421875
290, 910496703, 4.754380702972412, -31.048429489135742, 35.942481994628906, -80.8034896850586, 56.92998504638672, -1.8944315910339355, 0.631103515625, 0.14208984375, -0.638671875
291, 910513370, -2.0307087898254395, -25.700334548950195, 40.079261779785156, -0.8735041618347168, -91.31676483154297, -105.38871002197266, 0.625732421875, 0.157470703125, -0.64892578125
292, 910530037, -1.6641082763671875, -16.744203567504883, 36.21100616455078, 17.03529167175293, -251.8308868408203, -189.7987060546875, 0.60009765625, 0.1904296875, -0.703125
293, 910546704, -3.9403257369995117, -9.109521865844727, 30.036022186279297, 24.800737380981445, -315.4322204589844, -205.7012176513672, 0.56103515625, 0.2265625, -0.772705078125
294, 910563371, -9.091318130493164, -1.9884616136550903, 25.591876983642578, -20.81593132019043, -317.5475158691406, -172.7115478515625, 0.5087890625, 0.259033203125, -0.841796875
295, 910580038, -12.723711967468262, -1.2333014011383057, 21.1265926361084, -93.60946655273438, -273.8525390625, -134.77264404296875, 0.458251953125, 0.297119140625, -0.901123046875
296, 910596705, -16.357149124145508, -2.712390422821045, 18.837871551513672, -124.13134002685547, -218.23440551757812, -130.145751953125, 0.412353515625, 0.34326171875, -0.94384765625
297, 910613372, -19.916458129882812, -2.7168190479278564, 18.94954490661621, -96.12867736816406, -206.18585205078125, -142.31619262695312, 0.367431640625, 0.388671875, -0.9775390625
298, 910630039, -18.09367561340332, 0.5362722873687744, 15.998578071594238, -63.62571334838867, -229.2640380859375, -156.12957763671875, 0.31298828125, 0.425048828125, -1.01416015625
299, 910646706, -14.803396224975586, 5.053890705108643, 12.04650592803955, -70.59420013427734, -240.5074920654297, -177.60723876953125, 0.2490234375, 0.46533203125, -1.048095703125
300, 910663373, -14.386016845703125, 8.24752426147461, 11.138458251953125, -64.64845275878906, -231.3029327392578, -180.18568420410156, 0.17578125, 0.501953125, -1.074462890625
301, 910680040, -13.438340187072754, 13.287611961364746, 8.220248222351074, -54.08750534057617, -227.00779724121094, -154.63485717773438, 0.103515625, 0.533447265625, -1.092529296875
302, 910696707, -16.086589813232422, 18.332429885864258, 3.711735248565674, -50.33878707885742, -203.88551330566406, -102.23587036132812, 0.037353515625, 0.553466796875, -1.103515625
303, 910713374, -24.542768478393555, 19.13616180419922, -3.574573040008545, -31.86184310913086, -206.8180694580078, -67.60880279541016, -0.019775390625, 0.56640625, -1.111572265625
304, 910730041, -26.187318801879883, 13.768543243408203, -14.234457015991211, 74.34526824951172, -202.33331298828125, -49.07060623168945, -0.08154296875, 0.559326171875, -1.12744140625
305, 910746708, -23.279071807861328, 13.488924980163574, -23.762619018554688, 170.2419891357422, -138.56259155273438, -31.632057189941406, -0.128173828125, 0.519287109375, -1.14794921875
306, 910763375, -24.55130386352539, 13.589756965637207, -26.67839241027832, 113.66742706298828, -37.43013000488281, -12.841172218322754, -0.150634765625, 0.482666015625, -1.156494140625
307, 910780042, -24.555835723876953, 10.071087837219238, -24.7187557220459, 13.968192100524902, 52.24223327636719, 23.339725494384766, -0.139892578125, 0.4736328125, -1.1572265625
308, 910796709, -23.084266662597656, 7.138558387756348, -19.385168075561523, -24.399179458618164, 132.47439575195312, 45.692691802978516, -0.106201171875, 0.478515625, -1.154052734375
309, 910813376, -22.289566040039062, 7.3724870681762695, -11.676923751831055, -19.736604690551758, 190.9964599609375, 56.736778259277344, -0.051025390625, 0.482421875, -1.1484375
310, 910830043, -21.10700225830078, 8.441701889038086, -4.630248069763184, -17.10379981994629, 225.70852661132812, 69.38447570800781, 0.009765625, 0.48388671875, -1.134765625
311, 910846710, -20.223020553588867, 9.264825820922852, 0.7942579388618469, -16.753284454345703, 247.11412048339844, 77.31626892089844, 0.08154296875, 0.4833984375, -1.1142578125
312, 910863377, -19.800783157348633, 10.94904613494873, 5.4767165184021, -1.8897172212600708, 261.251220703125, 81.73705291748047, 0.15283203125, 0.4775390625, -1.088623046875
313, 910880044, -19.990657806396484, 11.89673137664795, 9.812211036682129, 26.849971771240234, 266.40582275390625, 108.91175079345703, 0.228759765625, 0.459716796875, -1.058837890625
314, 910896711, -19.855987548828125, 10.165437698364258, 13.040088653564453, 45.16289520263672, 268.94610595703125, 151.12791442871094, 0.30078125, 0.4296875, -1.018310546875
315, 910913378, -18.97787857055664, 3.984466314315796, 15.181771278381348, 64.51148223876953, 281.1961364746094, 190.85789489746094, 0.37060546875, 0.38818359375, -0.972412109375
316, 910930045, -16.985567092895508, 0.2057231366634369, 18.88255500793457, 62.51593017578125, 293.13720703125, 186.28396606445312, 0.43701171875, 0.341552734375, -0.91845703125
317, 910946712, -11.778175354003906, -4.719296455383301, 28.082347869873047, 72.23162078857422, 313.8918151855469, 174.87252807617188, 0.497802734375, 0.298828125, -0.85400390625
318, 910963379, -7.527711391448975, -4.389499664306641, 35.403465270996094, 64.71895599365234, 280.9666748046875, 173.39144897460938, 0.546142578125, 0.25, -0.790771484375
319, 910980046, -2.596065044403076, -7.136054039001465, 36.591705322265625, 30.396528244018555, 183.65863037109375, 162.2448272705078, 0.57666015625, 0.216064453125, -0.743408203125
320, 910996713, 1.4682585000991821, -8.344199180603027, 32.03465270996094, 30.489625930786133, 83.36180877685547, 152.96728515625, 0.587890625, 0.178466796875, -0.718994140625
321, 911013380, 5.026660919189453, -9.907501220703125, 25.684900283813477, 60.28679656982422, 32.896995544433594, 161.539794921875, 0.591796875, 0.14208984375, -0.70947265625
322, 911030047, 1.4001057147979736, -9.254329681396484, 22.27739906311035, 48.31743621826172, 27.652029037475586, 147.92324829101562, 0.59326171875, 0.103759765625, -0.699951171875
323, 911046714, -2.452808380126953, -8.118574142456055, 22.251737594604492, -59.178951263427734, 7.261916160583496, 64.54925537109375, 0.591552734375, 0.083740234375, -0.701171875
324, 911063381, 1.033477544784546, -20.525358200073242, 19.05033302307129, -239.10858154296875, -10.337708473205566, -26.678146362304688, 0.591552734375, 0.12451171875, -0.709716796875
325, 911080048, 4.146334171295166, -32.9583740234375, 19.187223434448242, -145.61647033691406, 53.790496826171875, -72.77017211914062, 0.599365234375, 0.162109375, -0.70751953125
326, 911096715, -16.348772048950195, -7.992431640625, 13.605997085571289, 1.55509614944458, 46.78123474121094, -22.757854461669922, 0.60693359375, 0.1787109375, -0.692626953125
327, 911113382, -9.735759735107422, 8.421897888183594, 4.734372615814209, 17.710586547851562, 14.636834144592285, 22.160987854003906, 0.609619140625, 0.171142578125, -0.688720703125
328, 911130049, -6.362200736999512, 3.9007771015167236, 7.303957462310791, 17.899425506591797, 4.219968795776367, 25.253870010375977, 0.6103515625, 0.163818359375, -0.6884765625
329, 911146716, -7.084384918212891, 4.898282051086426, 7.116154670715332, 8.60293197631836, -0.20492731034755707, 9.043330192565918, 0.60986328125, 0.1572265625, -0.6884765625
330, 911163383, -6.709214687347412, 3.809638500213623, 6.64015531539917, -12.765825271606445, -11.899857521057129, -11.372350692749023, 0.606201171875, 0.15869140625, -0.691650390625
331, 911180050, -6.5703206062316895, 0.9495958685874939, 7.034965515136719, -18.425678253173828, -22.897621154785156, -13.17310905456543, 0.60498046875, 0.165771484375, -0.69677734375
332, 911196717, -6.056691646575928, -0.40753617882728577, 7.89609956741333, -7.36307954788208, -11.863324165344238, -4.711190700531006, 0.603515625, 0.16943359375, -0.699462890625
333, 911213384, -6.27187967300415, 0.4072292149066925, 7.371805667877197, 8.22468376159668, 0.5272312164306641, 8.78915023803711, 0.60400390625, 0.165771484375, -0.699951171875
334, 911230051, -6.311026573181152, 1.7156683206558228, 7.021409511566162, 14.715280532836914, 4.271596908569336, 15.62240982055664, 0.603759765625, 0.16162109375, -0.697265625
335, 911246718, -6.365050315856934, 2.8053948879241943, 6.902798652648926, 13.925484657287598, 2.905284881591797, 15.110060691833496, 0.605712890625, 0.154541015625, -0.6982421875
336, 911263385, -6.134602069854736, 2.8784804344177246, 6.991523742675781, 6.819697380065918, -0.46556219458580017, 7.800368785858154, 0.60400390625, 0.150390625, -0.696533203125
337, 911280052, -6.0722198486328125, 2.567631244659424, 6.86605978012085, -2.2173941135406494, -2.748960018157959, -1.045868992805481, 0.603271484375, 0.15087890625, -0.696044921875
338, 911296719, -6.166642189025879, 1.9285718202590942, 7.144852638244629, -6.759090423583984, -2.5847060680389404, -4.565644264221191, 0.603759765625, 0.150390625, -0.697021484375
339, 911313386, -6.405181884765625, 1.8053020238876343, 7.247287273406982, -1.3991833925247192, 0.6475851535797119, -2.279351234436035, 0.602294921875, 0.152587890625, -0.696044921875
340, 911330053, -6.308272838592529, 1.8254989385604858, 7.095279693603516, 0.6184378266334534, 0.6682288646697998, -0.6510491371154785, 0.60595703125, 0.151611328125, -0.7001953125
341, 911346720, -6.327012062072754, 1.8346896171569824, 7.049929141998291, 1.5586541891098022, 0.8296400308609009, 0.820662796497345, 0.60595703125, 0.1513671875, -0.696533203125
342, 911363387, -6.333155632019043, 2.0440244674682617, 7.020887851715088, 1.5437092781066895, -0.06193150579929352, 1.3810815811157227, 0.6064453125, 0.150390625, -0.696533203125
343, 911380054, -6.2800703048706055, 2.3106367588043213, 6.970102310180664, -0.6335428953170776, -1.796295404434204, -0.02731594257056713, 0.603759765625, 0.14990234375, -0.697265625
344, 911396721, -6.169496059417725, 2.27795672416687, 6.939635276794434, -4.32802152633667, -3.046656608581543, -2.570119619369507, 0.603759765625, 0.15087890625, -0.69775390625
345, 911413388, -6.274473667144775, 1.9999549388885498, 7.070744037628174, -5.887476921081543, -2.963287115097046, -3.3385260105133057, 0.602783203125, 0.15234375, -0.696044921875
346, 911430055, -6.279789924621582, 1.9417742490768433, 7.168696403503418, -4.555898189544678, -1.8319231271743774, -2.6623125076293945, 0.604248046875, 0.153564453125, -0.6982421875
347, 911446722, -6.324440956115723, 1.9823962450027466, 7.113435745239258, -2.388166666030884, -0.663240909576416, -1.8796905279159546, 0.603759765625, 0.156982421875, -0.701171875
348, 911463389, -6.315666198730469, 1.9494138956069946, 7.070224285125732, -0.9752164483070374, -0.41059720516204834, -1.2825686931610107, 0.602294921875, 0.154052734375, -0.69775390625
349, 911480056, -6.279306411743164, 1.9662754535675049, 7.056163311004639, -0.5385838150978088, -0.8383420705795288, -0.9269492030143738, 0.601806640625, 0.156982421875, -0.6962890625
350, 911496723, -6.278683185577393, 1.9581847190856934, 7.054488658905029, -0.5857751965522766, -0.7624260187149048, -0.7944290637969971, 0.601318359375, 0.154541015625, -0.69970703125
351, 911513390, -6.285030841827393, 2.0572779178619385, 7.056038856506348, -1.0129951238632202, -1.1601784229278564, -1.0972096920013428, 0.601806640625, 0.153564453125, -0.69921875
352, 911530057, -6.25421667098999, 2.116744041442871, 7.060243129730225, -1.3784115314483643, -1.6638264656066895, -1.497331142425537, 0.604736328125, 0.154541015625, -0.6982421875
353, 911546724, -6.2288818359375, 2.0684804916381836, 7.066781520843506, -2.0046164989471436, -1.5746560096740723, -1.930441975593567, 0.602294921875, 0.155517578125, -0.69775390625
354, 911563391, -6.259169101715088, 2.03159499168396, 7.08209228515625, -2.449765205383301, -1.3225374221801758, -2.3828907012939453, 0.603271484375, 0.154052734375, -0.7001953125
355, 911580058, -6.280285835266113, 1.9594045877456665, 7.1047515869140625, -2.553419828414917, -1.1442217826843262, -2.254596471786499, 0.600830078125, 0.156005859375, -0.69873046875
356, 911596725, -6.283191680908203, 1.9703123569488525, 7.070101737976074, -2.3732216358184814, -1.1762762069702148, -2.2726917266845703, 0.6015625, 0.156982421875, -0.70068359375
357, 911613392, -6.280201435089111, 2.0052967071533203, 7.092929363250732, -2.635124683380127, -1.3196049928665161, -2.424588203430176, 0.601806640625, 0.158203125, -0.69873046875
358, 911630059, -6.275301456451416, 2.029907703399658, 7.058618545532227, -2.908859968185425, -1.5339446067810059, -2.7417755126953125, 0.600830078125, 0.156005859375, -0.697265625
359, 911646726, -6.309885501861572, 1.9139443635940552, 7.086941719055176, -3.018918037414551, -1.8629783391952515, -2.7783889770507812, 0.6025390625, 0.1611328125, -0.69970703125
360, 911663393, -6.259239673614502, 1.9042776823043823, 7.1244354248046875, -3.414557456970215, -2.153170108795166, -3.069951295852661, 0.60302734375, 0.16015625, -0.700927734375
361, 911680060, -6.246182441711426, 2.0203261375427246, 7.096095561981201, -5.010408401489258, -2.3853111267089844, -3.95817494392395, 0.6025390625, 0.16015625, -0.69921875
362, 911696727, -6.24682092666626, 2.0202126502990723, 7.0857391357421875, -5.700926780700684, -2.6602890491485596, -4.710893154144287, 0.60107421875, 0.1611328125, -0.7001953125
363, 911713394, -6.2471842765808105, 1.9848730564117432, 7.120398044586182, -5.904932022094727, -2.8472745418548584, -5.204782962799072, 0.6015625, 0.165283203125, -0.700927734375
364, 911730061, -6.28532075881958, 1.7882919311523438, 7.153979301452637, -5.701311111450195, -2.4340007305145264, -5.223736763000488, 0.6025390625, 0.165771484375, -0.701416015625
365, 911746728, -6.274676322937012, 1.7872542142868042, 7.1370368003845215, -4.636897563934326, -1.6434133052825928, -4.522639274597168, 0.6025390625, 0.167236328125, -0.702392578125
366, 911763395, -6.294961452484131, 1.7767670154571533, 7.127950191497803, -3.615283966064453, -1.376042366027832, -3.7820098400115967, 0.60498046875, 0.16748046875, -0.700927734375
367, 911780062, -6.264553070068359, 1.8127117156982422, 7.115932941436768, -3.034144878387451, -1.2895100116729736, -3.4108567237854004, 0.601806640625, 0.169921875, -0.701904296875
368, 911796729, -6.275440692901611, 1.7594819068908691, 7.115434646606445, -2.693213939666748, -1.327634334564209, -3.1449196338653564, 0.601318359375, 0.171875, -0.702392578125
369, 911813396, -6.253396034240723, 1.8417277336120605, 7.09406852722168, -3.154921293258667, -1.7909040451049805, -3.298428773880005, 0.599365234375, 0.173828125, -0.703369140625
370, 911830063, -6.238031387329102, 1.9167721271514893, 7.1190571784973145, -3.922713041305542, -2.394108533859253, -4.039852619171143, 0.603759765625, 0.17138671875, -0.705078125
371, 911846730, -6.231513023376465, 1.8575643301010132, 7.134489059448242, -4.236225605010986, -2.834865093231201, -4.459952354431152, 0.598876953125, 0.1728515625, -0.7041015625
372, 911863397, -6.258053302764893, 1.8182694911956787, 7.13601541519165, -4.138794422149658, -2.8042449951171875, -4.560047149658203, 0.601318359375, 0.174560546875, -0.7060546875
373, 911880064, -6.261662483215332, 1.7588475942611694, 7.129391193389893, -4.004276752471924, -3.0074563026428223, -4.407881736755371, 0.600341796875, 0.175048828125, -0.70556640625
374, 911896731, -6.277373313903809, 1.6965372562408447, 7.157163143157959, -3.4614670276641846, -3.4524383544921875, -3.752824068069458, 0.59765625, 0.177978515625, -0.70458984375
375, 911913398, -6.246867656707764, 1.7346113920211792, 7.168816566467285, -2.7067246437072754, -3.2575643062591553, -3.1265039443969727, 0.60009765625, 0.178955078125, -0.70458984375
376, 911930065, -6.232828140258789, 1.7517807483673096, 7.17759370803833, -2.272282123565674, -2.8388733863830566, -3.0543019771575928, 0.599609375, 0.177001953125, -0.7060546875
377, 911946732, -6.238144397735596, 1.7038575410842896, 7.176939487457275, -1.7855767011642456, -1.9407639503479004, -2.856738328933716, 0.5986328125, 0.179443359375, -0.70654296875
378, 911963399, -6.22861385345459, 1.6495709419250488, 7.195363998413086, -1.390526294708252, -1.297372817993164, -2.6896917819976807, 0.59814453125, 0.179443359375, -0.70556640625
379, 911980066, -6.208730220794678, 1.7415555715560913, 7.169806480407715, -1.0887320041656494, -0.7543581128120422, -2.7390353679656982, 0.59619140625, 0.179931640625, -0.707763671875
380, 911996733, -6.24113130569458, 1.6589246988296509, 7.158219337463379, -0.989328920841217, -0.19230014085769653, -2.757629632949829, 0.599609375, 0.18017578125, -0.70751953125
381, 912013400, -6.259313583374023, 1.656631588935852, 7.200939655303955, -0.8669771552085876, -0.037868376821279526, -2.472803831100464, 0.5986328125, 0.179931640625, -0.70751953125
382, 912030067, -6.268535614013672, 1.6594717502593994, 7.197120666503906, -0.696601390838623, -0.255550742149353, -2.1238818168640137, 0.6005859375, 0.181640625, -0.7060546875
383, 912046734, -6.259322643280029, 1.6946123838424683, 7.175195693969727, -0.633952796459198, -0.41644972562789917, -2.00187611579895, 0.5986328125, 0.181640625, -0.70556640625
384, 912063401, -6.2598676681518555, 1.6584997177124023, 7.169116020202637, -0.4713120758533478, -0.6280874013900757, -1.741445779800415, 0.59765625, 0.18408203125, -0.7060546875
385, 912080068, -6.257091522216797, 1.687038540840149, 7.210076332092285, -0.27002188563346863, -0.5570505857467651, -1.3546429872512817, 0.599609375, 0.181640625, -0.7060546875
386, 912096735, -6.243474006652832, 1.6834630966186523, 7.185754299163818, -0.15517453849315643, -0.4316636621952057, -1.3378026485443115, 0.59912109375, 0.18359375, -0.70703125
387, 912113402, -6.252407550811768, 1.7209839820861816, 7.190906047821045, -0.13367268443107605, -0.3429156243801117, -1.3848531246185303, 0.59912109375, 0.18115234375, -0.705078125
388, 912130069, -6.242127418518066, 1.693393588066101, 7.181331634521484, -0.22548140585422516, -0.3234372138977051, -1.5251338481903076, 0.6005859375, 0.1806640625, -0.70703125
389, 912146736, -6.2392473220825195, 1.6867765188217163, 7.192442417144775, -0.28573521971702576, -0.2962108552455902, -1.6751984357833862, 0.60009765625, 0.18310546875, -0.70654296875
390, 912163403, -6.262050628662109, 1.6809903383255005, 7.153878211975098, -0.3086971044540405, -0.3805919289588928, -1.5410138368606567, 0.59912109375, 0.18359375, -0.705078125
391, 912180070, -6.251936435699463, 1.68455171585083, 7.176708698272705, -0.23424093425273895, -0.27668121457099915, -1.5657939910888672, 0.6015625, 0.18310546875, -0.7060546875
392, 912196737, -6.256777763366699, 1.68021559715271, 7.168621063232422, -0.2116505354642868, -0.39102908968925476, -1.4066239595413208, 0.599609375, 0.18115234375, -0.7060546875
393, 912213404, -6.257806777954102, 1.6766432523727417, 7.176947593688965, -0.09990233927965164, -0.4447132647037506, -1.3003312349319458, 0.6005859375, 0.18359375, -0.70556640625
394, 912230071, -6.255703926086426, 1.6896926164627075, 7.164933204650879, 0.03321326896548271, -0.4885878264904022, -1.0951861143112183, 0.59912109375, 0.18310546875, -0.7060546875
395, 912246738, -6.261836051940918, 1.70387601852417, 7.153599739074707, 0.1680385172367096, -0.5720083117485046, -1.0139682292938232, 0.599609375, 0.18017578125, -0.70751953125
396, 912263405, -6.252228260040283, 1.687806248664856, 7.160618305206299, 0.35028567910194397, -0.642596960067749, -0.8994027376174927, 0.60009765625, 0.1806640625, -0.707763671875
397, 912280072, -6.242526531219482, 1.6888408660888672, 7.1793622970581055, 0.489849328994751, -0.6612303256988525, -0.6243095397949219, 0.60009765625, 0.18017578125, -0.70703125
398, 912296739, -6.2540364265441895, 1.7288450002670288, 7.156595230102539, 0.6842368841171265, -0.803406298160553, -0.44386807084083557, 0.60009765625, 0.1796875, -0.705078125
399, 912313406, -6.251534461975098, 1.7077502012252808, 7.18641471862793, 0.9239717721939087, -0.7799835205078125, -0.4038226306438446, 0.60107421875, 0.1796875, -0.70703125
400, 912330073, -6.2498321533203125, 1.6981121301651, 7.155306816101074, 1.2533382177352905, -0.8644030094146729, -0.1075093001127243, 0.60009765625, 0.1806640625, -0.7060546875
401, 912346740, -6.224009037017822, 1.694135308265686, 7.1688055992126465, 1.751082420349121, -0.6028844118118286, 0.26509779691696167, 0.60107421875, 0.178955078125, -0.7041015625
402, 912363407, -6.2105560302734375, 1.6747009754180908, 7.186738014221191, 2.7168734073638916, 0.3817508816719055, 0.8506937623023987, 0.5986328125, 0.178955078125, -0.70751953125
403, 912380074, -6.24213981628418, 1.666674256324768, 7.1722941398620605, 3.6838040351867676, 1.6221610307693481, 1.4330369234085083, 0.600830078125, 0.176025390625, -0.70458984375
404, 912396741, -6.280311107635498, 1.7355313301086426, 7.199431419372559, 4.083951473236084, 2.2787299156188965, 1.8166766166687012, 0.599853515625, 0.177490234375, -0.702392578125
405, 912413408, -6.280473709106445, 1.851345419883728, 7.144707202911377, 3.5858356952667236, 2.0694100856781006, 1.4832763671875, 0.600341796875, 0.175537109375, -0.703125
406, 912430075, -6.274563312530518, 1.8138140439987183, 7.122573375701904, 2.7905614376068115, 1.5531349182128906, 0.7947685122489929, 0.602294921875, 0.173583984375, -0.702392578125
407, 912446742, -6.291782855987549, 1.7878369092941284, 7.148203372955322, 2.249377965927124, 1.125710129737854, 0.3726455867290497, 0.600830078125, 0.173828125, -0.702880859375
408, 912463409, -6.29086446762085, 1.8431555032730103, 7.110090732574463, 1.763158917427063, 0.7122699618339539, 0.15863867104053497, 0.602294921875, 0.1728515625, -0.703369140625
409, 912480076, -6.289573669433594, 1.8459317684173584, 7.127955913543701, 1.0933228731155396, 0.29661428928375244, -0.3380108177661896, 0.602783203125, 0.17138671875, -0.702392578125
410, 912496743, -6.283397674560547, 1.808102011680603, 7.116085529327393, 0.43856629729270935, -0.26117268204689026, -0.7465205788612366, 0.602294921875, 0.1728515625, -0.700439453125
411, 912513410, -6.295961380004883, 1.8180005550384521, 7.110593318939209, 0.15578283369541168, -0.606867253780365, -0.90717613697052, 0.601318359375, 0.17236328125, -0.700927734375
412, 912530077, -6.267820358276367, 1.8206173181533813, 7.116983890533447, 0.09433797001838684, -0.8360240459442139, -1.0418349504470825, 0.602294921875, 0.17138671875, -0.700927734375
413, 912546744, -6.272818088531494, 1.816138505935669, 7.106552600860596, -0.006351949647068977, -0.8225518465042114, -1.064348578453064, 0.6025390625, 0.1708984375, -0.700439453125
414, 912563411, -6.278698921203613, 1.814118504524231, 7.122863292694092, -0.012012356892228127, -0.712801456451416, -1.1621507406234741, 0.603271484375, 0.1728515625, -0.701416015625
415, 912580078, -6.280473709106445, 1.8211690187454224, 7.122823715209961, 0.0014919397654011846, -0.7871038317680359, -1.1880834102630615, 0.600830078125, 0.1708984375, -0.699951171875
416, 912596745, -6.276947021484375, 1.8289858102798462, 7.126612663269043, -0.13459473848342896, -0.9513709545135498, -1.3210134506225586, 0.603515625, 0.1708984375, -0.700927734375
417, 912613412, -6.266207218170166, 1.8544026613235474, 7.118046283721924, -0.16926154494285583, -0.820233941078186, -1.4641244411468506, 0.602294921875, 0.17138671875, -0.700439453125
418, 912630079, -6.258947372436523, 1.8250887393951416, 7.123857021331787, -0.2840704321861267, -0.8079268336296082, -1.6468065977096558, 0.601318359375, 0.17041015625, -0.699462890625
419, 912646746, -6.270884037017822, 1.801767349243164, 7.132498741149902, -0.3055594861507416, -0.6199041604995728, -1.7338773012161255, 0.603271484375, 0.1728515625, -0.700927734375
420, 912663413, -6.280119895935059, 1.788960576057434, 7.114229202270508, -0.297030508518219, -0.5560133457183838, -1.6853413581848145, 0.60302734375, 0.17041015625, -0.700439453125
421, 912680080, -6.290200233459473, 1.7754342555999756, 7.126372814178467, -0.2576381266117096, -0.7547934055328369, -1.5416027307510376, 0.601318359375, 0.17236328125, -0.701904296875
422, 912696747, -6.283711910247803, 1.8199326992034912, 7.104891777038574, -0.28951317071914673, -0.9491170048713684, -1.3846867084503174, 0.601318359375, 0.17138671875, -0.700927734375
423, 912713414, -6.281254768371582, 1.8384044170379639, 7.133584976196289, -0.4055386483669281, -0.859203577041626, -1.592738389968872, 0.60205078125, 0.171875, -0.697265625
424, 912730081, -6.272156715393066, 1.8447792530059814, 7.125046730041504, -0.530298113822937, -0.6674413084983826, -1.7935419082641602, 0.602294921875, 0.1708984375, -0.700927734375
425, 912746748, -6.278819561004639, 1.8073352575302124, 7.132247447967529, -0.6569529175758362, -0.307659775018692, -1.92465341091156, 0.60302734375, 0.17041015625, -0.701416015625
426, 912763415, -6.2891926765441895, 1.7910577058792114, 7.116398334503174, -0.6420592069625854, -0.23340851068496704, -1.9249863624572754, 0.600341796875, 0.17333984375, -0.701904296875
427, 912780082, -6.287160873413086, 1.7889251708984375, 7.118110179901123, -0.8526084423065186, -0.3736124336719513, -1.8868235349655151, 0.601806640625, 0.174560546875, -0.699951171875
428, 912796749, -6.271634101867676, 1.7491337060928345, 7.108987331390381, -0.6596038341522217, -0.4744880199432373, -1.8085126876831055, 0.600341796875, 0.171875, -0.701904296875
429, 912813416, -6.279547214508057, 1.7708765268325806, 7.126576900482178, -0.4734891951084137, -0.5772463083267212, -1.5102273225784302, 0.603515625, 0.1728515625, -0.700439453125
430, 912830083, -6.287359237670898, 1.798100233078003, 7.129245758056641, -0.41496410965919495, -0.4680593013763428, -1.3149304389953613, 0.603515625, 0.171875, -0.700927734375
431, 912846750, -6.293605804443359, 1.8050812482833862, 7.115088939666748, -0.455316960811615, -0.6347723603248596, -1.4490385055541992, 0.602783203125, 0.17333984375, -0.700439453125
432, 912863417, -6.287274360656738, 1.7907822132110596, 7.128946781158447, -0.4822615683078766, -0.739464282989502, -1.442801833152771, 0.601806640625, 0.17138671875, -0.701416015625
433, 912880084, -6.294607162475586, 1.79388427734375, 7.119509696960449, -0.5120747089385986, -0.7302821278572083, -1.4018471240997314, 0.600830078125, 0.17236328125, -0.702392578125
434, 912896751, -6.287166595458984, 1.8083127737045288, 7.109674453735352, -0.6430067420005798, -0.855976402759552, -1.5882689952850342, 0.601318359375, 0.174560546875, -0.701416015625
435, 912913418, -6.283173084259033, 1.8199867010116577, 7.0863494873046875, -0.8306711316108704, -1.062056303024292, -1.739588975906372, 0.602294921875, 0.173583984375, -0.701904296875
436, 912930085, -6.279692649841309, 1.776912808418274, 7.107656955718994, -0.8610349893569946, -1.1468342542648315, -1.7365795373916626, 0.6044921875, 0.173583984375, -0.699462890625
437, 912946752, -6.277318477630615, 1.7727538347244263, 7.117659091949463, -0.6603978872299194, -1.0118169784545898, -1.6314904689788818, 0.602783203125, 0.174072265625, -0.700927734375
438, 912963419, -6.278909206390381, 1.7671468257904053, 7.114325523376465, -0.665686845779419, -0.8632247447967529, -1.5030428171157837, 0.603271484375, 0.174560546875, -0.700927734375
439, 912980086, -6.282403469085693, 1.7785776853561401, 7.1059393882751465, -0.5231650471687317, -0.940703272819519, -1.378360390663147, 0.601318359375, 0.175048828125, -0.699462890625
440, 912996753, -6.2802414894104, 1.780747652053833, 7.119222640991211, -0.36072930693626404, -1.0079493522644043, -1.3122539520263672, 0.602294921875, 0.174072265625, -0.700439453125
441, 913013420, -6.269497871398926, 1.7827489376068115, 7.117875099182129, -0.40160712599754333, -1.0863115787506104, -1.3884645700454712, 0.601806640625, 0.174560546875, -0.699951171875
442, 913030087, -6.264620304107666, 1.80573570728302, 7.1504082679748535, -0.3418014347553253, -1.2046293020248413, -1.4517019987106323, 0.601318359375, 0.1728515625, -0.700439453125
443, 913046754, -6.267331600189209, 1.7981828451156616, 7.135830879211426, -0.39405137300491333, -1.0830200910568237, -1.425000786781311, 0.601318359375, 0.176025390625, -0.70361328125
444, 913063421, -6.275078296661377, 1.7888593673706055, 7.11876106262207, -0.4938896596431732, -1.0948275327682495, -1.4549293518066406, 0.601318359375, 0.17333984375, -0.700927734375
445, 913080088, -6.278419494628906, 1.7686374187469482, 7.134777545928955, -0.28474920988082886, -1.0088201761245728, -1.503657579421997, 0.602783203125, 0.17138671875, -0.701416015625
446, 913096755, -6.287820339202881, 1.7653074264526367, 7.119995594024658, -0.2822263538837433, -1.0693687200546265, -1.337251901626587, 0.601806640625, 0.174072265625, -0.701904296875
447, 913113422, -6.291666030883789, 1.7772014141082764, 7.13655948638916, -0.11967533081769943, -1.0887959003448486, -1.2067935466766357, 0.600341796875, 0.173828125, -0.701416015625
448, 913130089, -6.272182464599609, 1.747658371925354, 7.136642932891846, -0.05564359575510025, -1.0717506408691406, -1.0691254138946533, 0.600830078125, 0.17138671875, -0.702880859375
449, 913146756, -6.2862629890441895, 1.786055088043213, 7.132485389709473, 0.12987560033798218, -1.1451566219329834, -0.8718947768211365, 0.601806640625, 0.173583984375, -0.701904296875
450, 913163423, -6.282680034637451, 1.777540922164917, 7.155403137207031, 0.1662072092294693, -0.9636521935462952, -0.8808078765869141, 0.602294921875, 0.1728515625, -0.700927734375
451, 913180090, -6.284473419189453, 1.7864584922790527, 7.127564907073975, 0.24552972614765167, -0.9572233557701111, -0.8971999883651733, 0.602294921875, 0.174072265625, -0.703369140625
452, 913196757, -6.268843650817871, 1.8097238540649414, 7.135199546813965, 0.15381066501140594, -1.0007009506225586, -1.1073522567749023, 0.601318359375, 0.174072265625, -0.703369140625
453, 913213424, -6.283696174621582, 1.7881112098693848, 7.130982398986816, 0.13028541207313538, -0.8960475325584412, -1.1431076526641846, 0.601806640625, 0.175048828125, -0.699951171875
454, 913230091, -6.265592098236084, 1.783098578453064, 7.1295342445373535, 0.15292702615261078, -0.8102449774742126, -1.1221307516098022, 0.6044921875, 0.173583984375, -0.700439453125
455, 913246758, -6.2720160484313965, 1.7967445850372314, 7.14094352722168, 0.16432468593120575, -0.7790102958679199, -1.013059139251709, 0.603271484375, 0.1728515625, -0.702392578125
456, 913263425, -6.281883239746094, 1.7836620807647705, 7.135528087615967, 0.1308104693889618, -0.8750835061073303, -1.0445884466171265, 0.600830078125, 0.171875, -0.701904296875
457, 913280092, -6.279063701629639, 1.7873115539550781, 7.138032913208008, 0.19171744585037231, -0.9727062582969666, -0.9635241031646729, 0.600341796875, 0.17236328125, -0.702880859375
458, 913296759, -6.272953987121582, 1.7952460050582886, 7.136375427246094, 0.08007170259952545, -0.8551055192947388, -0.9009522199630737, 0.600830078125, 0.17138671875, -0.702880859375
459, 913313426, -6.277784824371338, 1.783955693244934, 7.11442232131958, 0.12019400298595428, -1.044972538948059, -0.8911170959472656, 0.601806640625, 0.174560546875, -0.7041015625
460, 913330093, -6.261211395263672, 1.8331406116485596, 7.115723609924316, 0.07188844680786133, -1.0398627519607544, -0.9474522471427917, 0.601806640625, 0.17138671875, -0.699951171875
461, 913346760, -6.248608589172363, 1.8301751613616943, 7.127406597137451, -0.19802461564540863, -1.0092427730560303, -1.1920279264450073, 0.602783203125, 0.173583984375, -0.703857421875
462, 913363427, -6.264233112335205, 1.8150111436843872, 7.139395236968994, -0.3032799959182739, -0.8908994197845459, -1.3090267181396484, 0.601806640625, 0.17138671875, -0.703857421875
463, 913380094, -6.264811992645264, 1.7935749292373657, 7.132643222808838, -0.4303702116012573, -0.7782419919967651, -1.5119818449020386, 0.598876953125, 0.17333984375, -0.701904296875
464, 913396761, -6.271085739135742, 1.8083282709121704, 7.132467746734619, -0.640112578868866, -0.8431316614151001, -1.6104367971420288, 0.601806640625, 0.175048828125, -0.702392578125
465, 913413428, -6.274172782897949, 1.800233244895935, 7.112077713012695, -0.9724118113517761, -1.0063358545303345, -1.9977775812149048, 0.60302734375, 0.171875, -0.700439453125
466, 913430095, -6.283954620361328, 1.8028924465179443, 7.14455509185791, -1.1341431140899658, -1.187788963317871, -2.044738531112671, 0.600830078125, 0.1728515625, -0.70458984375
467, 913446762, -6.268491744995117, 1.8009247779846191, 7.149412155151367, -1.4710015058517456, -1.318913221359253, -2.292234420776367, 0.600830078125, 0.1728515625, -0.702880859375
468, 913463429, -6.260015964508057, 1.7833285331726074, 7.157097816467285, -1.5602490901947021, -1.3667449951171875, -2.3345720767974854, 0.600830078125, 0.175537109375, -0.701904296875
469, 913480096, -6.258047580718994, 1.7729040384292603, 7.152353286743164, -1.5183978080749512, -1.378321886062622, -2.2220299243927, 0.601318359375, 0.176025390625, -0.7041015625
470, 913496763, -6.26334285736084, 1.7824115753173828, 7.145674705505371, -1.3451532125473022, -1.2080998420715332, -2.1889123916625977, 0.603759765625, 0.175537109375, -0.703369140625
471, 913513430, -6.267557621002197, 1.7651491165161133, 7.15628719329834, -0.9746785759925842, -0.994080126285553, -2.0392062664031982, 0.601318359375, 0.175537109375, -0.701416015625
472, 913530097, -6.26470422744751, 1.7511205673217773, 7.159408092498779, -0.6949493288993835, -0.6730120778083801, -1.8431283235549927, 0.601806640625, 0.173583984375, -0.703369140625
473, 913546764, -6.258157253265381, 1.762428641319275, 7.129054069519043, -0.6091468334197998, -0.5233186483383179, -1.8627731800079346, 0.601318359375, 0.175048828125, -0.703369140625
474, 913563431, -6.283054351806641, 1.7304588556289673, 7.133449077606201, -0.5204499959945679, -0.3906448781490326, -1.755366325378418, 0.602294921875, 0.175537109375, -0.701904296875
475, 913580098, -6.268156051635742, 1.7418780326843262, 7.135883331298828, -0.41060999035835266, -0.43678614497184753, -1.6418635845184326, 0.601318359375, 0.175537109375, -0.70361328125
476, 913596765, -6.274007797241211, 1.7568566799163818, 7.141171932220459, -0.45832645893096924, -0.5697160363197327, -1.66853928565979, 0.600830078125, 0.175537109375, -0.702392578125
477, 913613432, -6.276062965393066, 1.7463419437408447, 7.123484134674072, -0.4331619441509247, -0.6568760275840759, -1.5433698892593384, 0.599609375, 0.177001953125, -0.702880859375
478, 913630099, -6.256344318389893, 1.7637790441513062, 7.143610954284668, -0.3262929618358612, -0.8213992714881897, -1.4275493621826172, 0.602294921875, 0.176025390625, -0.700927734375
479, 913646766, -6.28378963470459, 1.7486056089401245, 7.127023696899414, -0.22363729774951935, -0.7750146985054016, -1.3193228244781494, 0.600341796875, 0.175537109375, -0.7041015625
480, 913663433, -6.277499198913574, 1.7646691799163818, 7.133492946624756, -0.1975891888141632, -0.7361474633216858, -1.3172099590301514, 0.601318359375, 0.177001953125, -0.70361328125
481, 913680100, -6.277011394500732, 1.747851848602295, 7.144717216491699, -0.2550128400325775, -0.7371335029602051, -1.3786804676055908, 0.601318359375, 0.177490234375, -0.700927734375
482, 913696767, -6.273268222808838, 1.757156491279602, 7.1668291091918945, -0.30288296937942505, -0.792892336845398, -1.2970014810562134, 0.602783203125, 0.176025390625, -0.702880859375
483, 913713434, -6.268744945526123, 1.7619215250015259, 7.117473602294922, -0.2412460446357727, -1.0014054775238037, -1.3370471000671387, 0.600830078125, 0.174560546875, -0.702880859375
484, 913730101, -6.255830764770508, 1.744455099105835, 7.1434831619262695, -0.27105921506881714, -1.0640795230865479, -1.2185369729995728, 0.601806640625, 0.175048828125, -0.702392578125
485, 913746768, -6.265105724334717, 1.7393893003463745, 7.147373199462891, -0.13629795610904694, -1.0372629165649414, -1.2615917921066284, 0.602783203125, 0.177978515625, -0.702392578125
486, 913763435, -6.275177955627441, 1.7479740381240845, 7.161725997924805, -0.12757684290409088, -0.9839630126953125, -1.0983494520187378, 0.600830078125, 0.177001953125, -0.702880859375
487, 913780102, -6.269700527191162, 1.7597583532333374, 7.143997669219971, -0.04746032878756523, -0.9936830401420593, -1.114446997642517, 0.59814453125, 0.176513671875, -0.70458984375
488, 913796769, -6.270345211029053, 1.7737646102905273, 7.131870269775391, -0.015572520904242992, -0.849880576133728, -1.0816627740859985, 0.600341796875, 0.176025390625, -0.702880859375
489, 913813436, -6.25819206237793, 1.7462201118469238, 7.157427787780762, 0.028564564883708954, -0.9357728362083435, -1.0813298225402832, 0.599853515625, 0.177490234375, -0.702392578125
490, 913830103, -6.266158580780029, 1.7683771848678589, 7.1500349044799805, 0.07424481213092804, -0.9451853632926941, -1.1255756616592407, 0.601806640625, 0.174072265625, -0.702880859375
491, 913846770, -6.254556179046631, 1.7793231010437012, 7.1280107498168945, 0.0696217268705368, -0.9670587778091431, -1.144003987312317, 0.602783203125, 0.174072265625, -0.702392578125
492, 913863437, -6.2630934715271, 1.785038709640503, 7.156320095062256, -0.019414428621530533, -0.7573931813240051, -1.306567907333374, 0.601318359375, 0.176513671875, -0.70361328125
493, 913880104, -6.277501106262207, 1.7460410594940186, 7.153665065765381, -0.028340449556708336, -0.7702891826629639, -1.2123514413833618, 0.600830078125, 0.17333984375, -0.702880859375
494, 913896771, -6.259803295135498, 1.762551188468933, 7.155072212219238, -0.0232563316822052, -0.7628102898597717, -1.1788884401321411, 0.600341796875, 0.175048828125, -0.701904296875
495, 913913438, -6.262414932250977, 1.763485074043274, 7.143655300140381, 0.0512574166059494, -0.5846098065376282, -1.1679006814956665, 0.600830078125, 0.174560546875, -0.703369140625
496, 913930105, -6.277905464172363, 1.762105107307434, 7.135679721832275, 0.03902735188603401, -0.5406457185745239, -1.281044840812683, 0.600830078125, 0.175048828125, -0.703369140625
497, 913946772, -6.2777557373046875, 1.7602413892745972, 7.14036750793457, 0.058774739503860474, -0.6500375270843506, -1.2726950645446777, 0.600830078125, 0.173828125, -0.702880859375
498, 913963439, -6.282289028167725, 1.7543920278549194, 7.146186828613281, -0.1347227841615677, -0.5917301774024963, -1.29668128490448, 0.603271484375, 0.175537109375, -0.70361328125
499, 913980106, -6.263164520263672, 1.7562878131866455, 7.146928787231445, -0.07288093864917755, -0.5666553974151611, -1.3262128829956055, 0.601806640625, 0.176513671875, -0.702880859375
500, 913996773, -6.272931098937988, 1.756760597229004, 7.157050609588623, -0.005032895598560572, -0.5598936080932617, -1.198533535003662, 0.599853515625, 0.176513671875, -0.703125
501, 914013440, -6.278255462646484, 1.7724987268447876, 7.148473739624023, 0.09298050403594971, -0.5383021831512451, -1.17961847782135, 0.602294921875, 0.177490234375, -0.702880859375
502, 914030107, -6.27599573135376, 1.7674875259399414, 7.154292106628418, 0.025644715875387192, -0.5834445357322693, -1.1707180738449097, 0.603271484375, 0.174560546875, -0.701904296875
503, 914046774, -6.2627105712890625, 1.7732539176940918, 7.13463830947876, -0.021476250141859055, -0.6730762124061584, -1.149139404296875, 0.603271484375, 0.176513671875, -0.701416015625
504, 914063441, -6.2857208251953125, 1.7764456272125244, 7.142755508422852, 0.02478668838739395, -0.8039954304695129, -1.229358434677124, 0.602783203125, 0.176025390625, -0.701904296875
505, 914080108, -6.270482063293457, 1.7614418268203735, 7.126965522766113, -0.03898252919316292, -0.7217146158218384, -1.26962149143219, 0.600830078125, 0.177001953125, -0.702392578125
506, 914096775, -6.264003753662109, 1.7644047737121582, 7.141839027404785, -0.14510875940322876, -0.6578109860420227, -1.3110756874084473, 0.601806640625, 0.174072265625, -0.701904296875
507, 914113442, -6.2674760818481445, 1.7655352354049683, 7.126311302185059, -0.1867550015449524, -0.6537513732910156, -1.3255212306976318, 0.600830078125, 0.175048828125, -0.701904296875
508, 914130109, -6.264613151550293, 1.7673219442367554, 7.137518405914307, -0.19556576013565063, -0.7145814895629883, -1.4269987344741821, 0.600830078125, 0.174560546875, -0.70361328125
509, 914146776, -6.276934623718262, 1.7588380575180054, 7.140954494476318, -0.27902477979660034, -0.8482542634010315, -1.4340295791625977, 0.602294921875, 0.174560546875, -0.70458984375
510, 914163443, -6.2777485847473145, 1.7677563428878784, 7.125673294067383, -0.2923945486545563, -0.8283146619796753, -1.3583438396453857, 0.600830078125, 0.174560546875, -0.701416015625
511, 914180110, -6.281317710876465, 1.762834906578064, 7.152230739593506, -0.44974619150161743, -0.8418893814086914, -1.3164926767349243, 0.603271484375, 0.174072265625, -0.702392578125
512, 914196777, -6.279824256896973, 1.7504841089248657, 7.156125545501709, -0.45070669054985046, -0.9430596828460693, -1.3925752639770508, 0.599365234375, 0.174560546875, -0.702880859375
513, 914213444, -6.275110721588135, 1.7668715715408325, 7.1610636711120605, -0.4696088135242462, -0.9475930333137512, -1.5147734880447388, 0.600341796875, 0.173828125, -0.702392578125
514, 914230111, -6.263810157775879, 1.7617300748825073, 7.152109622955322, -0.6586818099021912, -1.020755648612976, -1.599218487739563, 0.599853515625, 0.173828125, -0.703369140625
515, 914246778, -6.2822771072387695, 1.762558937072754, 7.14085578918457, -0.8376633524894714, -1.052156925201416, -1.627341389656067, 0.603271484375, 0.176025390625, -0.702880859375
516, 914263445, -6.260199546813965, 1.777570366859436, 7.142268180847168, -0.97394859790802, -1.212325930595398, -1.7342230081558228, 0.602294921875, 0.176513671875, -0.703369140625
517, 914280112, -6.26319694519043, 1.7684500217437744, 7.132659435272217, -1.074913740158081, -1.2967324256896973, -1.980553150177002, 0.5986328125, 0.177001953125, -0.703125
518, 914296779, -6.2658514976501465, 1.746908187866211, 7.170049667358398, -1.1592050790786743, -1.4341317415237427, -2.018357515335083, 0.601318359375, 0.175537109375, -0.702392578125
519, 914313446, -6.267965793609619, 1.7319525480270386, 7.150659084320068, -0.9614366292953491, -1.4692468643188477, -1.9406611919403076, 0.6005859375, 0.178466796875, -0.70361328125
520, 914330113, -6.265890121459961, 1.7337706089019775, 7.140070915222168, -0.9246441125869751, -1.3079124689102173, -1.8153513669967651, 0.600341796875, 0.177001953125, -0.702880859375
521, 914346780, -6.258811950683594, 1.7628353834152222, 7.146223068237305, -0.8285196423530579, -1.3087321519851685, -1.7520880699157715, 0.602783203125, 0.176025390625, -0.700439453125
522, 914363447, -6.280035018920898, 1.7357224225997925, 7.156152725219727, -0.8129599690437317, -1.2651394605636597, -1.7371302843093872, 0.600830078125, 0.177978515625, -0.702392578125
523, 914380114, -6.270901203155518, 1.7384361028671265, 7.171935081481934, -0.7181545495986938, -1.2984230518341064, -1.722710371017456, 0.60009765625, 0.177001953125, -0.705078125
524, 914396781, -6.266903877258301, 1.746578574180603, 7.167298316955566, -0.7214585542678833, -1.1954855918884277, -1.633437156677246, 0.599609375, 0.178466796875, -0.7060546875
525, 914413448, -6.261397838592529, 1.7293018102645874, 7.181805610656738, -0.6401382088661194, -1.176224708557129, -1.5868220329284668, 0.600830078125, 0.177490234375, -0.702880859375
526, 914430115, -6.248776435852051, 1.7449896335601807, 7.167494297027588, -0.6021929979324341, -1.2478379011154175, -1.5504775047302246, 0.599853515625, 0.176513671875, -0.702392578125
527, 914446782, -6.256123065948486, 1.7433315515518188, 7.160241603851318, -0.7552929520606995, -1.2613871097564697, -1.6728936433792114, 0.602783203125, 0.17919921875, -0.705078125
528, 914463449, -6.248400688171387, 1.7337180376052856, 7.166416645050049, -0.8876081705093384, -1.2769595384597778, -1.7032830715179443, 0.6005859375, 0.178955078125, -0.705078125
529, 914480116, -6.2488203048706055, 1.7295165061950684, 7.1534929275512695, -0.8904255628585815, -1.3713167905807495, -1.8074626922607422, 0.6015625, 0.178955078125, -0.70654296875
530, 914496783, -6.249231338500977, 1.7359706163406372, 7.193788528442383, -0.8769404888153076, -1.2035408020019531, -1.7133872509002686, 0.599609375, 0.177978515625, -0.70263671875
531, 914513450, -6.257333755493164, 1.725439190864563, 7.155932426452637, -0.8001664280891418, -1.2444953918457031, -1.722402811050415, 0.59912109375, 0.177001953125, -0.70361328125
532, 914530117, -6.272397994995117, 1.7105934619903564, 7.145650386810303, -0.7206133008003235, -1.211186170578003, -1.685136318206787, 0.601806640625, 0.178466796875, -0.70556640625
533, 914546784, -6.2487030029296875, 1.712449312210083, 7.143100261688232, -0.5844433307647705, -1.1082613468170166, -1.5596338510513306, 0.60009765625, 0.178466796875, -0.703125
534, 914563451, -6.25317907333374, 1.7325345277786255, 7.155453205108643, -0.5140212178230286, -0.984103798866272, -1.4760853052139282, 0.60009765625, 0.177490234375, -0.7060546875
535, 914580118, -6.247765064239502, 1.726407766342163, 7.156879425048828, -0.4082791805267334, -1.0162733793258667, -1.4701303243637085, 0.59912109375, 0.177490234375, -0.7041015625
536, 914596785, -6.25744104385376, 1.7178268432617188, 7.168231010437012, -0.34728261828422546, -0.9535737037658691, -1.4608845710754395, 0.60009765625, 0.18115234375, -0.7041015625
537, 914613452, -6.249817848205566, 1.7095118761062622, 7.1567864418029785, -0.4404616057872772, -0.9435974955558777, -1.3531830310821533, 0.59716796875, 0.177490234375, -0.703125
538, 914630119, -6.242954730987549, 1.713911533355713, 7.159998416900635, -0.36533957719802856, -1.0267620086669922, -1.3383021354675293, 0.60205078125, 0.178955078125, -0.70703125
539, 914646786, -6.242006301879883, 1.7190223932266235, 7.192268371582031, -0.3092093765735626, -1.0038257837295532, -1.2798410654067993, 0.59912109375, 0.178466796875, -0.70458984375
540, 914663453, -6.246361255645752, 1.7133262157440186, 7.171613693237305, -0.2904864251613617, -0.9556353688240051, -1.2565847635269165, 0.60009765625, 0.178466796875, -0.705078125
541, 914680120, -6.261899948120117, 1.7244675159454346, 7.145005226135254, -0.23210225999355316, -0.9608476758003235, -1.2692885398864746, 0.5986328125, 0.179931640625, -0.70556640625
542, 914696787, -6.247087478637695, 1.7229276895523071, 7.156224727630615, -0.15918293595314026, -0.9636523127555847, -1.2225453853607178, 0.60009765625, 0.178955078125, -0.70703125
543, 914713454, -6.268613815307617, 1.718056321144104, 7.175997257232666, -0.12661637365818024, -0.9395763278007507, -1.1926554441452026, 0.5986328125, 0.178466796875, -0.70458984375
544, 914730121, -6.247828483581543, 1.7134510278701782, 7.160246849060059, -0.08429139852523804, -1.026902675628662, -1.1060330867767334, 0.60107421875, 0.177978515625, -0.70654296875
545, 914746788, -6.248159885406494, 1.7265170812606812, 7.168548583984375, -0.037753116339445114, -1.0342152118682861, -1.088975191116333, 0.59912109375, 0.178955078125, -0.70556640625
546, 914763455, -6.247684955596924, 1.7239980697631836, 7.16363525390625, 0.06489617377519608, -1.0525537729263306, -1.0219850540161133, 0.5986328125, 0.179931640625, -0.7060546875
547, 914780122, -6.246208667755127, 1.7210087776184082, 7.178164005279541, 0.04471337050199509, -0.9727575778961182, -0.9318925738334656, 0.5986328125, 0.178466796875, -0.7060546875
548, 914796789, -6.257704257965088, 1.7203848361968994, 7.1743879318237305, 0.13229599595069885, -1.0149799585342407, -0.9069328308105469, 0.59765625, 0.178955078125, -0.7060546875
549, 914813456, -6.2503228187561035, 1.7244967222213745, 7.164761066436768, 0.13250090181827545, -1.0185272693634033, -0.8576667904853821, 0.5986328125, 0.177978515625, -0.703125
550, 914830123, -6.258983135223389, 1.7270169258117676, 7.168572425842285, 0.13535669445991516, -1.0496596097946167, -0.8980708718299866, 0.599609375, 0.178466796875, -0.7060546875
551, 914846790, -6.261037826538086, 1.7236071825027466, 7.154232978820801, 0.002759768394753337, -1.0099726915359497, -0.9705547094345093, 0.6005859375, 0.178466796875, -0.70458984375
552, 914863457, -6.245943069458008, 1.7315150499343872, 7.176487922668457, -0.04802381247282028, -1.051414132118225, -0.8679376244544983, 0.5986328125, 0.177001953125, -0.70556640625
553, 914880124, -6.255588531494141, 1.7313109636306763, 7.137781620025635, 0.08086570352315903, -0.9626149535179138, -0.8616369366645813, 0.59765625, 0.177978515625, -0.70556640625
554, 914896791, -6.2453131675720215, 1.7261563539505005, 7.177082538604736, 0.07862459123134613, -0.9377577900886536, -0.9078165888786316, 0.60009765625, 0.177978515625, -0.70703125
555, 914913458, -6.235712051391602, 1.7311697006225586, 7.175574779510498, 0.1193872019648552, -0.8846369981765747, -0.8069793581962585, 0.6005859375, 0.177490234375, -0.70654296875
556, 914930125, -6.235565185546875, 1.7308019399642944, 7.170881271362305, 0.13032381236553192, -0.8209253549575806, -0.806185245513916, 0.59814453125, 0.176025390625, -0.70654296875
557, 914946792, -6.239555835723877, 1.7492905855178833, 7.160383701324463, 0.23314599692821503, -0.7211382985115051, -0.7707245349884033, 0.59814453125, 0.177001953125, -0.70751953125
558, 914963459, -6.228702545166016, 1.7611879110336304, 7.1651763916015625, 0.14955896139144897, -0.855681836605072, -0.94390469789505, 0.59814453125, 0.177490234375, -0.70654296875
559, 914980126, -6.240725517272949, 1.757157325744629, 7.167562961578369, -0.15033374726772308, -0.8797833919525146, -1.1562854051589966, 0.59912109375, 0.176025390625, -0.7060546875
560, 914996793, -6.236118793487549, 1.7528306245803833, 7.182243347167969, -0.1272823065519333, -0.923734724521637, -1.2437398433685303, 0.599609375, 0.177978515625, -0.708740234375
561, 915013460, -6.243370056152344, 1.728985071182251, 7.161396503448486, -0.2626197934150696, -0.9101345539093018, -1.3694853782653809, 0.60009765625, 0.178466796875, -0.70458984375
562, 915030127, -6.2408223152160645, 1.7585663795471191, 7.159689903259277, -0.20599013566970825, -0.876530647277832, -1.2997419834136963, 0.602783203125, 0.177490234375, -0.70556640625
563, 915046794, -6.2281060218811035, 1.7277226448059082, 7.172369480133057, -0.31623998284339905, -0.9654577970504761, -1.2819539308547974, 0.60009765625, 0.176513671875, -0.70703125
564, 915063461, -6.232140064239502, 1.7524614334106445, 7.178905010223389, -0.38539427518844604, -1.0334341526031494, -1.4933996200561523, 0.60009765625, 0.177001953125, -0.709228515625
565, 915080128, -6.225830078125, 1.7586897611618042, 7.171667098999023, -0.5093981027603149, -1.0675756931304932, -1.596362590789795, 0.59912109375, 0.178466796875, -0.70458984375
566, 915096795, -6.2132568359375, 1.7599174976348877, 7.176485061645508, -0.4683026373386383, -1.0385054349899292, -1.7819525003433228, 0.599609375, 0.179443359375, -0.7080078125
567, 915113462, -6.238542079925537, 1.7190980911254883, 7.175715923309326, -0.6855879426002502, -1.051619052886963, -1.8078341484069824, 0.59912109375, 0.177978515625, -0.70654296875
568, 915130129, -6.2440643310546875, 1.723142385482788, 7.200947284698486, -0.4630007743835449, -1.042808175086975, -1.7060105800628662, 0.6005859375, 0.177490234375, -0.705078125
569, 915146796, -6.232451438903809, 1.7247267961502075, 7.181600570678711, -0.3750723600387573, -1.0122650861740112, -1.6121783256530762, 0.60107421875, 0.177490234375, -0.7080078125
570, 915163463, -6.240917205810547, 1.736501932144165, 7.170578479766846, -0.4412427544593811, -0.9345433115959167, -1.591317057609558, 0.599609375, 0.177978515625, -0.70458984375
571, 915180130, -6.229743957519531, 1.7550220489501953, 7.189538478851318, -0.5238437652587891, -1.017080307006836, -1.688043236732483, 0.59912109375, 0.179443359375, -0.70654296875
572, 915196797, -6.242764472961426, 1.7229275703430176, 7.1616997718811035, -0.534882664680481, -0.8837276101112366, -1.7396398782730103, 0.59765625, 0.177978515625, -0.70703125
573, 915213464, -6.221273422241211, 1.7132335901260376, 7.2003350257873535, -0.4979107677936554, -0.9464275240898132, -1.6750189065933228, 0.599609375, 0.178466796875, -0.70654296875
574, 915230131, -6.222138404846191, 1.7284716367721558, 7.181392192840576, -0.30398431420326233, -0.7565991282463074, -1.5839147567749023, 0.59814453125, 0.178955078125, -0.70556640625
575, 915246798, -6.230222702026367, 1.7362830638885498, 7.162698745727539, -0.26853635907173157, -0.7819557785987854, -1.518449068069458, 0.599609375, 0.178466796875, -0.70654296875
576, 915263465, -6.225590229034424, 1.7360646724700928, 7.183156967163086, -0.2520417869091034, -0.7640908360481262, -1.5803548097610474, 0.59765625, 0.178466796875, -0.70703125
577, 915280132, -6.232969760894775, 1.7351595163345337, 7.186767101287842, -0.36200985312461853, -0.676341712474823, -1.6087079048156738, 0.59814453125, 0.178955078125, -0.708251953125
578, 915296799, -6.2490949630737305, 1.7012397050857544, 7.174051761627197, -0.25716426968574524, -0.7764745354652405, -1.6302610635757446, 0.59912109375, 0.178955078125, -0.70556640625
579, 915313466, -6.253470420837402, 1.7046420574188232, 7.176780700683594, -0.2694584131240845, -0.8299155235290527, -1.5026203393936157, 0.5986328125, 0.178955078125, -0.70751953125
580, 915330133, -6.2507004737854, 1.7161180973052979, 7.16732931137085, -0.10446139425039291, -0.7600184679031372, -1.4382811784744263, 0.6005859375, 0.179443359375, -0.708251953125
581, 915346800, -6.234156608581543, 1.72139310836792, 7.165164947509766, -0.19281241297721863, -0.7868862152099609, -1.3645423650741577, 0.5986328125, 0.177490234375, -0.70703125
582, 915363467, -6.220456123352051, 1.7366528511047363, 7.16171932220459, -0.16690516471862793, -0.689173698425293, -1.3163903951644897, 0.59765625, 0.178955078125, -0.709228515625
583, 915380134, -6.23881721496582, 1.7135553359985352, 7.187859058380127, -0.17754723131656647, -0.6587586402893066, -1.3893224000930786, 0.595947265625, 0.181640625, -0.7060546875
584, 915396801, -6.222775936126709, 1.7321540117263794, 7.173306465148926, -0.13194382190704346, -0.7464821338653564, -1.3933820724487305, 0.59912109375, 0.1806640625, -0.707763671875
585, 915413468, -6.241831302642822, 1.7339295148849487, 7.171879768371582, -0.0952664390206337, -0.6792231798171997, -1.4555312395095825, 0.59814453125, 0.18017578125, -0.707763671875
586, 915430135, -6.239826202392578, 1.7409253120422363, 7.166504383087158, -0.2194880247116089, -0.7802652716636658, -1.5441257953643799, 0.599609375, 0.179443359375, -0.705078125
587, 915446802, -6.231986999511719, 1.7232940196990967, 7.158491134643555, -0.30083391070365906, -0.9953093528747559, -1.6336673498153687, 0.5986328125, 0.178955078125, -0.709228515625
588, 915463469, -6.2531938552856445, 1.701436161994934, 7.15362548828125, -0.24461407959461212, -0.833488404750824, -1.4731014966964722, 0.60009765625, 0.179443359375, -0.70703125
589, 915480136, -6.239774227142334, 1.7130628824234009, 7.1842732429504395, -0.2199106514453888, -0.869384765625, -1.4420078992843628, 0.59765625, 0.178955078125, -0.70751953125
590, 915496803, -6.243325233459473, 1.7313469648361206, 7.141131401062012, -0.2161455750465393, -0.8504824638366699, -1.4899547100067139, 0.59765625, 0.178466796875, -0.70458984375
591, 915513470, -6.2372260093688965, 1.7298895120620728, 7.16445779800415, -0.257958322763443, -0.905114471912384, -1.4591171741485596, 0.59716796875, 0.18017578125, -0.70654296875
592, 915530137, -6.22519063949585, 1.7421419620513916, 7.1826324462890625, -0.21854035556316376, -0.8840094804763794, -1.5110337734222412, 0.59716796875, 0.179931640625, -0.70751953125
593, 915546804, -6.228847026824951, 1.7249780893325806, 7.192506313323975, -0.18679341673851013, -0.9197263717651367, -1.599961280822754, 0.6005859375, 0.18017578125, -0.7080078125
594, 915563471, -6.245601654052734, 1.7250797748565674, 7.171016693115234, -0.1010805144906044, -0.6915813088417053, -1.5110852718353271, 0.59814453125, 0.18115234375, -0.7060546875
595, 915580138, -6.253973484039307, 1.696528673171997, 7.18950891494751, -0.0047383494675159454, -0.7654995918273926, -1.367282748222351, 0.5986328125, 0.179443359375, -0.70654296875
596, 915596805, -6.266590595245361, 1.6927568912506104, 7.194879055023193, 0.0024011905770748854, -0.7002768516540527, -1.1698856353759766, 0.5966796875, 0.179931640625, -0.70703125
597, 915613472, -6.250649929046631, 1.6851511001586914, 7.178916931152344, 0.00315676536411047, -0.6905055642127991, -1.1183401346206665, 0.59814453125, 0.179931640625, -0.70654296875
598, 915630139, -6.232325553894043, 1.714381217956543, 7.183691501617432, 0.24819344282150269, -0.7345209717750549, -0.9515629410743713, 0.5986328125, 0.179931640625, -0.70703125
599, 915646806, -6.245911121368408, 1.7179005146026611, 7.176175117492676, 0.17551743984222412, -0.6866636872291565, -0.9213529229164124, 0.59814453125, 0.177490234375, -0.708740234375
600, 915663473, -6.2350029945373535, 1.7283602952957153, 7.1661834716796875, 0.24131642282009125, -0.5304774045944214, -0.8523777723312378, 0.5986328125, 0.178466796875, -0.70751953125
601, 915680140, -6.237121105194092, 1.7254047393798828, 7.154792785644531, 0.24978142976760864, -0.578514039516449, -0.9315595030784607, 0.5966796875, 0.178466796875, -0.708251953125
602, 915696807, -6.23654317855835, 1.7193807363510132, 7.20170259475708, 0.20533062517642975, -0.5510316491127014, -0.9656628370285034, 0.5966796875, 0.178466796875, -0.70751953125
603, 915713474, -6.244804382324219, 1.7518724203109741, 7.197529315948486, 0.07784339040517807, -0.3423265218734741, -0.9161150455474854, 0.59814453125, 0.18017578125, -0.707763671875
604, 915730141, -6.235745429992676, 1.762117862701416, 7.153547763824463, 0.28479400277137756, -0.34359437227249146, -1.18366539478302, 0.5986328125, 0.178955078125, -0.70703125
605, 915746808, -6.25268030166626, 1.7292276620864868, 7.191944122314453, 0.6961852312088013, -0.3071090877056122, -1.3912690877914429, 0.599609375, 0.177978515625, -0.70556640625
606, 915763475, -6.232293605804443, 1.6848446130752563, 7.167694091796875, 1.2882100343704224, -0.05915252864360809, -1.1642893552780151, 0.599609375, 0.178955078125, -0.70556640625
607, 915780142, -6.241942882537842, 1.7479820251464844, 7.166956901550293, 1.5127179622650146, 0.4235379695892334, -1.1878912448883057, 0.59912109375, 0.177490234375, -0.7060546875
608, 915796809, -6.243585109710693, 1.7289377450942993, 7.194472312927246, 2.2161965370178223, 1.3042306900024414, -1.3129838705062866, 0.59814453125, 0.178466796875, -0.70458984375
609, 915813476, -6.279597282409668, 1.696716070175171, 7.246585369110107, 4.331305980682373, 3.546238422393799, -1.3054537773132324, 0.59912109375, 0.175537109375, -0.70556640625
610, 915830143, -6.281904697418213, 1.7358067035675049, 7.116118431091309, 4.558157444000244, 3.8977086544036865, -0.9557379484176636, 0.602294921875, 0.175048828125, -0.705078125
611, 915846810, -6.236720561981201, 1.849302887916565, 7.064014434814453, 2.40537166595459, 1.7452173233032227, -1.302828311920166, 0.602294921875, 0.175048828125, -0.701904296875
612, 915863477, -6.250758171081543, 1.831332802772522, 7.050511360168457, 0.6581502556800842, 0.15797270834445953, -1.8858884572982788, 0.600341796875, 0.175048828125, -0.701416015625
613, 915880144, -6.2678399085998535, 1.8121994733810425, 7.06986665725708, -0.43783625960350037, -1.3639146089553833, -2.3670103549957275, 0.600830078125, 0.176513671875, -0.702880859375
614, 915896811, -6.268320560455322, 1.7979450225830078, 7.111815929412842, -1.317504644393921, -2.6196675300598145, -2.561295986175537, 0.600341796875, 0.176025390625, -0.702880859375
615, 915913478, -6.259737014770508, 1.8152949810028076, 7.090826511383057, -1.459885597229004, -3.506903886795044, -2.494856595993042, 0.600341796875, 0.177001953125, -0.70361328125
616, 915930145, -6.293283939361572, 1.6734085083007812, 7.144722938537598, 0.011865084059536457, -2.401869535446167, -2.029460906982422, 0.600830078125, 0.176025390625, -0.70458984375
617, 915946812, -6.299111366271973, 1.6444592475891113, 7.156581401824951, 2.086276054382324, -1.2595940828323364, -0.8222956657409668, 0.600341796875, 0.176513671875, -0.70458984375
618, 915963479, -6.284898281097412, 1.7743873596191406, 7.042311668395996, 3.134578227996826, -1.371009349822998, 0.2626006007194519, 0.602294921875, 0.178466796875, -0.70556640625
619, 915980146, -6.222336292266846, 1.6269124746322632, 7.129452228546143, 3.8284904956817627, -1.8402726650238037, 1.4987592697143555, 0.599853515625, 0.17333984375, -0.70361328125
620, 915996813, -6.255859851837158, 1.7107563018798828, 7.092126846313477, 4.038271427154541, -2.4002814292907715, 2.7050533294677734, 0.598876953125, 0.1708984375, -0.705078125
621, 916013480, -6.280596733093262, 1.7953852415084839, 7.021840572357178, 4.443156719207764, -4.087876796722412, 4.250741481781006, 0.600341796875, 0.17041015625, -0.70703125
622, 916030147, -6.287193775177002, 1.6961464881896973, 7.026381969451904, 7.342888832092285, -4.569141387939453, 7.700557708740234, 0.599853515625, 0.1689453125, -0.7060546875
623, 916046814, -6.255616188049316, 1.569327712059021, 7.217643737792969, 10.780247688293457, -3.621267318725586, 11.671568870544434, 0.598388671875, 0.1640625, -0.7099609375
624, 916063481, -6.205289840698242, 1.9673413038253784, 7.231156826019287, 11.167014122009277, -2.6863396167755127, 12.979345321655273, 0.595947265625, 0.159423828125, -0.708984375
625, 916080148, -6.164391040802002, 2.2674942016601562, 7.103381633758545, 7.540197849273682, -3.9888343811035156, 10.093132019042969, 0.5966796875, 0.154541015625, -0.708984375
626, 916096815, -6.173096656799316, 2.063347339630127, 7.092689037322998, 3.7075483798980713, -6.374631881713867, 6.923839092254639, 0.59619140625, 0.15380859375, -0.70947265625
627, 916113482, -6.101390361785889, 2.2114086151123047, 7.1766228675842285, 1.941781997680664, -7.0521368980407715, 4.907566547393799, 0.59521484375, 0.148681640625, -0.71142578125
628, 916130149, -6.089855670928955, 1.917081356048584, 7.273569107055664, 0.7930780053138733, -6.536617279052734, 3.2066142559051514, 0.594970703125, 0.149658203125, -0.715087890625
629, 916146816, -6.042356014251709, 2.134439706802368, 7.3199028968811035, 1.2630326747894287, -4.001984119415283, 2.4559695720672607, 0.5947265625, 0.145263671875, -0.714599609375
630, 916163483, -6.135941028594971, 2.09196400642395, 7.255964756011963, 1.6843230724334717, -1.8934699296951294, 2.018594264984131, 0.59521484375, 0.146240234375, -0.712890625
631, 916180150, -6.171684265136719, 2.1211249828338623, 7.219101428985596, 2.5618395805358887, -0.17170752584934235, 1.9773067235946655, 0.59765625, 0.145263671875, -0.714599609375
632, 916196817, -6.086505889892578, 2.113326072692871, 7.2375807762146, 2.2331390380859375, 0.41781356930732727, 1.169571876525879, 0.59765625, 0.146240234375, -0.71142578125
633, 916213484, -6.1471686363220215, 2.1702747344970703, 7.201394081115723, 1.473620057106018, 0.7373319268226624, -0.24507512152194977, 0.601318359375, 0.14208984375, -0.708740234375
634, 916230151, -6.14732027053833, 2.053678274154663, 7.205844879150391, 1.8210567235946655, 1.0763802528381348, -0.37653231620788574, 0.6044921875, 0.13671875, -0.705078125
635, 916246818, -6.138772964477539, 2.0925774574279785, 7.178414344787598, 1.804997205734253, 0.9801787734031677, -0.29617244005203247, 0.604736328125, 0.13037109375, -0.698486328125
636, 916263485, -6.146282196044922, 2.069786310195923, 7.137140274047852, 0.9210006594657898, -0.3843441903591156, -0.6872784495353699, 0.603515625, 0.11865234375, -0.699462890625
637, 916280152, -6.138120174407959, 1.9671050310134888, 7.1690592765808105, 0.2415853887796402, -1.2424848079681396, -0.7620546817779541, 0.596435546875, 0.1103515625, -0.698974609375
638, 916296819, -6.0863165855407715, 2.1131880283355713, 7.148674488067627, -1.5608892440795898, -1.9278427362442017, -1.813533067703247, 0.58447265625, 0.108154296875, -0.703125
639, 916313486, -6.083057403564453, 2.134455442428589, 7.162378311157227, -4.969991207122803, -2.8185112476348877, -3.8612420558929443, 0.581298828125, 0.11376953125, -0.707275390625
640, 916330153, -6.071625709533691, 2.085721492767334, 7.11824369430542, -8.819391250610352, -4.975064754486084, -6.540014266967773, 0.5810546875, 0.121337890625, -0.71142578125
641, 916346820, -6.0276055335998535, 2.214132070541382, 7.158755779266357, -13.206537246704102, -7.235006809234619, -9.617465019226074, 0.580322265625, 0.130126953125, -0.714599609375
642, 916363487, -6.060732364654541, 2.0538480281829834, 7.237377166748047, -14.958542823791504, -7.983105659484863, -11.4302339553833, 0.5791015625, 0.138916015625, -0.716552734375
643, 916380154, -6.006030082702637, 2.152799367904663, 7.182106971740723, -13.65368366241455, -6.286439418792725, -11.109174728393555, 0.58154296875, 0.14599609375, -0.72021484375
644, 916396821, -5.998548984527588, 1.7661373615264893, 7.26523494720459, -8.968175888061523, -2.063770055770874, -9.00079345703125, 0.581787109375, 0.149658203125, -0.71923828125
645, 916413488, -5.916050910949707, 1.9521266222000122, 7.244294166564941, -6.942901611328125, 0.9713299870491028, -8.471955299377441, 0.581787109375, 0.152099609375, -0.71923828125
646, 916430155, -5.965225696563721, 2.1545662879943848, 7.19087553024292, -10.176177024841309, 1.8293564319610596, -11.270865440368652, 0.582763671875, 0.1552734375, -0.71875
647, 916446822, -6.061217308044434, 1.9734822511672974, 7.195869445800781, -11.119855880737305, 2.7236123085021973, -13.302635192871094, 0.584228515625, 0.160400390625, -0.71630859375
648, 916463489, -6.0152387619018555, 1.9389702081680298, 7.293483257293701, -10.372169494628906, 4.7981157302856445, -13.978812217712402, 0.58349609375, 0.16650390625, -0.71484375
649, 916480156, -6.009613990783691, 1.847150444984436, 7.247084617614746, -10.12795352935791, 8.575828552246094, -15.551461219787598, 0.587646484375, 0.169189453125, -0.71533203125
650, 916496823, -6.015710830688477, 1.6484098434448242, 7.216318607330322, -7.03803825378418, 16.306428909301758, -15.462737083435059, 0.588134765625, 0.17626953125, -0.710205078125
651, 916513490, -6.038079738616943, 1.7219197750091553, 7.315434455871582, -4.233216762542725, 25.57279396057129, -15.816225051879883, 0.59375, 0.177001953125, -0.70263671875
652, 916530157, -6.198108196258545, 1.3636709451675415, 7.331617832183838, 0.09824441373348236, 35.31172180175781, -15.378700256347656, 0.59521484375, 0.1806640625, -0.696044921875
653, 916546824, -6.133471965789795, 1.183620572090149, 7.394662857055664, 3.8184545040130615, 45.250328063964844, -13.272310256958008, 0.603759765625, 0.184326171875, -0.685791015625
654, 916563491, -5.929455280303955, 1.233444094657898, 7.456192493438721, 6.125003814697266, 58.30164337158203, -14.755948066711426, 0.611572265625, 0.183837890625, -0.67529296875
