sep=,
DeviceTag:,A,,,,,,,,,,,,,,,,,
FirmwareVersion:,2.2.1,,,,,,,,,,,,,,,,,
AppVersion:,2023.6.1,,,,,,,,,,,,,,,,,
SyncStatus:,Synced,,,,,,,,,,,,,,,,,
OutputRate:,60Hz,,,,,,,,,,,,,,,,,
FilterProfile:,General,,,,,,,,,,,,,,,,,
Measurement Mode:,Inertial Mode - Rate quantities (with mag),,,,,,,,,,,,,,,,,
StartTime:,2023-12-07 12:07:43.442 +0200,,,,,,,,,,,,,,,,,
 2023,,,,,,,,,,,,,,,,,,,

PacketCounter,SampleTimeFine,Acc_X,Acc_Y,Acc_Z,Gyr_X,Gyr_Y,Gyr_Z,Mag_X,Mag_Y,Mag_Z
1, 3197107166, -6.796246528625488, -0.7656426429748535, 7.151796340942383, -2.4719455242156982, -1.5793302059173584, -2.2067902088165283, 1.1142578125, -0.41015625, 0.055908203125
2, 3197123833, -6.791741847991943, -0.7903685569763184, 7.165041446685791, -2.503602981567383, -1.5941474437713623, -2.3019542694091797, 1.11376953125, -0.41064453125, 0.056396484375
3, 3197140500, -6.779387950897217, -0.7866361737251282, 7.1429643630981445, -2.450559139251709, -1.5903310775756836, -2.265174388885498, 1.11474609375, -0.41064453125, 0.055419921875
4, 3197157167, -6.7815165519714355, -0.7864284515380859, 7.16910982131958, -2.3528335094451904, -1.6903624534606934, -2.2800848484039307, 1.115234375, -0.40869140625, 0.0537109375
5, 3197173834, -6.8036909103393555, -0.7836595177650452, 7.163483619689941, -2.346430540084839, -1.582314133644104, -2.3119688034057617, 1.115966796875, -0.40966796875, 0.05419921875
6, 3197190501, -6.786232948303223, -0.7769209146499634, 7.159382343292236, -2.4237682819366455, -1.6027147769927979, -2.254506826400757, 1.115234375, -0.407470703125, 0.0537109375
7, 3197207168, -6.776523113250732, -0.7951931953430176, 7.17145299911499, -2.367189645767212, -1.5187561511993408, -2.164401054382324, 1.115478515625, -0.41015625, 0.055419921875
8, 3197223835, -6.792821884155273, -0.7907266616821289, 7.164479732513428, -2.399961233139038, -1.4836539030075073, -2.1592016220092773, 1.1142578125, -0.40869140625, 0.058349609375
9, 3197240502, -6.783585071563721, -0.7886458039283752, 7.164835453033447, -2.3947620391845703, -1.5438183546066284, -2.2599239349365234, 1.11328125, -0.41064453125, 0.05517578125
10, 3197257169, -6.77712345123291, -0.7824000716209412, 7.178218841552734, -2.3815455436706543, -1.4612044095993042, -2.1928694248199463, 1.1123046875, -0.41015625, 0.0556640625
11, 3197273836, -6.790423393249512, -0.7794509530067444, 7.151248455047607, -2.4305427074432373, -1.4397026300430298, -2.242391586303711, 1.1142578125, -0.41015625, 0.055419921875
12, 3197290503, -6.797739505767822, -0.7899821400642395, 7.129436492919922, -2.439596652984619, -1.4348106384277344, -2.2725634574890137, 1.114990234375, -0.40966796875, 0.057373046875
13, 3197307170, -6.7970476150512695, -0.7894436120986938, 7.1458821296691895, -2.421527147293091, -1.5403348207473755, -2.1952643394470215, 1.114990234375, -0.41015625, 0.057861328125
14, 3197323837, -6.798833847045898, -0.7874936461448669, 7.159253120422363, -2.372952699661255, -1.622577428817749, -2.1379945278167725, 1.11474609375, -0.41064453125, 0.0546875
15, 3197340504, -6.790468692779541, -0.7811281085014343, 7.128697872161865, -2.3147220611572266, -1.5669978857040405, -2.180511713027954, 1.11474609375, -0.41064453125, 0.054931640625
16, 3197357171, -6.789646625518799, -0.7821175456047058, 7.168920993804932, -2.315528631210327, -1.6753908395767212, -2.269644021987915, 1.115478515625, -0.40966796875, 0.055419921875
17, 3197373838, -6.778509140014648, -0.7838261723518372, 7.149953365325928, -2.3571622371673584, -1.6871086359024048, -2.232825517654419, 1.11474609375, -0.40966796875, 0.056884765625
18, 3197390505, -6.780459403991699, -0.7905722856521606, 7.157027244567871, -2.3845553398132324, -1.7066255807876587, -2.2637147903442383, 1.114990234375, -0.412109375, 0.056396484375
19, 3197407172, -6.799043655395508, -0.7836142182350159, 7.155381679534912, -2.3737852573394775, -1.617121934890747, -2.2546350955963135, 1.11376953125, -0.41064453125, 0.055908203125
20, 3197423839, -6.786301136016846, -0.7825621962547302, 7.17578125, -2.3692901134490967, -1.5892809629440308, -2.2064061164855957, 1.11474609375, -0.40966796875, 0.055908203125
21, 3197440506, -6.780115127563477, -0.7852255702018738, 7.1542205810546875, -2.2950515747070312, -1.5942240953445435, -2.164951801300049, 1.1123046875, -0.41064453125, 0.05517578125
22, 3197457173, -6.788378715515137, -0.7782155871391296, 7.145616054534912, -2.4433743953704834, -1.4674410820007324, -2.110704183578491, 1.114990234375, -0.4111328125, 0.0537109375
23, 3197473840, -6.780574321746826, -0.7801900506019592, 7.162572860717773, -2.381622552871704, -1.6497012376785278, -2.177783966064453, 1.11474609375, -0.41064453125, 0.05419921875
24, 3197490507, -6.7973198890686035, -0.7748604416847229, 7.154754161834717, -2.3620543479919434, -1.5987319946289062, -2.1618142127990723, 1.11474609375, -0.40869140625, 0.056396484375
25, 3197507174, -6.791726589202881, -0.766403079032898, 7.141206741333008, -2.375462770462036, -1.6242934465408325, -2.1458449363708496, 1.115478515625, -0.41162109375, 0.055908203125
26, 3197523841, -6.792906761169434, -0.7683559060096741, 7.179782867431641, -2.307934522628784, -1.6670793294906616, -2.1752610206604004, 1.11474609375, -0.41015625, 0.05419921875
27, 3197540508, -6.796946048736572, -0.7797489762306213, 7.167782783508301, -2.303708553314209, -1.6868653297424316, -2.2823095321655273, 1.11279296875, -0.41259765625, 0.05517578125
28, 3197557175, -6.78739595413208, -0.7753982543945312, 7.178116798400879, -2.2948081493377686, -1.6975330114364624, -2.254929304122925, 1.114990234375, -0.4111328125, 0.05322265625
29, 3197573842, -6.7949018478393555, -0.7804770469665527, 7.171140670776367, -2.3863608837127686, -1.6610349416732788, -2.359224319458008, 1.1142578125, -0.41015625, 0.05419921875
30, 3197590509, -6.782159805297852, -0.7751106023788452, 7.155459403991699, -2.433462619781494, -1.6520320177078247, -2.274932861328125, 1.11474609375, -0.41064453125, 0.054931640625
31, 3197607176, -6.783774375915527, -0.771032452583313, 7.148385047912598, -2.4825236797332764, -1.5502469539642334, -2.3800342082977295, 1.11376953125, -0.4091796875, 0.055419921875
32, 3197623843, -6.793830871582031, -0.7896550297737122, 7.153769016265869, -2.4724066257476807, -1.6324509382247925, -2.299264907836914, 1.11279296875, -0.41015625, 0.0537109375
33, 3197640510, -6.770430088043213, -0.7903103828430176, 7.153051853179932, -2.4355759620666504, -1.6375865936279297, -2.337466239929199, 1.11376953125, -0.41015625, 0.05419921875
34, 3197657177, -6.785287380218506, -0.7888765335083008, 7.1761980056762695, -2.359621047973633, -1.6392254829406738, -2.3121864795684814, 1.114990234375, -0.4111328125, 0.05419921875
35, 3197673844, -6.787684917449951, -0.7921434044837952, 7.155824661254883, -2.347890853881836, -1.660292148590088, -2.310791015625, 1.115478515625, -0.41015625, 0.05322265625
36, 3197690511, -6.790314674377441, -0.7807461023330688, 7.178132057189941, -2.409630060195923, -1.620733380317688, -2.2858054637908936, 1.116455078125, -0.41162109375, 0.054931640625
37, 3197707178, -6.7755937576293945, -0.7929842472076416, 7.164279937744141, -2.4255099296569824, -1.5908432006835938, -2.2901852130889893, 1.11376953125, -0.41064453125, 0.055419921875
38, 3197723845, -6.799563884735107, -0.7870357632637024, 7.154613494873047, -2.4154059886932373, -1.5540764331817627, -2.2709503173828125, 1.11376953125, -0.4111328125, 0.055908203125
39, 3197740512, -6.783806324005127, -0.8024883270263672, 7.158464431762695, -2.3827624320983887, -1.6246265172958374, -2.293104887008667, 1.11376953125, -0.40966796875, 0.0537109375
40, 3197757179, -6.784072399139404, -0.7849505543708801, 7.174875736236572, -2.366778612136841, -1.696137547492981, -2.279021978378296, 1.115234375, -0.40966796875, 0.05322265625
41, 3197773846, -6.776341438293457, -0.7742370963096619, 7.151302337646484, -2.3219830989837646, -1.7547004222869873, -2.255531072616577, 1.11279296875, -0.40966796875, 0.05517578125
42, 3197790513, -6.784270763397217, -0.7768582105636597, 7.175048351287842, -2.3747971057891846, -1.6768379211425781, -2.2563509941101074, 1.1142578125, -0.40966796875, 0.0546875
43, 3197807180, -6.792296886444092, -0.7666237354278564, 7.19095516204834, -2.4303510189056396, -1.6255486011505127, -2.198479175567627, 1.11328125, -0.41015625, 0.056884765625
44, 3197823847, -6.791223049163818, -0.778755784034729, 7.183777332305908, -2.4744813442230225, -1.5675101280212402, -2.329897403717041, 1.11328125, -0.41162109375, 0.056396484375
45, 3197840514, -6.7816667556762695, -0.7723771333694458, 7.168638706207275, -2.393622398376465, -1.5791382789611816, -2.1791157722473145, 1.1123046875, -0.41015625, 0.056396484375
46, 3197857181, -6.786865711212158, -0.7883586287498474, 7.159610271453857, -2.348543405532837, -1.5355197191238403, -2.1656434535980225, 1.115966796875, -0.4111328125, 0.0517578125
47, 3197873848, -6.78963041305542, -0.7772395014762878, 7.1881561279296875, -2.299802541732788, -1.4626898765563965, -2.130246639251709, 1.116455078125, -0.40869140625, 0.05419921875
48, 3197890515, -6.761183738708496, -0.760733962059021, 7.181851863861084, -2.3839402198791504, -1.483205795288086, -2.1995925903320312, 1.1142578125, -0.4111328125, 0.055419921875
49, 3197907182, -6.777914524078369, -0.7757025957107544, 7.186676025390625, -2.399871587753296, -1.5164510011672974, -2.20098876953125, 1.11328125, -0.41064453125, 0.0546875
50, 3197923849, -6.7954535484313965, -0.7787606716156006, 7.160475730895996, -2.364231586456299, -1.5704939365386963, -2.1575369834899902, 1.111328125, -0.412109375, 0.05517578125
51, 3197940516, -6.786996364593506, -0.7864996790885925, 7.158365249633789, -2.3547675609588623, -1.5775116682052612, -2.191909074783325, 1.115234375, -0.407958984375, 0.052734375
52, 3197957183, -6.794461727142334, -0.7829999327659607, 7.174640655517578, -2.2865993976593018, -1.6731882095336914, -2.2282538414001465, 1.1142578125, -0.41162109375, 0.054931640625
53, 3197973850, -6.784573078155518, -0.7915714383125305, 7.177487850189209, -2.304886817932129, -1.6075938940048218, -2.2552239894866943, 1.11181640625, -0.4091796875, 0.0546875
54, 3197990517, -6.783530235290527, -0.7832144498825073, 7.153550148010254, -2.3198189735412598, -1.5437285900115967, -2.2084035873413086, 1.11474609375, -0.41015625, 0.055419921875
55, 3198007184, -6.773811340332031, -0.777010977268219, 7.160218715667725, -2.409719705581665, -1.5218682289123535, -2.19915771484375, 1.114501953125, -0.41162109375, 0.0546875
56, 3198023851, -6.774049282073975, -0.7884098887443542, 7.1614837646484375, -2.3752834796905518, -1.669307827949524, -2.1968655586242676, 1.11376953125, -0.40966796875, 0.055419921875
57, 3198040518, -6.7851152420043945, -0.7712371349334717, 7.173662185668945, -2.350311040878296, -1.548338770866394, -2.245093822479248, 1.1142578125, -0.41064453125, 0.055908203125
58, 3198057185, -6.781637191772461, -0.7749736905097961, 7.146353721618652, -2.424844264984131, -1.6117175817489624, -2.2751121520996094, 1.11572265625, -0.408203125, 0.05224609375
59, 3198073852, -6.786466121673584, -0.7780320644378662, 7.137426376342773, -2.343703031539917, -1.5957096815109253, -2.265200138092041, 1.11474609375, -0.40869140625, 0.055908203125
60, 3198090519, -6.79021692276001, -0.7742879390716553, 7.165417671203613, -2.368765115737915, -1.546392560005188, -2.220787763595581, 1.1142578125, -0.41064453125, 0.05419921875
61, 3198107186, -6.79046106338501, -0.7893060445785522, 7.153469562530518, -2.4028427600860596, -1.6287373304367065, -2.196289300918579, 1.11328125, -0.4111328125, 0.05419921875
62, 3198123853, -6.788181781768799, -0.7754347920417786, 7.168074131011963, -2.4338595867156982, -1.5765130519866943, -2.30041766166687, 1.11328125, -0.40966796875, 0.055419921875
63, 3198140520, -6.781893730163574, -0.7962100505828857, 7.161093235015869, -2.4174420833587646, -1.5756549835205078, -2.2772507667541504, 1.114990234375, -0.4111328125, 0.0537109375
64, 3198157187, -6.782689571380615, -0.7798323035240173, 7.171545505523682, -2.4270336627960205, -1.6170578002929688, -2.2746636867523193, 1.1142578125, -0.4091796875, 0.0546875
65, 3198173854, -6.787331581115723, -0.7785490155220032, 7.156465530395508, -2.408311128616333, -1.6809487342834473, -2.2941551208496094, 1.115234375, -0.40869140625, 0.055419921875
66, 3198190521, -6.779297351837158, -0.76911860704422, 7.165960788726807, -2.404290199279785, -1.7164225578308105, -2.4262402057647705, 1.1142578125, -0.4091796875, 0.055908203125
67, 3198207188, -6.771410942077637, -0.7980464100837708, 7.191599369049072, -2.4160845279693604, -1.6916548013687134, -2.406569480895996, 1.11328125, -0.412109375, 0.055419921875
68, 3198223855, -6.773600101470947, -0.7833203077316284, 7.161623954772949, -2.3779728412628174, -1.6025993824005127, -2.3276050090789795, 1.11279296875, -0.408203125, 0.05322265625
69, 3198240522, -6.780007839202881, -0.7788842916488647, 7.15395975112915, -2.398578405380249, -1.5616194009780884, -2.255774736404419, 1.11376953125, -0.406982421875, 0.05419921875
70, 3198257189, -6.79866361618042, -0.7965580821037292, 7.166509628295898, -2.3730039596557617, -1.6860072612762451, -2.274677038192749, 1.114990234375, -0.41064453125, 0.05419921875
71, 3198273856, -6.792536735534668, -0.7845771908760071, 7.1796159744262695, -2.407248020172119, -1.6339107751846313, -2.1934971809387207, 1.115478515625, -0.41162109375, 0.056396484375
72, 3198290523, -6.78659200668335, -0.7765903472900391, 7.165509223937988, -2.353550910949707, -1.706254005432129, -2.192613363265991, 1.114990234375, -0.412109375, 0.055419921875
73, 3198307190, -6.7889580726623535, -0.7859985828399658, 7.154475212097168, -2.419362783432007, -1.7691971063613892, -2.288046360015869, 1.11328125, -0.4111328125, 0.05517578125
74, 3198323857, -6.775030612945557, -0.7894434928894043, 7.149633407592773, -2.357802629470825, -1.7830666303634644, -2.2883410453796387, 1.1123046875, -0.4111328125, 0.05517578125
75, 3198340524, -6.79034948348999, -0.7969196438789368, 7.185070514678955, -2.2858567237854004, -1.7761000394821167, -2.292285680770874, 1.11328125, -0.40771484375, 0.0546875
76, 3198357191, -6.775249481201172, -0.787514328956604, 7.156515121459961, -2.3957834243774414, -1.6507676839828491, -2.222421646118164, 1.11328125, -0.4091796875, 0.0537109375
77, 3198373858, -6.788119316101074, -0.7857533693313599, 7.179871082305908, -2.4283783435821533, -1.5454062223434448, -2.192357301712036, 1.1142578125, -0.4111328125, 0.052734375
78, 3198390525, -6.785860061645508, -0.7816083431243896, 7.149101257324219, -2.412959575653076, -1.643208384513855, -2.242110252380371, 1.11279296875, -0.4091796875, 0.05419921875
79, 3198407192, -6.785250186920166, -0.7891075611114502, 7.153443813323975, -2.414304494857788, -1.5232256650924683, -2.2388062477111816, 1.115478515625, -0.41015625, 0.054443359375
80, 3198423859, -6.76556396484375, -0.7897973656654358, 7.162827491760254, -2.406261920928955, -1.5514894723892212, -2.2594754695892334, 1.11376953125, -0.4091796875, 0.0546875
81, 3198440526, -6.774086952209473, -0.7767283916473389, 7.142286777496338, -2.412729024887085, -1.5703017711639404, -2.2505366802215576, 1.11279296875, -0.40966796875, 0.0546875
82, 3198457193, -6.777166366577148, -0.7827120423316956, 7.162038326263428, -2.4633142948150635, -1.7009267807006836, -2.2714881896972656, 1.11376953125, -0.41064453125, 0.05517578125
83, 3198473860, -6.781141757965088, -0.7895441651344299, 7.146306991577148, -2.3787026405334473, -1.6384955644607544, -2.2716543674468994, 1.115478515625, -0.4091796875, 0.05419921875
84, 3198490527, -6.778928279876709, -0.7938648462295532, 7.138739109039307, -2.379727363586426, -1.7130157947540283, -2.2074944972991943, 1.11279296875, -0.41015625, 0.055908203125
85, 3198507194, -6.776872634887695, -0.787559986114502, 7.154247283935547, -2.4149441719055176, -1.667104959487915, -2.212066173553467, 1.11181640625, -0.4091796875, 0.0546875
86, 3198523861, -6.777204990386963, -0.7869679927825928, 7.15788459777832, -2.349388837814331, -1.6037136316299438, -2.2283177375793457, 1.115234375, -0.40966796875, 0.054931640625
87, 3198540528, -6.776062965393066, -0.7804205417633057, 7.164914608001709, -2.376858711242676, -1.643631100654602, -2.2731142044067383, 1.1123046875, -0.41064453125, 0.05224609375
88, 3198557195, -6.772830486297607, -0.7882028222084045, 7.180338382720947, -2.4067232608795166, -1.6113078594207764, -2.3306405544281006, 1.11376953125, -0.41064453125, 0.05322265625
89, 3198573862, -6.766552448272705, -0.7926027178764343, 7.155972957611084, -2.3930842876434326, -1.5391825437545776, -2.2355406284332275, 1.115966796875, -0.407958984375, 0.055419921875
90, 3198590529, -6.784620761871338, -0.7903098464012146, 7.146692752838135, -2.365384101867676, -1.6302995681762695, -2.2796969413757324, 1.11376953125, -0.41259765625, 0.052734375
91, 3198607196, -6.783751487731934, -0.7945464253425598, 7.145649433135986, -2.4272003173828125, -1.6338725090026855, -2.2121434211730957, 1.11474609375, -0.4091796875, 0.052734375
92, 3198623863, -6.768989086151123, -0.7838765978813171, 7.159848690032959, -2.3375301361083984, -1.68516206741333, -2.285510778427124, 1.11328125, -0.4091796875, 0.05419921875
93, 3198640530, -6.778712749481201, -0.7692808508872986, 7.160898208618164, -2.397463798522949, -1.5404244661331177, -2.2639572620391846, 1.11328125, -0.41064453125, 0.055419921875
94, 3198657197, -6.766282081604004, -0.7985545992851257, 7.164480686187744, -2.3400275707244873, -1.5928667783737183, -2.256530284881592, 1.11376953125, -0.40966796875, 0.05224609375
95, 3198673864, -6.760705471038818, -0.8024539351463318, 7.168271541595459, -2.4047889709472656, -1.6873645782470703, -2.1678717136383057, 1.11328125, -0.41015625, 0.050537109375
96, 3198690531, -6.780490398406982, -0.803916871547699, 7.187256336212158, -2.4047253131866455, -1.5681504011154175, -2.214794635772705, 1.11279296875, -0.40869140625, 0.0537109375
97, 3198707198, -6.785679817199707, -0.7790601849555969, 7.148508548736572, -2.257939100265503, -1.6763896942138672, -2.2642526626586914, 1.115966796875, -0.41015625, 0.054443359375
98, 3198723865, -6.781123161315918, -0.7929954528808594, 7.157656669616699, -2.3145172595977783, -1.6646462678909302, -2.1804733276367188, 1.115966796875, -0.41015625, 0.054931640625
99, 3198740532, -6.771038055419922, -0.7888989448547363, 7.1837897300720215, -2.3238401412963867, -1.6358445882797241, -2.1408629417419434, 1.1142578125, -0.41162109375, 0.0546875
100, 3198757199, -6.778341293334961, -0.774133563041687, 7.162387371063232, -2.300583839416504, -1.7838348150253296, -2.192549467086792, 1.11474609375, -0.4111328125, 0.05224609375
101, 3198773866, -6.7722296714782715, -0.7888978123664856, 7.18259334564209, -2.339899778366089, -1.6953431367874146, -2.1617889404296875, 1.11376953125, -0.41015625, 0.0537109375
102, 3198790533, -6.766155242919922, -0.7750104665756226, 7.170927047729492, -2.368112087249756, -1.600396752357483, -2.2693750858306885, 1.115234375, -0.4091796875, 0.054931640625
103, 3198807200, -6.775754928588867, -0.7842455506324768, 7.167825222015381, -2.4293646812438965, -1.605417013168335, -2.287303924560547, 1.11279296875, -0.41015625, 0.055419921875
104, 3198823867, -6.7859416007995605, -0.7754383683204651, 7.187301158905029, -2.352167844772339, -1.5854132175445557, -2.238370656967163, 1.11279296875, -0.41064453125, 0.0517578125
105, 3198840534, -6.779945373535156, -0.7817663550376892, 7.157146453857422, -2.441787004470825, -1.5691107511520386, -2.2920422554016113, 1.11376953125, -0.412109375, 0.0546875
106, 3198857201, -6.777105331420898, -0.7822700142860413, 7.173842430114746, -2.41329288482666, -1.5605050325393677, -2.3764359951019287, 1.11376953125, -0.41162109375, 0.0537109375
107, 3198873868, -6.780490398406982, -0.7726827263832092, 7.16452169418335, -2.4630327224731445, -1.485229253768921, -2.332868814468384, 1.1142578125, -0.40966796875, 0.0537109375
108, 3198890535, -6.7654571533203125, -0.7886950373649597, 7.1594696044921875, -2.431682586669922, -1.4773662090301514, -2.251983880996704, 1.11328125, -0.41064453125, 0.05126953125
109, 3198907202, -6.772286891937256, -0.7858533263206482, 7.161355495452881, -2.3714802265167236, -1.6112823486328125, -2.2623443603515625, 1.11279296875, -0.40771484375, 0.05322265625
110, 3198923869, -6.764941215515137, -0.7981000542640686, 7.1529388427734375, -2.3936989307403564, -1.5632840394973755, -2.2112083435058594, 1.11279296875, -0.40966796875, 0.052734375
111, 3198940536, -6.787987232208252, -0.7907952070236206, 7.1909589767456055, -2.3544726371765137, -1.6326686143875122, -2.2469635009765625, 1.1142578125, -0.41064453125, 0.0537109375
112, 3198957203, -6.773835182189941, -0.793184757232666, 7.154307842254639, -2.3626043796539307, -1.5521645545959473, -2.1447553634643555, 1.1123046875, -0.4111328125, 0.05517578125
113, 3198973870, -6.777007102966309, -0.7818090319633484, 7.157554626464844, -2.4314136505126953, -1.5445352792739868, -2.23952317237854, 1.11279296875, -0.408203125, 0.0556640625
114, 3198990537, -6.77742338180542, -0.7864499688148499, 7.159708499908447, -2.3946850299835205, -1.5136722326278687, -2.253866672515869, 1.1142578125, -0.41015625, 0.056396484375
115, 3199007204, -6.760176181793213, -0.7941717505455017, 7.174673557281494, -2.3792917728424072, -1.5439976453781128, -2.220672607421875, 1.1142578125, -0.40869140625, 0.05322265625
116, 3199023871, -6.7693562507629395, -0.7948092222213745, 7.153597831726074, -2.3120968341827393, -1.4907230138778687, -2.2226057052612305, 1.11376953125, -0.4091796875, 0.05419921875
117, 3199040538, -6.7736616134643555, -0.7865472435951233, 7.154314041137695, -2.3778955936431885, -1.4138593673706055, -2.2395873069763184, 1.11279296875, -0.41162109375, 0.05224609375
118, 3199057205, -6.760817050933838, -0.8031987547874451, 7.157491683959961, -2.4096686840057373, -1.6014084815979004, -2.223745822906494, 1.1142578125, -0.40966796875, 0.055419921875
119, 3199073872, -6.768008708953857, -0.7812872529029846, 7.1690568923950195, -2.412280797958374, -1.5362626314163208, -2.1606361865997314, 1.1142578125, -0.40966796875, 0.0546875
120, 3199090539, -6.766385078430176, -0.7945999503135681, 7.164295673370361, -2.4051222801208496, -1.510291337966919, -2.227587938308716, 1.1142578125, -0.41162109375, 0.0546875
121, 3199107206, -6.785276412963867, -0.8031952381134033, 7.180482387542725, -2.4642105102539062, -1.5232770442962646, -2.290966510772705, 1.11083984375, -0.41064453125, 0.05517578125
122, 3199123873, -6.769573211669922, -0.7984451651573181, 7.160758972167969, -2.421680450439453, -1.49580717086792, -2.1788082122802734, 1.11328125, -0.41064453125, 0.0546875
123, 3199140540, -6.77804708480835, -0.7933101058006287, 7.165154933929443, -2.3607864379882812, -1.4445818662643433, -2.205317497253418, 1.11474609375, -0.40966796875, 0.0537109375
124, 3199157207, -6.773769378662109, -0.7729297280311584, 7.165713310241699, -2.3880770206451416, -1.5240198373794556, -2.1273012161254883, 1.1123046875, -0.4091796875, 0.0546875
125, 3199173874, -6.770600318908691, -0.7943186163902283, 7.16429328918457, -2.46535062789917, -1.5147992372512817, -2.2168688774108887, 1.11328125, -0.40771484375, 0.05224609375
126, 3199190541, -6.783153057098389, -0.7932685613632202, 7.167752742767334, -2.378382444381714, -1.5790228843688965, -2.173365592956543, 1.115478515625, -0.4111328125, 0.052734375
127, 3199207208, -6.772753715515137, -0.7841533422470093, 7.189590930938721, -2.3871419429779053, -1.5217145681381226, -2.204472064971924, 1.115478515625, -0.40869140625, 0.05419921875
128, 3199223875, -6.772136211395264, -0.7806100845336914, 7.175535678863525, -2.3913040161132812, -1.6139200925827026, -2.2840123176574707, 1.11181640625, -0.40966796875, 0.057373046875
129, 3199240542, -6.775782585144043, -0.7844408750534058, 7.158766746520996, -2.3999099731445312, -1.6149959564208984, -2.2639834880828857, 1.11474609375, -0.4091796875, 0.05419921875
130, 3199257209, -6.7757697105407715, -0.7956669926643372, 7.175299644470215, -2.4414026737213135, -1.5875778198242188, -2.267556667327881, 1.115478515625, -0.40869140625, 0.05419921875
131, 3199273876, -6.778498649597168, -0.7935636639595032, 7.153285980224609, -2.387244701385498, -1.6685010194778442, -2.2654945850372314, 1.11328125, -0.40966796875, 0.0517578125
132, 3199290543, -6.7694172859191895, -0.7860755920410156, 7.151040554046631, -2.3827877044677734, -1.723990797996521, -2.361708641052246, 1.1142578125, -0.41015625, 0.0546875
133, 3199307210, -6.779415130615234, -0.7889482975006104, 7.167476654052734, -2.3244807720184326, -1.6660804748535156, -2.2021288871765137, 1.114990234375, -0.4111328125, 0.0537109375
134, 3199323877, -6.771072864532471, -0.7835890650749207, 7.157835006713867, -2.2755730152130127, -1.7303556203842163, -2.193650960922241, 1.11376953125, -0.40966796875, 0.05322265625
135, 3199340544, -6.779322624206543, -0.7849738597869873, 7.174452304840088, -2.3057830333709717, -1.7901611328125, -2.2131805419921875, 1.11181640625, -0.41015625, 0.05517578125
136, 3199357211, -6.774979591369629, -0.7607455849647522, 7.179512023925781, -2.3607609272003174, -1.6614062786102295, -2.2183032035827637, 1.1142578125, -0.40966796875, 0.0517578125
137, 3199373878, -6.781681060791016, -0.8067971467971802, 7.163600444793701, -2.4969563484191895, -1.513300895690918, -2.3516685962677, 1.115478515625, -0.40966796875, 0.05322265625
138, 3199390545, -6.778177738189697, -0.7906256914138794, 7.164706230163574, -2.4769911766052246, -1.4181878566741943, -2.4439892768859863, 1.11279296875, -0.4091796875, 0.05419921875
139, 3199407212, -6.768115043640137, -0.8181403875350952, 7.1496782302856445, -2.48923397064209, -1.4014884233474731, -2.3104703426361084, 1.11279296875, -0.41015625, 0.05419921875
140, 3199423879, -6.76686429977417, -0.8134134411811829, 7.164053916931152, -2.363309621810913, -1.5466229915618896, -2.2042675018310547, 1.11376953125, -0.40869140625, 0.0537109375
141, 3199440546, -6.762330532073975, -0.7741846442222595, 7.173041343688965, -2.365614414215088, -1.5378247499465942, -2.1386475563049316, 1.1123046875, -0.40966796875, 0.052734375
142, 3199457213, -6.771424293518066, -0.7907413840293884, 7.151963233947754, -2.3340723514556885, -1.5101886987686157, -2.1031482219696045, 1.11474609375, -0.40966796875, 0.052734375
143, 3199473880, -6.774346351623535, -0.792548418045044, 7.185202598571777, -2.3128907680511475, -1.566114068031311, -2.0340325832366943, 1.1142578125, -0.41064453125, 0.0517578125
144, 3199490547, -6.775679111480713, -0.8055029511451721, 7.1733245849609375, -2.2890453338623047, -1.69074547290802, -2.1281464099884033, 1.1142578125, -0.4091796875, 0.055419921875
145, 3199507214, -6.775670051574707, -0.7787580490112305, 7.163523197174072, -2.3571622371673584, -1.5265424251556396, -2.049246311187744, 1.11279296875, -0.41064453125, 0.056884765625
146, 3199523881, -6.7650861740112305, -0.7863078713417053, 7.188233375549316, -2.325735330581665, -1.4703097343444824, -2.028743267059326, 1.11181640625, -0.40869140625, 0.056396484375
147, 3199540548, -6.791729927062988, -0.7724382877349854, 7.1807146072387695, -2.3178467750549316, -1.3238307237625122, -2.016103506088257, 1.11279296875, -0.4091796875, 0.05126953125
148, 3199557215, -6.777768135070801, -0.7799288034439087, 7.1671833992004395, -2.2317309379577637, -1.3532426357269287, -1.932900071144104, 1.11376953125, -0.408203125, 0.05517578125
149, 3199573882, -6.774112224578857, -0.7850660085678101, 7.14308500289917, -2.218174934387207, -1.5176420211791992, -1.9503430128097534, 1.11474609375, -0.4091796875, 0.0546875
150, 3199590549, -6.77275276184082, -0.7827629446983337, 7.156257152557373, -2.2402403354644775, -1.5107778310775757, -1.835188388824463, 1.11328125, -0.40966796875, 0.0546875
151, 3199607216, -6.766124248504639, -0.7818261981010437, 7.176826000213623, -2.1843020915985107, -1.644155740737915, -1.8076673746109009, 1.114990234375, -0.412109375, 0.054443359375
152, 3199623883, -6.7746124267578125, -0.7757288217544556, 7.160803318023682, -2.110384225845337, -1.5756677389144897, -1.8788710832595825, 1.11279296875, -0.4091796875, 0.05322265625
153, 3199640550, -6.765324592590332, -0.7834067940711975, 7.192555904388428, -2.18011474609375, -1.5404119491577148, -1.8824436664581299, 1.11279296875, -0.41064453125, 0.055419921875
154, 3199657217, -6.777738094329834, -0.7912573218345642, 7.157320976257324, -2.1517741680145264, -1.538939118385315, -1.8191163539886475, 1.115478515625, -0.41064453125, 0.05224609375
155, 3199673884, -6.7774810791015625, -0.7732282876968384, 7.18034553527832, -2.1909873485565186, -1.5802394151687622, -1.7250537872314453, 1.115966796875, -0.4111328125, 0.054931640625
156, 3199690551, -6.778063774108887, -0.7686248421669006, 7.1913580894470215, -2.1838157176971436, -1.5018646717071533, -1.7824902534484863, 1.11376953125, -0.4111328125, 0.05322265625
157, 3199707218, -6.770853042602539, -0.7709486484527588, 7.167480945587158, -2.17924427986145, -1.47074556350708, -1.7261810302734375, 1.11328125, -0.41015625, 0.055908203125
158, 3199723885, -6.7923760414123535, -0.7559601068496704, 7.135337829589844, -2.2613964080810547, -1.4392929077148438, -1.834842562675476, 1.1123046875, -0.41064453125, 0.057373046875
159, 3199740552, -6.779036045074463, -0.7645507454872131, 7.1620965003967285, -2.2046003341674805, -1.4146661758422852, -1.81751549243927, 1.11328125, -0.4130859375, 0.055419921875
160, 3199757219, -6.783149242401123, -0.7708870768547058, 7.152134418487549, -2.231391191482544, -1.4209285974502563, -1.7627555131912231, 1.114990234375, -0.41162109375, 0.0537109375
161, 3199773886, -6.782567977905273, -0.7677872776985168, 7.159857749938965, -2.2206850051879883, -1.4639835357666016, -1.7896745204925537, 1.11474609375, -0.4111328125, 0.05224609375
162, 3199790553, -6.785863399505615, -0.779940128326416, 7.173765182495117, -2.261972665786743, -1.4529571533203125, -1.8804458379745483, 1.114013671875, -0.413818359375, 0.05419921875
163, 3199807220, -6.784489631652832, -0.7842354774475098, 7.172396659851074, -2.2740232944488525, -1.4967420101165771, -1.8990793228149414, 1.11474609375, -0.41064453125, 0.0546875
164, 3199823887, -6.772794246673584, -0.7611401081085205, 7.148049831390381, -2.2924964427948, -1.4054646492004395, -1.950106143951416, 1.11328125, -0.412109375, 0.0546875
165, 3199840554, -6.783240795135498, -0.7488611936569214, 7.175756454467773, -2.276507616043091, -1.3375591039657593, -1.9487422704696655, 1.11328125, -0.4111328125, 0.055908203125
166, 3199857221, -6.774850368499756, -0.7817586064338684, 7.182882785797119, -2.359403371810913, -1.3926904201507568, -2.0387325286865234, 1.11083984375, -0.41064453125, 0.052734375
167, 3199873888, -6.770206451416016, -0.7677614092826843, 7.154021263122559, -2.3166301250457764, -1.4269218444824219, -1.9905421733856201, 1.11328125, -0.41162109375, 0.055908203125
168, 3199890555, -6.779263019561768, -0.7588546276092529, 7.161766052246094, -2.317603349685669, -1.4117207527160645, -2.0507960319519043, 1.114013671875, -0.4130859375, 0.055419921875
169, 3199907222, -6.785541534423828, -0.7761622667312622, 7.169386386871338, -2.3684446811676025, -1.3745566606521606, -2.050117254257202, 1.11376953125, -0.4130859375, 0.055908203125
170, 3199923889, -6.781250953674316, -0.7649410963058472, 7.168160438537598, -2.4080421924591064, -1.3819587230682373, -2.089740037918091, 1.11279296875, -0.41162109375, 0.05517578125
171, 3199940556, -6.771951198577881, -0.7579271197319031, 7.181800365447998, -2.3591086864471436, -1.4455167055130005, -2.0474534034729004, 1.114013671875, -0.4130859375, 0.054931640625
172, 3199957223, -6.778337001800537, -0.7676704525947571, 7.143627643585205, -2.4351913928985596, -1.46528959274292, -2.0600674152374268, 1.11328125, -0.4111328125, 0.05517578125
173, 3199973890, -6.7844157218933105, -0.7732807397842407, 7.155965328216553, -2.3180899620056152, -1.483154535293579, -2.0620014667510986, 1.11279296875, -0.4130859375, 0.0537109375
174, 3199990557, -6.776602745056152, -0.7651354670524597, 7.176091194152832, -2.3418843746185303, -1.554370641708374, -2.0838875770568848, 1.114990234375, -0.4130859375, 0.05224609375
175, 3200007224, -6.768362045288086, -0.7642178535461426, 7.1760454177856445, -2.295461654663086, -1.4922728538513184, -2.082850456237793, 1.11376953125, -0.4111328125, 0.054931640625
176, 3200023891, -6.782716274261475, -0.7764536738395691, 7.189361572265625, -2.391611337661743, -1.3421437740325928, -2.186107873916626, 1.114501953125, -0.413330078125, 0.056884765625
177, 3200040558, -6.782949924468994, -0.7777318954467773, 7.171259880065918, -2.448586940765381, -1.312612533569336, -2.112445831298828, 1.11328125, -0.413818359375, 0.056396484375
178, 3200057225, -6.795213222503662, -0.769511878490448, 7.184444904327393, -2.4776315689086914, -1.3434884548187256, -2.124906301498413, 1.11376953125, -0.41162109375, 0.05322265625
179, 3200073892, -6.794891357421875, -0.7637297511100769, 7.179051876068115, -2.380098342895508, -1.2173843383789062, -2.0448665618896484, 1.11376953125, -0.41064453125, 0.055908203125
180, 3200090559, -6.785369396209717, -0.7731670141220093, 7.169769763946533, -2.471830368041992, -1.166440725326538, -2.0886642932891846, 1.115478515625, -0.413330078125, 0.054931640625
181, 3200107226, -6.782932281494141, -0.7612557411193848, 7.157870292663574, -2.433295965194702, -1.2900091409683228, -2.0823252201080322, 1.114501953125, -0.412109375, 0.055908203125
182, 3200123893, -6.770896911621094, -0.7785651087760925, 7.17465877532959, -2.4490222930908203, -1.2712863683700562, -2.1237411499023438, 1.115478515625, -0.4130859375, 0.055908203125
183, 3200140560, -6.79324197769165, -0.766228199005127, 7.173573970794678, -2.5072782039642334, -1.3190667629241943, -2.088728427886963, 1.11474609375, -0.4091796875, 0.0546875
184, 3200157227, -6.795184135437012, -0.7599300146102905, 7.174445152282715, -2.5023255348205566, -1.2040575742721558, -2.110795021057129, 1.11279296875, -0.41162109375, 0.055908203125
185, 3200173894, -6.776801586151123, -0.764664888381958, 7.178443431854248, -2.574793577194214, -1.17594313621521, -2.20908260345459, 1.114501953125, -0.4111328125, 0.058349609375
186, 3200190561, -6.767918586730957, -0.7669945359230042, 7.172333717346191, -2.6648991107940674, -1.0470086336135864, -2.202116012573242, 1.1142578125, -0.41162109375, 0.058837890625
187, 3200207228, -6.795156955718994, -0.7816109657287598, 7.1737380027771, -2.6110610961914062, -1.1380234956741333, -2.078995704650879, 1.114990234375, -0.413330078125, 0.058349609375
188, 3200223895, -6.791181564331055, -0.7810156941413879, 7.160017013549805, -2.48085880279541, -1.1928346157073975, -2.0543177127838135, 1.11376953125, -0.41259765625, 0.055908203125
189, 3200240562, -6.7931013107299805, -0.7647948265075684, 7.150371551513672, -2.498569965362549, -1.2982820272445679, -2.0013251304626465, 1.114501953125, -0.41162109375, 0.056884765625
190, 3200257229, -6.795427322387695, -0.7338547706604004, 7.172488212585449, -2.5771498680114746, -1.2501816749572754, -2.1827399730682373, 1.116455078125, -0.412109375, 0.054443359375
191, 3200273896, -6.793133735656738, -0.752149224281311, 7.184292793273926, -2.5863449573516846, -1.1715891361236572, -2.2356560230255127, 1.114990234375, -0.412109375, 0.055419921875
192, 3200290563, -6.79727029800415, -0.7712439894676208, 7.155969142913818, -2.6998603343963623, -1.1508556604385376, -2.3136978149414062, 1.116455078125, -0.41259765625, 0.054931640625
193, 3200307230, -6.8054518699646, -0.7607453465461731, 7.149144649505615, -2.674708843231201, -1.1122572422027588, -2.2818868160247803, 1.114990234375, -0.41259765625, 0.057861328125
194, 3200323897, -6.80649995803833, -0.7536916732788086, 7.142294406890869, -2.58278489112854, -1.2437912225723267, -2.3431012630462646, 1.11328125, -0.41259765625, 0.057373046875
195, 3200340564, -6.805786609649658, -0.7670409083366394, 7.146274089813232, -2.5134642124176025, -1.3986455202102661, -2.3386058807373047, 1.114501953125, -0.4130859375, 0.056396484375
196, 3200357231, -6.808412075042725, -0.7784457206726074, 7.147824287414551, -2.3095486164093018, -1.5510796308517456, -2.2634966373443604, 1.1142578125, -0.40966796875, 0.055908203125
197, 3200373898, -6.7936859130859375, -0.7656531929969788, 7.142005443572998, -2.266186475753784, -1.6764793395996094, -2.213667631149292, 1.115966796875, -0.412109375, 0.055908203125
198, 3200390565, -6.809786796569824, -0.7696098685264587, 7.154626846313477, -2.387641668319702, -1.637048602104187, -2.117337942123413, 1.11328125, -0.412109375, 0.057373046875
199, 3200407232, -6.806553840637207, -0.7507584095001221, 7.165855407714844, -2.428762674331665, -1.573746681213379, -2.242109775543213, 1.11328125, -0.4130859375, 0.057373046875
200, 3200423899, -6.794165134429932, -0.7681092619895935, 7.162513732910156, -2.466029167175293, -1.4251675605773926, -2.281092882156372, 1.114990234375, -0.413330078125, 0.055908203125
201, 3200440566, -6.802870273590088, -0.7719730138778687, 7.145913600921631, -2.4026761054992676, -1.3656948804855347, -2.2708990573883057, 1.114501953125, -0.41162109375, 0.057373046875
202, 3200457233, -6.803536891937256, -0.7678627967834473, 7.122704029083252, -2.4268033504486084, -1.3777968883514404, -2.126020908355713, 1.115478515625, -0.41259765625, 0.05224609375
203, 3200473900, -6.809041500091553, -0.7666510939598083, 7.167203426361084, -2.351809501647949, -1.2821590900421143, -2.117901563644409, 1.114501953125, -0.41259765625, 0.054931640625
204, 3200490567, -6.797793865203857, -0.7688913345336914, 7.140573978424072, -2.4129083156585693, -1.2459810972213745, -2.0199713706970215, 1.114990234375, -0.4130859375, 0.054931640625
205, 3200507234, -6.8035712242126465, -0.7647674083709717, 7.1654510498046875, -2.4355883598327637, -1.273450493812561, -2.0094187259674072, 1.114501953125, -0.41162109375, 0.057373046875
206, 3200523901, -6.802596092224121, -0.7662460803985596, 7.164201259613037, -2.347813606262207, -1.1395217180252075, -2.0872559547424316, 1.115966796875, -0.41162109375, 0.057861328125
207, 3200540568, -6.787230014801025, -0.7460287809371948, 7.171633243560791, -2.4231021404266357, -1.151175618171692, -2.0959384441375732, 1.116455078125, -0.413330078125, 0.057861328125
208, 3200557235, -6.807906150817871, -0.7760742902755737, 7.13250207901001, -2.407529830932617, -1.170743703842163, -2.0973472595214844, 1.115966796875, -0.4111328125, 0.055419921875
209, 3200573902, -6.794649124145508, -0.7781050205230713, 7.138860702514648, -2.4133694171905518, -1.3808448314666748, -2.074014186859131, 1.116455078125, -0.413330078125, 0.057373046875
210, 3200590569, -6.792476177215576, -0.7664702534675598, 7.147553443908691, -2.445244312286377, -1.266906499862671, -2.076524019241333, 1.1142578125, -0.412109375, 0.056884765625
211, 3200607236, -6.807669639587402, -0.7444304823875427, 7.153439521789551, -2.507432222366333, -1.2509115934371948, -2.158318281173706, 1.116455078125, -0.4111328125, 0.056396484375
212, 3200623903, -6.7916340827941895, -0.7676990628242493, 7.155701160430908, -2.5171010494232178, -1.31963050365448, -2.2174196243286133, 1.114501953125, -0.41162109375, 0.057373046875
213, 3200640570, -6.811554908752441, -0.760866641998291, 7.151791572570801, -2.5015156269073486, -1.427370309829712, -2.2163822650909424, 1.116943359375, -0.41259765625, 0.057373046875
214, 3200657237, -6.810573101043701, -0.7620234489440918, 7.132698059082031, -2.502821922302246, -1.4547373056411743, -2.380610704421997, 1.115478515625, -0.4130859375, 0.054931640625
215, 3200673904, -6.80953311920166, -0.7636758685112, 7.134944915771484, -2.596256971359253, -1.4639707803726196, -2.30269718170166, 1.116455078125, -0.4111328125, 0.055908203125
216, 3200690571, -6.808942794799805, -0.7727842330932617, 7.12802267074585, -2.5806846618652344, -1.4722180366516113, -2.3385674953460693, 1.114013671875, -0.41259765625, 0.057861328125
217, 3200707238, -6.798104763031006, -0.7819167375564575, 7.160940647125244, -2.516857624053955, -1.401002049446106, -2.3013525009155273, 1.11376953125, -0.4130859375, 0.058837890625
218, 3200723905, -6.807983875274658, -0.7746491432189941, 7.152803421020508, -2.5510764122009277, -1.3450894355773926, -2.2835259437561035, 1.116943359375, -0.4130859375, 0.057373046875
219, 3200740572, -6.794249057769775, -0.7656248211860657, 7.1221771240234375, -2.60933256149292, -1.344820499420166, -2.278416156768799, 1.116455078125, -0.41259765625, 0.057373046875
220, 3200757239, -6.808901786804199, -0.7752047777175903, 7.133316993713379, -2.6587717533111572, -1.2885873317718506, -2.250452995300293, 1.116943359375, -0.412109375, 0.057373046875
221, 3200773906, -6.817388534545898, -0.7775084376335144, 7.14789342880249, -2.5673787593841553, -1.2220202684402466, -2.307115316390991, 1.116455078125, -0.4111328125, 0.055908203125
222, 3200790573, -6.806650638580322, -0.7696290612220764, 7.155022621154785, -2.582003116607666, -1.1711918115615845, -2.2597060203552246, 1.114501953125, -0.4111328125, 0.056396484375
223, 3200807240, -6.784441947937012, -0.7622953057289124, 7.153324127197266, -2.591928482055664, -1.0503640174865723, -2.2130014896392822, 1.116455078125, -0.41162109375, 0.058349609375
224, 3200823907, -6.8085036277771, -0.7675459384918213, 7.161640167236328, -2.792668342590332, -0.8471785187721252, -2.343280553817749, 1.1142578125, -0.40869140625, 0.058837890625
225, 3200840574, -6.792766094207764, -0.770134449005127, 7.166281223297119, -2.9308359622955322, -0.40480875968933105, -2.308716297149658, 1.116455078125, -0.41064453125, 0.058837890625
226, 3200857241, -6.8030595779418945, -0.7443556189537048, 7.153717517852783, -3.3263723850250244, 0.41929909586906433, -2.3760900497436523, 1.116455078125, -0.41162109375, 0.05859375
227, 3200873908, -6.813037872314453, -0.7925460338592529, 7.165353775024414, -3.4254424571990967, 0.9108067750930786, -2.2553646564483643, 1.118408203125, -0.412109375, 0.05859375
228, 3200890575, -6.845456123352051, -0.7694052457809448, 7.142908096313477, -3.552532434463501, 1.3859350681304932, -1.9983283281326294, 1.116455078125, -0.412109375, 0.06005859375
229, 3200907242, -6.838757514953613, -0.7784371972084045, 7.106622695922852, -3.4796640872955322, 1.3439431190490723, -1.7168320417404175, 1.117431640625, -0.41064453125, 0.060546875
230, 3200923909, -6.866086483001709, -0.7639336585998535, 7.075109481811523, -3.1260557174682617, 0.6733899116516113, -1.6849572658538818, 1.114990234375, -0.4091796875, 0.0634765625
231, 3200940576, -6.831743240356445, -0.8670558333396912, 7.103001117706299, -2.6276066303253174, 0.12504759430885315, -1.2566615343093872, 1.116455078125, -0.40966796875, 0.0615234375
232, 3200957243, -6.843549728393555, -0.7857121825218201, 7.104999542236328, -2.456014633178711, 0.426342636346817, -0.9608348608016968, 1.12060546875, -0.412109375, 0.062744140625
233, 3200973910, -6.833773612976074, -0.7644904851913452, 7.1005659103393555, -2.625762701034546, 0.791297972202301, -1.1178791522979736, 1.118896484375, -0.41259765625, 0.063720703125
234, 3200990577, -6.844916343688965, -0.7293979525566101, 7.1112823486328125, -2.896066427230835, 1.0311545133590698, -1.315199375152588, 1.119873046875, -0.4111328125, 0.063720703125
235, 3201007244, -6.876461505889893, -0.7250010967254639, 7.097385406494141, -3.2506237030029297, 1.4307447671890259, -1.6696408987045288, 1.11962890625, -0.41357421875, 0.062255859375
236, 3201023911, -6.915044784545898, -0.6948959827423096, 7.073325157165527, -3.2016518115997314, 1.0926698446273804, -2.1904494762420654, 1.118896484375, -0.41064453125, 0.063720703125
237, 3201040578, -6.904053211212158, -0.7916242480278015, 7.068294048309326, -2.6725313663482666, -0.11062124371528625, -2.2269985675811768, 1.118896484375, -0.41162109375, 0.064208984375
238, 3201057245, -6.913341999053955, -0.7733741998672485, 7.060325622558594, -2.1711630821228027, -1.0077060461044312, -1.9541209936141968, 1.119384765625, -0.4111328125, 0.0673828125
239, 3201073912, -6.893941402435303, -0.8277280330657959, 7.053184986114502, -1.6834585666656494, -2.307819366455078, -1.9072368144989014, 1.12060546875, -0.41357421875, 0.064697265625
240, 3201090579, -6.894617557525635, -0.832172155380249, 6.981463432312012, -1.1284507513046265, -3.8711869716644287, -1.5551198720932007, 1.12109375, -0.412109375, 0.06640625
241, 3201107246, -6.86049222946167, -0.7971375584602356, 6.979629039764404, -1.2406922578811646, -6.265276908874512, -2.015258550643921, 1.11962890625, -0.414306640625, 0.064208984375
242, 3201123913, -6.810142517089844, -0.7883995771408081, 7.113315105438232, -1.2894717454910278, -7.849064826965332, -2.4335272312164307, 1.118896484375, -0.41357421875, 0.063232421875
243, 3201140580, -6.837550163269043, -0.8446414470672607, 7.118638515472412, -1.6326946020126343, -9.03271770477295, -2.8438684940338135, 1.116943359375, -0.412109375, 0.06005859375
244, 3201157247, -6.773280620574951, 0.38276809453964233, 7.341176509857178, -2.229292154312134, -11.463469505310059, -6.4088521003723145, 1.117431640625, -0.41259765625, 0.05908203125
245, 3201173914, -6.625241756439209, -0.14820685982704163, 7.251469135284424, -7.61988639831543, -8.14694595336914, -12.043639183044434, 1.1142578125, -0.41064453125, 0.058349609375
246, 3201190581, -6.588286399841309, -0.7806107997894287, 7.171037197113037, -11.97734260559082, -1.4947329759597778, -12.3277006149292, 1.11376953125, -0.405517578125, 0.056884765625
247, 3201207248, -6.7366623878479, -2.4045164585113525, 6.859505653381348, -7.438276767730713, -0.34546416997909546, -4.454626083374023, 1.11474609375, -0.403076171875, 0.056396484375
248, 3201223915, -6.857025623321533, -1.7416645288467407, 6.831756591796875, 1.5053547620773315, -5.904625415802002, 4.253918170928955, 1.1123046875, -0.405029296875, 0.0556640625
249, 3201240582, -6.736944198608398, -1.3117130994796753, 7.06217622756958, 7.438171863555908, -12.071328163146973, 8.244216918945312, 1.11328125, -0.40966796875, 0.05322265625
250, 3201257249, -6.789498329162598, -0.5790160894393921, 7.32828950881958, 8.695137977600098, -13.629444122314453, 8.408313751220703, 1.11328125, -0.414794921875, 0.0498046875
251, 3201273916, -6.693843841552734, -0.32385489344596863, 7.395498752593994, 5.137288570404053, -10.028221130371094, 4.783756732940674, 1.111328125, -0.415283203125, 0.050048828125
252, 3201290583, -6.7106781005859375, -0.5179100036621094, 7.180237770080566, 1.3654195070266724, -6.393084526062012, 1.1872704029083252, 1.10791015625, -0.416748046875, 0.046630859375
253, 3201307250, -6.778017520904541, -0.8552640676498413, 7.099564552307129, 0.29214489459991455, -6.761574745178223, 0.9281594157218933, 1.106201171875, -0.416259765625, 0.048095703125
254, 3201323917, -6.763833045959473, -0.870008647441864, 7.161419868469238, 0.45109739899635315, -8.420586585998535, 1.6220463514328003, 1.107666015625, -0.415283203125, 0.049560546875
255, 3201340584, -6.654527187347412, -0.9294893741607666, 7.277407169342041, 0.6705982089042664, -8.828264236450195, 1.7426692247390747, 1.104736328125, -0.415283203125, 0.04541015625
256, 3201357251, -6.563131332397461, -0.7589865326881409, 7.391565799713135, 0.3568723797798157, -6.8942437171936035, 2.435499906539917, 1.104736328125, -0.41748046875, 0.042724609375
257, 3201373918, -6.682445526123047, -0.8212798237800598, 7.330563068389893, -0.33063435554504395, -4.637845516204834, 3.1599862575531006, 1.103271484375, -0.4189453125, 0.04345703125
258, 3201390585, -6.703717231750488, -1.0776207447052002, 7.339967727661133, 0.6869648694992065, -4.286324977874756, 6.025216579437256, 1.102783203125, -0.42041015625, 0.041259765625
259, 3201407252, -6.679454326629639, -0.9587011337280273, 7.4582672119140625, 1.6780869960784912, -3.0472464561462402, 9.44330883026123, 1.102783203125, -0.424072265625, 0.042236328125
260, 3201423919, -6.769491672515869, -1.03117036819458, 7.281049728393555, 2.909457206726074, -2.0507845878601074, 12.722393035888672, 1.102294921875, -0.42822265625, 0.044921875
261, 3201440586, -6.860016822814941, -0.38698554039001465, 7.070510387420654, 3.2241601943969727, -5.37614631652832, 12.18057918548584, 1.100341796875, -0.43115234375, 0.042236328125
262, 3201457253, -6.711250305175781, -0.2798987030982971, 6.982495307922363, 1.8582731485366821, -9.731372833251953, 10.29379653930664, 1.1025390625, -0.435791015625, 0.04296875
263, 3201473920, -6.310337543487549, -0.1791028529405594, 7.563471794128418, -1.713438630104065, -4.679966449737549, 7.90883731842041, 1.10107421875, -0.436279296875, 0.040771484375
264, 3201490587, -6.226621627807617, 0.3717736601829529, 7.655651092529297, -5.87994909286499, 8.190824508666992, 5.842304706573486, 1.1025390625, -0.438232421875, 0.0439453125
265, 3201507254, -6.37026834487915, 0.5937469005584717, 7.533164978027344, -10.633216857910156, 18.535776138305664, -0.5781691670417786, 1.10400390625, -0.438232421875, 0.049072265625
266, 3201523921, -6.483642578125, 0.40698862075805664, 7.523002624511719, -14.783968925476074, 25.628694534301758, -8.67478084564209, 1.109619140625, -0.436767578125, 0.056884765625
267, 3201540588, -6.796506404876709, -0.5061471462249756, 7.3240766525268555, -17.291954040527344, 31.937122344970703, -12.44062614440918, 1.112060546875, -0.43017578125, 0.063720703125
268, 3201557255, -7.072705268859863, -0.8519377112388611, 7.001591205596924, -14.813985824584961, 30.545955657958984, -8.595171928405762, 1.1171875, -0.426513671875, 0.06982421875
269, 3201573922, -7.177178382873535, -1.4062186479568481, 6.729004859924316, -7.323579788208008, 20.58241844177246, 0.912601113319397, 1.120849609375, -0.427490234375, 0.0751953125
270, 3201590589, -7.233091354370117, -0.45462754368782043, 6.763299465179443, -0.5148026943206787, 8.17931079864502, 6.783584117889404, 1.119384765625, -0.428466796875, 0.080322265625
271, 3201607256, -7.2907280921936035, 0.08898436278104782, 7.003500938415527, 1.9317162036895752, -2.774188280105591, 3.0541160106658936, 1.121826171875, -0.431640625, 0.080810546875
272, 3201623923, -7.231113910675049, 0.1974456012248993, 6.960939407348633, 0.7921948432922363, -11.99964714050293, -4.581358909606934, 1.118408203125, -0.4306640625, 0.07763671875
273, 3201640590, -7.0169291496276855, -0.4061354398727417, 7.072540283203125, -1.1153963804244995, -17.847213745117188, -10.942211151123047, 1.117919921875, -0.4306640625, 0.071533203125
274, 3201657257, -6.769643783569336, -0.7747172117233276, 7.148039817810059, -2.7993826866149902, -16.435619354248047, -12.725164413452148, 1.11669921875, -0.427490234375, 0.065185546875
275, 3201673924, -6.664272785186768, -0.5219788551330566, 7.354651927947998, -6.58652925491333, -7.323061466217041, -12.395712852478027, 1.11474609375, -0.425048828125, 0.066162109375
276, 3201690591, -6.645017147064209, 0.017024217173457146, 7.357698440551758, -10.589249610900879, 2.4061942100524902, -13.993233680725098, 1.114990234375, -0.418701171875, 0.064697265625
277, 3201707258, -6.75142765045166, 0.33957669138908386, 7.316766738891602, -17.191551208496094, 11.678618431091309, -20.387859344482422, 1.11865234375, -0.417236328125, 0.06689453125
278, 3201723925, -6.927381992340088, -1.2420849800109863, 6.959846496582031, -17.74872398376465, 12.921181678771973, -21.349061965942383, 1.116943359375, -0.4091796875, 0.0703125
279, 3201740592, -6.9835920333862305, -1.9890743494033813, 6.71936559677124, -12.373578071594238, 5.803110599517822, -15.9670991897583, 1.119384765625, -0.406005859375, 0.073974609375
280, 3201757259, -6.91119384765625, -1.6473894119262695, 7.09295129776001, -7.192625522613525, 2.3112332820892334, -8.54854965209961, 1.118408203125, -0.4013671875, 0.0732421875
281, 3201773926, -6.946120262145996, -0.8494933843612671, 6.971728324890137, -6.73226261138916, 4.12492036819458, -6.188261032104492, 1.122802734375, -0.39990234375, 0.076416015625
282, 3201790593, -6.8789801597595215, -0.6927681565284729, 6.998147010803223, -9.581218719482422, 4.591303825378418, -9.565261840820312, 1.121826171875, -0.397705078125, 0.077880859375
283, 3201807260, -6.9150896072387695, -0.8227185606956482, 7.00944185256958, -12.215389251708984, 6.529011249542236, -11.91674518585205, 1.124267578125, -0.396728515625, 0.08154296875
284, 3201823927, -6.934908390045166, -1.3825751543045044, 6.878791332244873, -10.564645767211914, 5.823635101318359, -9.804267883300781, 1.123779296875, -0.396728515625, 0.08056640625
285, 3201840594, -7.015793323516846, -1.3721411228179932, 6.887912273406982, -6.07357931137085, 2.7005972862243652, -5.033229827880859, 1.125244140625, -0.393798828125, 0.08056640625
286, 3201857261, -6.98839807510376, -1.1683845520019531, 6.921182155609131, -4.141087055206299, 1.2244088649749756, -2.7753796577453613, 1.1259765625, -0.395263671875, 0.0791015625
287, 3201873928, -6.991153240203857, -0.99348384141922, 6.9846320152282715, -3.8912863731384277, 0.3836974501609802, -3.0612170696258545, 1.12646484375, -0.396728515625, 0.08056640625
288, 3201890595, -6.963364601135254, -1.0410107374191284, 6.918992519378662, -3.993878126144409, 0.6599176526069641, -3.2837021350860596, 1.12646484375, -0.396240234375, 0.081298828125
289, 3201907262, -6.98989725112915, -0.7684072256088257, 6.909577369689941, -5.015953063964844, 1.0601418018341064, -3.9395408630371094, 1.12744140625, -0.395751953125, 0.081787109375
290, 3201923929, -7.057482719421387, -1.2408534288406372, 6.752060890197754, -4.316149711608887, -0.26740941405296326, -3.0547242164611816, 1.12548828125, -0.396728515625, 0.081787109375
291, 3201940596, -7.069406509399414, -0.9345282316207886, 6.936994552612305, -3.163360357284546, -3.6877548694610596, -2.9316294193267822, 1.12646484375, -0.394775390625, 0.0810546875
292, 3201957263, -7.105829238891602, -1.094018578529358, 6.992773532867432, -2.7927310466766357, -3.699455976486206, -3.2740159034729004, 1.124267578125, -0.394287109375, 0.0810546875
293, 3201973930, -7.093868732452393, -1.1479034423828125, 6.946731090545654, -1.8186684846878052, -4.3331828117370605, -2.7688615322113037, 1.12646484375, -0.395263671875, 0.07958984375
294, 3201990597, -6.95192813873291, -1.146447777748108, 6.9141716957092285, -0.5031743049621582, -5.4469122886657715, -1.6900925636291504, 1.12548828125, -0.394775390625, 0.0791015625
295, 3202007264, -6.8976850509643555, -1.079017162322998, 6.8900465965271, 0.6312570571899414, -5.374889850616455, -0.18509018421173096, 1.125, -0.395263671875, 0.07763671875
296, 3202023931, -6.91154146194458, -0.792933464050293, 7.010231018066406, 0.9007025957107544, -5.61721134185791, -0.5494820475578308, 1.1259765625, -0.397705078125, 0.0791015625
297, 3202040598, -6.957099437713623, -0.8799756169319153, 6.9910359382629395, 0.34882575273513794, -4.076401710510254, -1.5372484922409058, 1.123779296875, -0.396728515625, 0.074951171875
298, 3202057265, -6.945259094238281, -1.0127582550048828, 6.987186431884766, 0.4265346825122833, -3.8994059562683105, -1.3315273523330688, 1.123291015625, -0.397216796875, 0.074951171875
299, 3202073932, -6.985715866088867, -0.9112240076065063, 7.0060882568359375, 0.6820470690727234, -3.758280038833618, -1.0682930946350098, 1.124267578125, -0.397705078125, 0.073974609375
300, 3202090599, -7.021406650543213, -1.0523273944854736, 6.908548831939697, 0.8568664789199829, -4.216580390930176, -0.935004472732544, 1.125, -0.397705078125, 0.072509765625
301, 3202107266, -6.920503616333008, -1.0534828901290894, 6.934665679931641, 1.666483998298645, -5.3855061531066895, -0.8285069465637207, 1.1240234375, -0.3994140625, 0.072998046875
302, 3202123933, -6.875133037567139, -1.0100785493850708, 6.974256992340088, 2.231717824935913, -5.827836990356445, -0.21558213233947754, 1.123046875, -0.40234375, 0.074951171875
303, 3202140600, -6.848647594451904, -1.0745630264282227, 6.953580379486084, 3.139688491821289, -6.953964710235596, 0.5468760132789612, 1.121826171875, -0.4033203125, 0.0703125
304, 3202157267, -6.896603107452393, -0.8937757015228271, 6.961985111236572, 3.5336759090423584, -7.594780445098877, 0.6211400032043457, 1.12353515625, -0.40234375, 0.06787109375
305, 3202173934, -6.874355792999268, -0.866436243057251, 7.018723487854004, 2.5275063514709473, -7.522426605224609, -0.3009236752986908, 1.12255859375, -0.405517578125, 0.065673828125
306, 3202190601, -6.870258808135986, -0.805188775062561, 7.051267623901367, 1.5477372407913208, -7.271306037902832, -1.3060046434402466, 1.119384765625, -0.406982421875, 0.065673828125
307, 3202207268, -6.8652520179748535, -0.9135177731513977, 7.099368095397949, 1.075278878211975, -5.999544620513916, -1.2909057140350342, 1.120361328125, -0.407470703125, 0.064697265625
308, 3202223935, -6.893753528594971, -1.0699762105941772, 7.082896709442139, 1.5468534231185913, -5.400975704193115, 0.013433861546218395, 1.119873046875, -0.40869140625, 0.063232421875
309, 3202240602, -6.8800578117370605, -0.923719048500061, 7.085052967071533, 1.373141884803772, -5.042334079742432, 0.7791319489479065, 1.117919921875, -0.4091796875, 0.06298828125
310, 3202257269, -6.836635589599609, -0.8667659759521484, 7.091898441314697, 0.5616416931152344, -4.98401403427124, 0.47900235652923584, 1.119384765625, -0.40966796875, 0.0625
311, 3202273936, -6.720980644226074, -0.7814306616783142, 7.1513776779174805, -0.26164647936820984, -4.446928024291992, -0.39743223786354065, 1.119873046875, -0.4111328125, 0.060546875
312, 3202290603, -6.813522815704346, -0.7384203672409058, 7.083559036254883, -1.1538904905319214, -2.9235103130340576, -1.0114198923110962, 1.119140625, -0.413818359375, 0.0615234375
313, 3202307270, -6.830942153930664, -0.7210833430290222, 7.140252113342285, -1.9879298210144043, -1.6584608554840088, -1.604136347770691, 1.117919921875, -0.412109375, 0.05859375
314, 3202323937, -6.865655422210693, -0.7847682237625122, 7.10191011428833, -2.4010369777679443, -0.7101889252662659, -1.9839597940444946, 1.12060546875, -0.41357421875, 0.060546875
315, 3202340604, -6.847274303436279, -0.8595390915870667, 7.077137470245361, -2.423191785812378, -1.2481964826583862, -2.1073875427246094, 1.119873046875, -0.41162109375, 0.0615234375
316, 3202357271, -6.831317901611328, -0.8313924670219421, 7.093294620513916, -2.0401666164398193, -1.803467035293579, -1.7598999738693237, 1.118408203125, -0.41259765625, 0.0615234375
317, 3202373938, -6.849133014678955, -0.6847101449966431, 7.084319591522217, -2.2787365913391113, -1.8869644403457642, -2.2356817722320557, 1.1201171875, -0.41162109375, 0.062744140625
318, 3202390605, -6.802052021026611, -0.9722368717193604, 7.109628677368164, -2.1615068912506104, -1.842872142791748, -2.083298444747925, 1.116943359375, -0.41162109375, 0.06005859375
319, 3202407272, -6.792466163635254, -0.9263102412223816, 7.0993266105651855, -1.9657363891601562, -1.3413370847702026, -1.3775790929794312, 1.118408203125, -0.4130859375, 0.06103515625
320, 3202423939, -6.816892623901367, -0.7671858072280884, 7.095907211303711, -1.6942671537399292, -0.6812210083007812, -1.1774543523788452, 1.117431640625, -0.41259765625, 0.063232421875
321, 3202440606, -6.835753440856934, -0.6357763409614563, 7.087001800537109, -2.2978947162628174, -0.0830235630273819, -2.087998628616333, 1.117431640625, -0.41357421875, 0.0625
322, 3202457273, -6.846878528594971, -0.7220314741134644, 7.0821852684021, -2.790388345718384, -0.26860037446022034, -2.9610068798065186, 1.118896484375, -0.41064453125, 0.0625
323, 3202473940, -6.88888692855835, -0.9712950587272644, 7.064077854156494, -2.479809045791626, -0.9295233488082886, -2.6764121055603027, 1.119140625, -0.4130859375, 0.06201171875
324, 3202490607, -6.876211166381836, -0.877841055393219, 7.060031414031982, -1.9108355045318604, -1.9726901054382324, -1.8073986768722534, 1.118896484375, -0.412109375, 0.06201171875
325, 3202507274, -6.870602607727051, -0.8222053647041321, 7.091158390045166, -1.7735130786895752, -2.291747570037842, -1.6213093996047974, 1.118408203125, -0.41357421875, 0.0615234375
326, 3202523941, -6.856572151184082, -0.7577971816062927, 7.073817253112793, -1.7352988719940186, -2.703612804412842, -1.9073266983032227, 1.117919921875, -0.412109375, 0.0625
327, 3202540608, -6.815977573394775, -0.8147387504577637, 7.099215507507324, -1.7991132736206055, -2.840986728668213, -2.1921143531799316, 1.11962890625, -0.412109375, 0.060546875
328, 3202557275, -6.831543445587158, -0.7978138327598572, 7.083896636962891, -2.0501224994659424, -2.2177348136901855, -2.1182737350463867, 1.11962890625, -0.413818359375, 0.062255859375
329, 3202573942, -6.885632514953613, -0.7629494071006775, 7.114030838012695, -2.340104818344116, -2.023723840713501, -2.5745890140533447, 1.117919921875, -0.41259765625, 0.06103515625
330, 3202590609, -6.8878560066223145, -0.8389520049095154, 7.097477436065674, -2.3563811779022217, -2.294001340866089, -2.7234749794006348, 1.118896484375, -0.412109375, 0.0595703125
331, 3202607276, -6.881601333618164, -0.8244489431381226, 7.060248851776123, -2.0702104568481445, -3.0023210048675537, -2.658790349960327, 1.116455078125, -0.413330078125, 0.06005859375
332, 3202623943, -6.838058948516846, -0.8359606862068176, 7.072511672973633, -1.7110565900802612, -3.9104959964752197, -2.6628246307373047, 1.116943359375, -0.412109375, 0.0595703125
333, 3202640610, -6.808720588684082, -0.8158530592918396, 7.117486000061035, -1.6201953887939453, -3.9155540466308594, -2.4160585403442383, 1.117919921875, -0.41357421875, 0.05810546875
334, 3202657277, -6.798186302185059, -0.8294473886489868, 7.138570308685303, -1.8165167570114136, -3.3099546432495117, -2.1784753799438477, 1.118408203125, -0.41162109375, 0.05908203125
335, 3202673944, -6.8277411460876465, -0.7921121120452881, 7.132382869720459, -2.1521716117858887, -2.5504233837127686, -2.2488722801208496, 1.118408203125, -0.4130859375, 0.057861328125
336, 3202690611, -6.8244194984436035, -0.7913746237754822, 7.130234718322754, -2.5483992099761963, -2.036388874053955, -2.742441177368164, 1.118408203125, -0.41357421875, 0.0576171875
337, 3202707278, -6.827008247375488, -0.7629929184913635, 7.121682167053223, -2.728482723236084, -1.805631399154663, -3.047245502471924, 1.115478515625, -0.413330078125, 0.05908203125
338, 3202723945, -6.8010945320129395, -0.7765811085700989, 7.125840663909912, -2.91418719291687, -1.6071200370788574, -3.5841643810272217, 1.118408203125, -0.4111328125, 0.05908203125
339, 3202740612, -6.756824493408203, -0.8029642701148987, 7.134920120239258, -3.1766793727874756, -0.880398154258728, -3.8368725776672363, 1.116943359375, -0.41259765625, 0.060546875
340, 3202757279, -6.791308879852295, -0.796825647354126, 7.113290309906006, -3.822042465209961, 0.603877067565918, -4.078285217285156, 1.116943359375, -0.4091796875, 0.058349609375
341, 3202773946, -6.797195911407471, -0.7953835725784302, 7.103783130645752, -4.0436177253723145, 1.673770785331726, -4.367823123931885, 1.116943359375, -0.4111328125, 0.06005859375
342, 3202790613, -6.8449320793151855, -0.8495743274688721, 7.118536472320557, -4.049419403076172, 2.1197524070739746, -4.293649673461914, 1.118408203125, -0.40966796875, 0.0625
343, 3202807280, -6.8330488204956055, -0.8846859931945801, 7.127607345581055, -3.8901593685150146, 1.812495470046997, -3.982391357421875, 1.116943359375, -0.40869140625, 0.06005859375
344, 3202823947, -6.850574493408203, -0.8808719515800476, 7.128064155578613, -3.7699079513549805, 1.5929114818572998, -3.545668601989746, 1.117919921875, -0.407470703125, 0.06201171875
345, 3202840614, -6.888792514801025, -0.9187527894973755, 7.077264308929443, -3.2854182720184326, 0.8429844975471497, -2.9788854122161865, 1.118408203125, -0.407958984375, 0.063720703125
346, 3202857281, -6.880410671234131, -0.9010725021362305, 7.076211929321289, -2.9323983192443848, 0.24925638735294342, -2.540370464324951, 1.117431640625, -0.406982421875, 0.06201171875
347, 3202873948, -6.889698505401611, -0.8432566523551941, 7.074206829071045, -2.793205976486206, 0.08054553717374802, -2.507739305496216, 1.120361328125, -0.407958984375, 0.063720703125
348, 3202890615, -6.8730082511901855, -0.8273438215255737, 7.0635504722595215, -2.911869764328003, -0.14227858185768127, -2.7692837715148926, 1.119873046875, -0.407470703125, 0.064208984375
349, 3202907282, -6.872133731842041, -0.8293691277503967, 7.0755295753479, -3.1058216094970703, -0.11192748695611954, -3.1058216094970703, 1.121337890625, -0.406982421875, 0.065185546875
350, 3202923949, -6.85698127746582, -0.7643545269966125, 7.0942769050598145, -3.6573400497436523, 0.2264995127916336, -3.7413880825042725, 1.120361328125, -0.405029296875, 0.0625
351, 3202940616, -6.878913879394531, -0.8457415699958801, 7.092263698577881, -4.124003887176514, 0.8779330253601074, -4.182912349700928, 1.117431640625, -0.406005859375, 0.06396484375
352, 3202957283, -6.879363059997559, -0.8965836763381958, 7.0503830909729, -4.203646183013916, 0.9276726841926575, -4.344144344329834, 1.121826171875, -0.405029296875, 0.065185546875
353, 3202973950, -6.893984794616699, -0.9826211929321289, 7.009372711181641, -3.766463041305542, 0.47097915410995483, -3.9296414852142334, 1.121337890625, -0.404541015625, 0.063720703125
354, 3202990617, -6.900705337524414, -0.9832335114479065, 7.016666889190674, -3.2864043712615967, -0.10449982434511185, -3.339179277420044, 1.119873046875, -0.405029296875, 0.065673828125
355, 3203007284, -6.894812107086182, -0.9454421401023865, 7.028238773345947, -2.8606317043304443, -0.4756535291671753, -2.8371574878692627, 1.121337890625, -0.4033203125, 0.068359375
356, 3203023951, -6.889130115509033, -0.9414505362510681, 7.044826984405518, -2.6486988067626953, -0.5023930668830872, -2.2701942920684814, 1.121337890625, -0.40283203125, 0.066650390625
357, 3203040618, -6.891621112823486, -0.9382491707801819, 7.065968036651611, -2.345892906188965, -0.5082199573516846, -1.845190167427063, 1.120361328125, -0.4033203125, 0.066162109375
358, 3203057285, -6.907263278961182, -0.91753089427948, 7.038661956787109, -2.1529905796051025, -0.5799483060836792, -1.5521295070648193, 1.12255859375, -0.403564453125, 0.065673828125
359, 3203073952, -6.910391807556152, -0.9240833520889282, 7.027011394500732, -1.916521668434143, -0.7871423363685608, -1.3133553266525269, 1.118896484375, -0.404541015625, 0.067138671875
360, 3203090619, -6.913836479187012, -0.9274258613586426, 7.038461685180664, -1.5472248792648315, -1.2577372789382935, -0.7114439606666565, 1.122314453125, -0.403564453125, 0.066650390625
361, 3203107286, -6.910861492156982, -0.9246088862419128, 7.0248589515686035, -1.1711407899856567, -1.6511740684509277, -0.6109909415245056, 1.120849609375, -0.404541015625, 0.067626953125
362, 3203123953, -6.885021686553955, -0.8907009363174438, 7.0490031242370605, -1.1306214332580566, -1.986969232559204, -0.35982003808021545, 1.120361328125, -0.405517578125, 0.067626953125
363, 3203140620, -6.886760234832764, -0.87436842918396, 7.0316481590271, -1.1205041408538818, -1.6482410430908203, -0.2923048734664917, 1.12255859375, -0.406005859375, 0.065185546875
364, 3203157287, -6.928341388702393, -0.8416337370872498, 7.047922611236572, -1.230718731880188, -1.5322389602661133, -0.5399985313415527, 1.12255859375, -0.407470703125, 0.06689453125
365, 3203173954, -6.893280982971191, -0.867637574672699, 7.033129692077637, -1.4423280954360962, -1.450831413269043, -0.7857464551925659, 1.120361328125, -0.404052734375, 0.066650390625
366, 3203190621, -6.902001857757568, -0.8398248553276062, 7.0494513511657715, -1.5959144830703735, -1.2836703062057495, -1.017067551612854, 1.123046875, -0.407470703125, 0.06640625
367, 3203207288, -6.906382083892822, -0.838873565196991, 7.049950122833252, -1.8527330160140991, -0.9895722270011902, -1.1273045539855957, 1.12255859375, -0.406982421875, 0.065673828125
368, 3203223955, -6.929154872894287, -0.8304485082626343, 7.016454219818115, -1.9479355812072754, -0.756855309009552, -1.2913410663604736, 1.12060546875, -0.40966796875, 0.065673828125
369, 3203240622, -6.916936874389648, -0.8610138893127441, 7.0256218910217285, -2.0237746238708496, -0.9306374192237854, -1.3095515966415405, 1.123046875, -0.4091796875, 0.0703125
370, 3203257289, -6.915277481079102, -0.8848822116851807, 7.02255916595459, -1.7008498907089233, -1.2467750310897827, -1.0595589876174927, 1.12255859375, -0.407470703125, 0.0673828125
371, 3203273956, -6.9091477394104, -0.8552423119544983, 7.021575450897217, -1.5142228603363037, -1.6043411493301392, -0.9258863925933838, 1.1220703125, -0.40869140625, 0.0673828125
372, 3203290623, -6.902656555175781, -0.8225836753845215, 7.026286602020264, -1.655950665473938, -1.7154872417449951, -1.0434101819992065, 1.12158203125, -0.4091796875, 0.068359375
373, 3203307290, -6.928712844848633, -0.7535340785980225, 7.050895690917969, -1.9078388214111328, -1.786012053489685, -1.5560612678527832, 1.1201171875, -0.41015625, 0.07080078125
374, 3203323957, -6.923885345458984, -0.7908473610877991, 7.04680061340332, -2.325812339782715, -1.7604378461837769, -2.2195708751678467, 1.12158203125, -0.40869140625, 0.066650390625
375, 3203340624, -6.913290023803711, -0.812812328338623, 7.025998115539551, -2.403444528579712, -1.8337284326553345, -2.477196216583252, 1.123046875, -0.41064453125, 0.06787109375
376, 3203357291, -6.916945934295654, -0.8674601912498474, 7.03311824798584, -2.3056299686431885, -2.0312280654907227, -2.497213125228882, 1.12158203125, -0.41162109375, 0.06787109375
377, 3203373958, -6.916429042816162, -0.8378392457962036, 7.033387184143066, -2.367804765701294, -2.0955545902252197, -2.4117178916931152, 1.12109375, -0.41064453125, 0.06689453125
378, 3203390625, -6.900136470794678, -0.8613557815551758, 7.037595748901367, -2.1871325969696045, -2.168883800506592, -2.242020606994629, 1.12060546875, -0.40966796875, 0.06787109375
379, 3203407292, -6.914089202880859, -0.8177732825279236, 7.027631759643555, -2.056955575942993, -2.1710731983184814, -2.016052007675171, 1.12255859375, -0.412109375, 0.0673828125
380, 3203423959, -6.906512260437012, -0.829613983631134, 7.046948432922363, -2.002017021179199, -2.6578943729400635, -2.1333460807800293, 1.12060546875, -0.40869140625, 0.067138671875
381, 3203440626, -6.900329113006592, -0.8457804322242737, 7.0478129386901855, -1.9341557025909424, -2.5096986293792725, -2.0365939140319824, 1.1201171875, -0.40966796875, 0.067138671875
382, 3203457293, -6.908631801605225, -0.8277834057807922, 7.0494818687438965, -1.9296735525131226, -2.403073310852051, -2.0415115356445312, 1.12158203125, -0.40966796875, 0.065673828125
383, 3203473960, -6.88681173324585, -0.8183116912841797, 7.065253257751465, -1.9846514463424683, -2.5697736740112305, -2.0005571842193604, 1.12060546875, -0.40966796875, 0.0673828125
384, 3203490627, -6.885164737701416, -0.8473060131072998, 7.062494277954102, -1.8893721103668213, -2.491116762161255, -2.002887725830078, 1.12060546875, -0.41015625, 0.066650390625
385, 3203507294, -6.901815414428711, -0.8203104138374329, 7.0550713539123535, -1.840464472770691, -2.3624255657196045, -1.8427824974060059, 1.1220703125, -0.41162109375, 0.065673828125
386, 3203523961, -6.894847393035889, -0.8106046319007874, 7.0711669921875, -1.7302145957946777, -2.4039437770843506, -1.8381849527359009, 1.12158203125, -0.41015625, 0.065673828125
387, 3203540628, -6.889019012451172, -0.8313039541244507, 7.055792808532715, -1.6515707969665527, -2.429377317428589, -1.7854098081588745, 1.1220703125, -0.412109375, 0.065185546875
388, 3203557295, -6.898564338684082, -0.7906659841537476, 7.0653510093688965, -1.6181590557098389, -2.143833875656128, -1.7432386875152588, 1.12158203125, -0.4111328125, 0.064697265625
389, 3203573962, -6.885000705718994, -0.8477539420127869, 7.0522871017456055, -1.6480618715286255, -2.0745773315429688, -1.8300529718399048, 1.1201171875, -0.41162109375, 0.064208984375
390, 3203590629, -6.881247043609619, -0.8444562554359436, 7.049530029296875, -1.515401005744934, -2.243288040161133, -1.6031501293182373, 1.12060546875, -0.41015625, 0.064697265625
391, 3203607296, -6.8829193115234375, -0.8044987320899963, 7.068874835968018, -1.5380553007125854, -2.2839865684509277, -1.6935756206512451, 1.12109375, -0.41162109375, 0.065185546875
392, 3203623963, -6.8921074867248535, -0.7882236242294312, 7.063691139221191, -1.6699095964431763, -2.526731252670288, -1.959883689880371, 1.12060546875, -0.4111328125, 0.064208984375
393, 3203640630, -6.896762371063232, -0.7767881751060486, 7.084281921386719, -1.853245496749878, -2.7192366123199463, -2.388230800628662, 1.119140625, -0.4130859375, 0.062744140625
394, 3203657297, -6.891584396362305, -0.7885860800743103, 7.075215816497803, -1.9275991916656494, -2.826425552368164, -2.708683967590332, 1.12060546875, -0.412109375, 0.061767578125
395, 3203673964, -6.874996185302734, -0.8335280418395996, 7.045436382293701, -1.9600507020950317, -3.0176119804382324, -2.9123306274414062, 1.11962890625, -0.41162109375, 0.063232421875
396, 3203690631, -6.858803749084473, -0.8545336127281189, 7.063094615936279, -1.8295024633407593, -3.1766538619995117, -2.846647024154663, 1.11962890625, -0.41357421875, 0.062744140625
397, 3203707298, -6.850853443145752, -0.8570368885993958, 7.063365459442139, -1.57559072971344, -3.102466106414795, -2.5265135765075684, 1.11962890625, -0.41162109375, 0.063232421875
398, 3203723965, -6.863775730133057, -0.7918307781219482, 7.057793617248535, -1.7172422409057617, -3.1814050674438477, -2.707019329071045, 1.119873046875, -0.41162109375, 0.06103515625
399, 3203740632, -6.852609634399414, -0.8329097628593445, 7.078506946563721, -1.7589010000228882, -3.1243526935577393, -2.784228563308716, 1.117919921875, -0.4130859375, 0.060546875
400, 3203757299, -6.844592571258545, -0.7731263041496277, 7.1146321296691895, -1.978513479232788, -2.8954830169677734, -3.039520263671875, 1.11962890625, -0.412109375, 0.0595703125
401, 3203773966, -6.852458953857422, -0.8040879368782043, 7.104755878448486, -2.317373275756836, -2.5119144916534424, -3.0609614849090576, 1.12060546875, -0.41162109375, 0.06103515625
402, 3203790633, -6.825425624847412, -0.8233437538146973, 7.098060131072998, -2.4381113052368164, -2.2325053215026855, -2.9266223907470703, 1.11962890625, -0.412109375, 0.062744140625
403, 3203807300, -6.834451198577881, -0.8492850661277771, 7.100862979888916, -2.3996026515960693, -2.0898938179016113, -2.788236618041992, 1.119384765625, -0.40966796875, 0.0595703125
404, 3203823967, -6.8495635986328125, -0.8461456298828125, 7.083227157592773, -2.4755823612213135, -1.9593843221664429, -2.609344959259033, 1.117431640625, -0.41064453125, 0.0615234375
405, 3203840634, -6.838625907897949, -0.8153968453407288, 7.099040508270264, -2.428724765777588, -1.9230786561965942, -2.4662728309631348, 1.118408203125, -0.412109375, 0.05908203125
406, 3203857301, -6.843413829803467, -0.80179762840271, 7.095090389251709, -2.5002095699310303, -1.736810326576233, -2.6105878353118896, 1.119384765625, -0.40966796875, 0.06103515625
407, 3203873968, -6.833361625671387, -0.8122159838676453, 7.085559844970703, -2.584948778152466, -1.71721613407135, -2.7318503856658936, 1.118408203125, -0.41015625, 0.06005859375
408, 3203890635, -6.856203556060791, -0.8058873414993286, 7.102623462677002, -2.6443064212799072, -1.6855591535568237, -2.830869197845459, 1.118408203125, -0.41015625, 0.06005859375
409, 3203907302, -6.852118015289307, -0.8280279040336609, 7.123989105224609, -2.7182629108428955, -1.5845810174942017, -2.9358043670654297, 1.117919921875, -0.41015625, 0.0595703125
410, 3203923969, -6.840014457702637, -0.8161826133728027, 7.081573009490967, -2.8002235889434814, -1.5649104118347168, -3.0510618686676025, 1.117431640625, -0.41064453125, 0.0595703125
411, 3203940636, -6.859930515289307, -0.8046711087226868, 7.078014850616455, -2.8173840045928955, -1.5693413019180298, -3.0620367527008057, 1.117431640625, -0.40869140625, 0.0615234375
412, 3203957303, -6.853707313537598, -0.8342148661613464, 7.107072830200195, -2.9558849334716797, -1.4118746519088745, -3.230389356613159, 1.118896484375, -0.41015625, 0.0595703125
413, 3203973970, -6.843084812164307, -0.8460928797721863, 7.111940383911133, -2.9968271255493164, -1.4145126342773438, -3.1545374393463135, 1.119384765625, -0.41015625, 0.060546875
414, 3203990637, -6.842152118682861, -0.8513792753219604, 7.0786566734313965, -2.8879599571228027, -1.479722499847412, -3.0088648796081543, 1.117919921875, -0.406982421875, 0.058837890625
415, 3204007304, -6.8599114418029785, -0.8209119439125061, 7.094019412994385, -2.8592355251312256, -1.639520287513733, -2.959329843521118, 1.117431640625, -0.4091796875, 0.0625
416, 3204023971, -6.863029479980469, -0.8316335678100586, 7.092422008514404, -2.9037246704101562, -1.7927868366241455, -3.0289199352264404, 1.118408203125, -0.40869140625, 0.0595703125
417, 3204040638, -6.853759765625, -0.8414214849472046, 7.090102195739746, -2.8520123958587646, -1.8262109756469727, -2.924649953842163, 1.117919921875, -0.407958984375, 0.05908203125
418, 3204057305, -6.847080230712891, -0.860340416431427, 7.105227947235107, -2.7750205993652344, -1.9390608072280884, -2.92684006690979, 1.119873046875, -0.407958984375, 0.0595703125
419, 3204073972, -6.850230693817139, -0.8588360548019409, 7.076184272766113, -2.520930051803589, -2.170074462890625, -2.793180227279663, 1.116943359375, -0.40869140625, 0.05908203125
420, 3204090639, -6.837119102478027, -0.8229669332504272, 7.119232654571533, -2.149545669555664, -2.5577993392944336, -2.5460305213928223, 1.118896484375, -0.405517578125, 0.058837890625
421, 3204107306, -6.822989463806152, -0.8661376237869263, 7.121872901916504, -2.2964351177215576, -2.338388442993164, -2.4025869369506836, 1.117431640625, -0.408203125, 0.0595703125
422, 3204123973, -6.818220138549805, -0.8837369084358215, 7.0902299880981445, -2.4628024101257324, -1.8740559816360474, -2.3296546936035156, 1.116943359375, -0.406982421875, 0.0595703125
423, 3204140640, -6.808597087860107, -0.8864514827728271, 7.0908660888671875, -2.418280839920044, -1.562317132949829, -2.2516701221466064, 1.116943359375, -0.406982421875, 0.057373046875
424, 3204157307, -6.846314907073975, -0.8521273136138916, 7.102452278137207, -2.3305506706237793, -1.4199680089950562, -2.0733606815338135, 1.119873046875, -0.405029296875, 0.05908203125
425, 3204173974, -6.83721923828125, -0.8456592559814453, 7.10375452041626, -2.4353067874908447, -1.2956953048706055, -2.116684913635254, 1.121337890625, -0.406494140625, 0.057861328125
426, 3204190641, -6.853982448577881, -0.8495755791664124, 7.0977702140808105, -2.545325994491577, -1.325764536857605, -2.3590447902679443, 1.120361328125, -0.407958984375, 0.05908203125
427, 3204207308, -6.858485698699951, -0.8615882396697998, 7.105506420135498, -2.5261294841766357, -1.3750563859939575, -2.307448148727417, 1.117431640625, -0.406494140625, 0.0595703125
428, 3204223975, -6.834033012390137, -0.8543326258659363, 7.077869415283203, -2.460150957107544, -1.5975664854049683, -2.2808237075805664, 1.117431640625, -0.407470703125, 0.058349609375
429, 3204240642, -6.832045078277588, -0.8467971682548523, 7.103753089904785, -2.422001361846924, -1.7827337980270386, -2.375706195831299, 1.119873046875, -0.406494140625, 0.05908203125
430, 3204257309, -6.831111907958984, -0.8462510108947754, 7.111868381500244, -2.4366133213043213, -1.7690566778182983, -2.4676685333251953, 1.119873046875, -0.407958984375, 0.05810546875
431, 3204273976, -6.834448337554932, -0.8314929008483887, 7.0972394943237305, -2.55749249458313, -1.5762569904327393, -2.530970335006714, 1.119384765625, -0.407470703125, 0.05908203125
432, 3204290643, -6.83778715133667, -0.8586565256118774, 7.094853401184082, -2.6324098110198975, -1.5914965867996216, -2.6700732707977295, 1.116455078125, -0.405517578125, 0.06005859375
433, 3204307310, -6.837320804595947, -0.8643263578414917, 7.086704730987549, -2.5879971981048584, -1.693499207496643, -2.5904178619384766, 1.1162109375, -0.405517578125, 0.059326171875
434, 3204323977, -6.82325553894043, -0.8712840676307678, 7.107857704162598, -2.528972864151001, -1.7009012699127197, -2.3949925899505615, 1.119873046875, -0.40869140625, 0.0615234375
435, 3204340644, -6.8316121101379395, -0.8647938966751099, 7.094043731689453, -2.472099542617798, -1.6096431016921997, -2.334367513656616, 1.117919921875, -0.407958984375, 0.06005859375
436, 3204357311, -6.84346866607666, -0.8464798331260681, 7.092363357543945, -2.455214500427246, -1.766709327697754, -2.3048765659332275, 1.119873046875, -0.404541015625, 0.05859375
437, 3204373978, -6.8237409591674805, -0.865193247795105, 7.080347061157227, -2.503244400024414, -1.5088697671890259, -2.3929688930511475, 1.117919921875, -0.406005859375, 0.05908203125
438, 3204390645, -6.840245246887207, -0.8471805453300476, 7.100214004516602, -2.683340311050415, -1.400694727897644, -2.469256639480591, 1.118408203125, -0.406982421875, 0.057373046875
439, 3204407312, -6.851770401000977, -0.8743955492973328, 7.097687721252441, -2.8080999851226807, -1.2967454195022583, -2.636174440383911, 1.118408203125, -0.406982421875, 0.058837890625
440, 3204423979, -6.840031623840332, -0.8732771873474121, 7.090738773345947, -2.7918360233306885, -1.3842898607254028, -2.5754852294921875, 1.117919921875, -0.405517578125, 0.058349609375
441, 3204440646, -6.8371357917785645, -0.8615322113037109, 7.088634014129639, -2.6798572540283203, -1.5987577438354492, -2.57417893409729, 1.118408203125, -0.406982421875, 0.058837890625
442, 3204457313, -6.851940631866455, -0.8657946586608887, 7.1041998863220215, -2.9302468299865723, -1.6192734241485596, -2.77719783782959, 1.117919921875, -0.406005859375, 0.06005859375
443, 3204473980, -6.833471775054932, -0.8418152332305908, 7.115929126739502, -3.086521863937378, -1.4952565431594849, -2.919809103012085, 1.117431640625, -0.404052734375, 0.058837890625
444, 3204490647, -6.850280284881592, -0.8869225978851318, 7.094881534576416, -3.0742413997650146, -1.3861722946166992, -2.92044997215271, 1.117919921875, -0.406982421875, 0.058349609375
445, 3204507314, -6.8350749015808105, -0.9186456799507141, 7.102643966674805, -2.679396152496338, -1.5396308898925781, -2.5528182983398438, 1.118408203125, -0.406005859375, 0.06005859375
446, 3204523981, -6.846101760864258, -0.9289109706878662, 7.070642948150635, -2.2606537342071533, -1.8074883222579956, -2.212604284286499, 1.117919921875, -0.404541015625, 0.060546875
447, 3204540648, -6.836497783660889, -0.8891698122024536, 7.094602108001709, -2.0401666164398193, -1.927137851715088, -1.8430641889572144, 1.117919921875, -0.406005859375, 0.055908203125
448, 3204557315, -6.843995094299316, -0.8287519216537476, 7.114353656768799, -1.9348344802856445, -1.8340227603912354, -1.938317894935608, 1.118408203125, -0.406494140625, 0.058349609375
449, 3204573982, -6.847026824951172, -0.8512005805969238, 7.11686372756958, -2.2983169555664062, -1.5547676086425781, -2.0414087772369385, 1.118408203125, -0.407470703125, 0.056884765625
450, 3204590649, -6.844374179840088, -0.8706793785095215, 7.096952438354492, -2.4125497341156006, -1.2955927848815918, -2.160482406616211, 1.119384765625, -0.408203125, 0.05908203125
451, 3204607316, -6.832788467407227, -0.8810580968856812, 7.0872416496276855, -2.306717872619629, -1.433645248413086, -2.056840658187866, 1.116455078125, -0.405517578125, 0.060546875
452, 3204623983, -6.835044860839844, -0.8896452188491821, 7.0826334953308105, -2.1047232151031494, -1.5648845434188843, -1.7792245149612427, 1.117431640625, -0.405517578125, 0.059326171875
453, 3204640650, -6.843606948852539, -0.8967705368995667, 7.098053932189941, -1.8768984079360962, -1.6964442729949951, -1.627712607383728, 1.116455078125, -0.405517578125, 0.058837890625
454, 3204657317, -6.84576940536499, -0.8640739321708679, 7.0859904289245605, -1.7976914644241333, -1.8193598985671997, -1.5294880867004395, 1.117919921875, -0.405029296875, 0.057861328125
455, 3204673984, -6.84136438369751, -0.8494027256965637, 7.1028523445129395, -1.656962513923645, -1.864399790763855, -1.501659870147705, 1.118408203125, -0.407470703125, 0.0595703125
456, 3204690651, -6.848336696624756, -0.8566146492958069, 7.091076374053955, -1.7284473180770874, -1.8833787441253662, -1.5974384546279907, 1.116943359375, -0.406005859375, 0.058837890625
457, 3204707318, -6.833083629608154, -0.8594326376914978, 7.111482620239258, -1.8381593227386475, -1.7754082679748535, -1.5862970352172852, 1.116455078125, -0.405517578125, 0.06005859375
458, 3204723985, -6.826653003692627, -0.863555908203125, 7.111292839050293, -1.8164910078048706, -1.6755571365356445, -1.5316649675369263, 1.115966796875, -0.407470703125, 0.059326171875
459, 3204740652, -6.8255391120910645, -0.8577679395675659, 7.081592559814453, -1.7576972246170044, -1.7929402589797974, -1.43948495388031, 1.119873046875, -0.406982421875, 0.0595703125
460, 3204757319, -6.854723930358887, -0.850906252861023, 7.1258063316345215, -1.695163607597351, -1.690988540649414, -1.3663476705551147, 1.117919921875, -0.407958984375, 0.056396484375
461, 3204773986, -6.841480255126953, -0.8280659914016724, 7.100893497467041, -1.7385133504867554, -1.7821190357208252, -1.40411376953125, 1.117431640625, -0.407470703125, 0.0595703125
462, 3204790653, -6.84813928604126, -0.8274890780448914, 7.105985164642334, -1.8852739334106445, -1.7802748680114746, -1.6658884286880493, 1.117919921875, -0.408203125, 0.06005859375
463, 3204807320, -6.835650444030762, -0.8272428512573242, 7.10885763168335, -2.0776002407073975, -1.6321437358856201, -1.8631832599639893, 1.118896484375, -0.407470703125, 0.056396484375
464, 3204823987, -6.8253350257873535, -0.8526226878166199, 7.085752964019775, -2.238614082336426, -1.5006608963012695, -1.9913491010665894, 1.118896484375, -0.407958984375, 0.0595703125
465, 3204840654, -6.836956024169922, -0.8470446467399597, 7.104770183563232, -2.3035037517547607, -1.2658179998397827, -1.9402644634246826, 1.118408203125, -0.408203125, 0.057861328125
466, 3204857321, -6.842840671539307, -0.8268309235572815, 7.097632884979248, -2.2534048557281494, -1.35911226272583, -1.9206191301345825, 1.117919921875, -0.406982421875, 0.058837890625
467, 3204873988, -6.8452911376953125, -0.8317831158638, 7.087817192077637, -2.2952308654785156, -1.2593252658843994, -1.7918386459350586, 1.117431640625, -0.408203125, 0.058837890625
468, 3204890655, -6.843636512756348, -0.8255720138549805, 7.115440845489502, -2.347506284713745, -1.4299057722091675, -1.8869004249572754, 1.116455078125, -0.408203125, 0.058349609375
469, 3204907322, -6.840810298919678, -0.8420706391334534, 7.113510608673096, -2.324096441268921, -1.435489296913147, -2.0304207801818848, 1.1162109375, -0.406005859375, 0.058837890625
470, 3204923989, -6.837638854980469, -0.8317573070526123, 7.1098480224609375, -2.3238275051116943, -1.4236435890197754, -2.009751796722412, 1.117431640625, -0.41064453125, 0.05859375
471, 3204940656, -6.862167835235596, -0.8276973962783813, 7.119319438934326, -2.37621808052063, -1.370497226715088, -2.059427261352539, 1.118408203125, -0.408203125, 0.06005859375
472, 3204957323, -6.854139804840088, -0.8471169471740723, 7.077620983123779, -2.2558698654174805, -1.429538369178772, -2.0490596294403076, 1.116455078125, -0.40869140625, 0.0517578125
473, 3204973990, -6.847696781158447, -0.8236119747161865, 7.097994327545166, -2.179025888442993, -1.5585967302322388, -1.9280343055725098, 1.118896484375, -0.408203125, 0.05859375
474, 3204990657, -6.836600303649902, -0.8334117531776428, 7.102970600128174, -2.258194923400879, -1.4656354188919067, -2.0159754753112793, 1.116943359375, -0.407958984375, 0.057861328125
475, 3205007324, -6.847512722015381, -0.8371032476425171, 7.113036632537842, -2.337722063064575, -1.520561933517456, -2.040358781814575, 1.117919921875, -0.41064453125, 0.05908203125
476, 3205023991, -6.848403453826904, -0.8250423669815063, 7.057284832000732, -2.3628995418548584, -1.5561891794204712, -2.1314632892608643, 1.117431640625, -0.40869140625, 0.058349609375
477, 3205040658, -6.849455833435059, -0.8240199089050293, 7.091267108917236, -2.345726490020752, -1.5993338823318481, -2.155449867248535, 1.117431640625, -0.407958984375, 0.058349609375
478, 3205057325, -6.8383355140686035, -0.8249263167381287, 7.093033313751221, -2.3452398777008057, -1.6535816192626953, -2.307781457901001, 1.119873046875, -0.40869140625, 0.055908203125
479, 3205073992, -6.840487957000732, -0.823297917842865, 7.089859962463379, -2.4153926372528076, -1.6306580305099487, -2.3887813091278076, 1.117919921875, -0.408203125, 0.06005859375
480, 3205090659, -6.838707447052002, -0.8362134099006653, 7.098321437835693, -2.4771838188171387, -1.630876064300537, -2.413267135620117, 1.116943359375, -0.4091796875, 0.05908203125
481, 3205107326, -6.832623481750488, -0.8254305124282837, 7.107868671417236, -2.481832981109619, -1.6428242921829224, -2.4084393978118896, 1.116455078125, -0.4091796875, 0.05908203125
482, 3205123993, -6.83563756942749, -0.840685248374939, 7.105299949645996, -2.4556047916412354, -1.6864811182022095, -2.5413818359375, 1.116943359375, -0.407958984375, 0.0595703125
483, 3205140660, -6.827638626098633, -0.8541678190231323, 7.1001296043396, -2.5865373611450195, -1.5067057609558105, -2.519188404083252, 1.116943359375, -0.408203125, 0.06005859375
484, 3205157327, -6.862594127655029, -0.8324018120765686, 7.102744102478027, -2.683173894882202, -1.4462212324142456, -2.4774398803710938, 1.118896484375, -0.41064453125, 0.056396484375
485, 3205173994, -6.838527202606201, -0.8317240476608276, 7.103376388549805, -2.645817995071411, -1.4023851156234741, -2.5389487743377686, 1.118408203125, -0.407470703125, 0.05908203125
486, 3205190661, -6.841466426849365, -0.8261821269989014, 7.1130218505859375, -2.56778883934021, -1.5889225006103516, -2.477017402648926, 1.116943359375, -0.40869140625, 0.05908203125
487, 3205207328, -6.837947845458984, -0.8342263102531433, 7.097884178161621, -2.5502309799194336, -1.595235824584961, -2.5196750164031982, 1.11572265625, -0.407958984375, 0.0595703125
488, 3205223995, -6.845907688140869, -0.8210956454277039, 7.113196849822998, -2.6038129329681396, -1.4590020179748535, -2.5300228595733643, 1.118896484375, -0.40869140625, 0.0595703125
489, 3205240662, -6.837472915649414, -0.8408406972885132, 7.102161407470703, -2.7750205993652344, -1.435719609260559, -2.720107078552246, 1.118408203125, -0.407470703125, 0.057373046875
490, 3205257329, -6.839751243591309, -0.8543493747711182, 7.089212417602539, -2.824734687805176, -1.3689602613449097, -2.703036069869995, 1.117919921875, -0.407470703125, 0.0595703125
491, 3205273996, -6.8339457511901855, -0.8503078818321228, 7.103689670562744, -2.7905290126800537, -1.2422926425933838, -2.7141904830932617, 1.119873046875, -0.4091796875, 0.05859375
492, 3205290663, -6.831241607666016, -0.8471986055374146, 7.091472625732422, -2.98852801322937, -1.1194671392440796, -2.6952626705169678, 1.117919921875, -0.406005859375, 0.06103515625
493, 3205307330, -6.85071325302124, -0.8474496006965637, 7.10683536529541, -2.810110569000244, -1.189517855644226, -2.62837553024292, 1.118408203125, -0.406494140625, 0.05908203125
494, 3205323997, -6.8511457443237305, -0.8471030592918396, 7.080381870269775, -2.78029727935791, -1.26433265209198, -2.497443437576294, 1.116943359375, -0.408203125, 0.0595703125
495, 3205340664, -6.8476786613464355, -0.8545603156089783, 7.105842113494873, -2.498147964477539, -1.4371672868728638, -2.49741792678833, 1.118896484375, -0.406005859375, 0.058349609375
496, 3205357331, -6.845451354980469, -0.8467490673065186, 7.088597297668457, -2.433744430541992, -1.516592025756836, -2.32761812210083, 1.119384765625, -0.407470703125, 0.058349609375
497, 3205373998, -6.829178810119629, -0.8685042262077332, 7.088413238525391, -2.368316650390625, -1.5829161405563354, -2.275265693664551, 1.119384765625, -0.407958984375, 0.058349609375
498, 3205390665, -6.845287799835205, -0.8473045825958252, 7.10128927230835, -2.3285274505615234, -1.6089515686035156, -2.2162671089172363, 1.117919921875, -0.406982421875, 0.058837890625
499, 3205407332, -6.8289713859558105, -0.8522213101387024, 7.11540412902832, -2.4189276695251465, -1.5386319160461426, -2.306257486343384, 1.116943359375, -0.40869140625, 0.06103515625
500, 3205423999, -6.84918212890625, -0.833806037902832, 7.129263877868652, -2.602532386779785, -1.3916277885437012, -2.4738028049468994, 1.118408203125, -0.407470703125, 0.058349609375
501, 3205440666, -6.8630242347717285, -0.8572604656219482, 7.0929670333862305, -2.7653138637542725, -1.334204077720642, -2.6266465187072754, 1.118896484375, -0.406005859375, 0.058349609375
502, 3205457333, -6.844757080078125, -0.8662768006324768, 7.085357189178467, -2.8610663414001465, -1.3433347940444946, -2.6593024730682373, 1.118896484375, -0.406982421875, 0.05859375
503, 3205474000, -6.844490051269531, -0.8600149750709534, 7.080140113830566, -2.802823305130005, -1.2409863471984863, -2.7857139110565186, 1.120361328125, -0.406494140625, 0.060546875
504, 3205490667, -6.852809906005859, -0.8383761644363403, 7.09652042388916, -2.851576805114746, -1.2307157516479492, -2.8199963569641113, 1.116943359375, -0.407470703125, 0.0595703125
505, 3205507334, -6.858393669128418, -0.8683160543441772, 7.081112861633301, -2.919245719909668, -1.147282361984253, -2.774277925491333, 1.117919921875, -0.408203125, 0.060546875
506, 3205524001, -6.837589740753174, -0.9000415205955505, 7.0814127922058105, -2.83947491645813, -1.3144052028656006, -2.7722928524017334, 1.117919921875, -0.406494140625, 0.0615234375
507, 3205540668, -6.848396301269531, -0.856549084186554, 7.085631370544434, -2.9616730213165283, -1.166299819946289, -2.7756736278533936, 1.118408203125, -0.404052734375, 0.059326171875
508, 3205557335, -6.85622501373291, -0.856629490852356, 7.102575778961182, -3.0692033767700195, -0.9442836046218872, -2.8886959552764893, 1.119873046875, -0.406005859375, 0.05859375
509, 3205574002, -6.850253582000732, -0.885909378528595, 7.101655006408691, -3.033581256866455, -1.150125503540039, -2.846505880355835, 1.118408203125, -0.406982421875, 0.06005859375
510, 3205590669, -6.8587446212768555, -0.8752543330192566, 7.089118480682373, -2.969280242919922, -1.24094820022583, -2.75573468208313, 1.117431640625, -0.404541015625, 0.060546875
511, 3205607336, -6.853578090667725, -0.8842786550521851, 7.079548358917236, -2.8470561504364014, -1.3067854642868042, -2.6860547065734863, 1.116455078125, -0.406494140625, 0.0625
512, 3205624003, -6.858110427856445, -0.8874470591545105, 7.088981628417969, -2.8704280853271484, -1.5354044437408447, -2.726125955581665, 1.118408203125, -0.403564453125, 0.060546875
513, 3205640670, -6.838401794433594, -0.8485121130943298, 7.0981855392456055, -2.9890787601470947, -1.4472455978393555, -2.7725751399993896, 1.116943359375, -0.404541015625, 0.0625
514, 3205657337, -6.8607025146484375, -0.868760883808136, 7.114444732666016, -3.1293978691101074, -1.127342939376831, -2.9068620204925537, 1.117431640625, -0.405517578125, 0.059326171875
515, 3205674004, -6.850986480712891, -0.8996442556381226, 7.101548194885254, -3.1558947563171387, -1.1302244663238525, -2.919156551361084, 1.117919921875, -0.405029296875, 0.0615234375
516, 3205690671, -6.853341102600098, -0.903141438961029, 7.068675518035889, -3.0368337631225586, -1.2332643270492554, -2.8270273208618164, 1.117919921875, -0.40283203125, 0.06201171875
517, 3205707338, -6.852783203125, -0.9016082286834717, 7.082599639892578, -2.612738847732544, -1.529923677444458, -2.5359010696411133, 1.119384765625, -0.403076171875, 0.06103515625
518, 3205724005, -6.831721305847168, -0.9039211273193359, 7.067178249359131, -2.4739179611206055, -1.598924160003662, -2.324404001235962, 1.118896484375, -0.400390625, 0.060546875
519, 3205740672, -6.839670658111572, -0.8756193518638611, 7.074189186096191, -2.520264148712158, -1.5587632656097412, -2.3392975330352783, 1.119384765625, -0.403076171875, 0.058349609375
520, 3205757339, -6.85098123550415, -0.8960618376731873, 7.086878776550293, -2.6507227420806885, -1.3765034675598145, -2.4045591354370117, 1.117919921875, -0.406005859375, 0.060546875
521, 3205774006, -6.858426570892334, -0.8908040523529053, 7.077868461608887, -2.7408154010772705, -1.2013895511627197, -2.4243063926696777, 1.118408203125, -0.4013671875, 0.058837890625
522, 3205790673, -6.850522518157959, -0.8659740686416626, 7.087804317474365, -2.7130513191223145, -1.360598087310791, -2.491283655166626, 1.117431640625, -0.403076171875, 0.0625
523, 3205807340, -6.86594820022583, -0.8779354691505432, 7.08584451675415, -2.773970603942871, -1.3529267311096191, -2.7011022567749023, 1.117431640625, -0.403076171875, 0.0625
524, 3205824007, -6.850801467895508, -0.9202133417129517, 7.073890209197998, -2.7921812534332275, -1.5788178443908691, -2.739598274230957, 1.1171875, -0.40283203125, 0.06103515625
525, 3205840674, -6.858706474304199, -0.9186968803405762, 7.059095859527588, -2.6472771167755127, -1.698185920715332, -2.6082050800323486, 1.117919921875, -0.403076171875, 0.06201171875
526, 3205857341, -6.864700794219971, -0.9090429544448853, 7.089428424835205, -2.5018999576568604, -1.7447755336761475, -2.438572645187378, 1.117919921875, -0.40283203125, 0.06298828125
527, 3205874008, -6.857898712158203, -0.8946632146835327, 7.062146186828613, -2.4824085235595703, -1.7190347909927368, -2.4622769355773926, 1.118408203125, -0.40185546875, 0.0625
528, 3205890675, -6.869655609130859, -0.9217796325683594, 7.081358909606934, -2.590379476547241, -1.7226463556289673, -2.4586148262023926, 1.117919921875, -0.4013671875, 0.06103515625
529, 3205907342, -6.836671829223633, -0.8533874154090881, 7.074395656585693, -3.0569396018981934, -1.4839868545532227, -2.4387643337249756, 1.11767578125, -0.40234375, 0.060546875
530, 3205924009, -6.864465236663818, -0.7773492932319641, 7.124350070953369, -4.296018123626709, -0.29309895634651184, -3.148812770843506, 1.11767578125, -0.40185546875, 0.060546875
531, 3205940676, -6.876882076263428, -0.8698517084121704, 7.091259479522705, -5.347996711730957, 0.6327682733535767, -4.0104241371154785, 1.1171875, -0.40087890625, 0.06103515625
532, 3205957343, -6.879103183746338, -0.9443321824073792, 7.056783676147461, -5.479006290435791, 0.5579280853271484, -4.308185577392578, 1.11767578125, -0.39990234375, 0.0634765625
533, 3205974010, -6.874914169311523, -0.9763176441192627, 7.018042087554932, -4.9629225730896, -0.02707262896001339, -3.979240894317627, 1.119384765625, -0.39794921875, 0.06201171875
534, 3205990677, -6.889658451080322, -0.9737860560417175, 7.066102027893066, -4.9254889488220215, -0.3914773166179657, -3.624363422393799, 1.119873046875, -0.39892578125, 0.06396484375
535, 3206007344, -6.901607990264893, -0.8977962732315063, 7.122926235198975, -7.245283126831055, 1.5369607210159302, -3.924570322036743, 1.11962890625, -0.396728515625, 0.0634765625
536, 3206024011, -6.914914608001709, -0.8257690668106079, 7.109650611877441, -8.913862228393555, 2.059319019317627, -5.2036566734313965, 1.1201171875, -0.395263671875, 0.065673828125
537, 3206040678, -6.909012317657471, -0.9002713561058044, 7.073287487030029, -9.140344619750977, 1.8420403003692627, -5.990032196044922, 1.12060546875, -0.392822265625, 0.06494140625
538, 3206057345, -6.901515007019043, -0.9789678454399109, 7.012114524841309, -8.60779094696045, 1.2393414974212646, -6.225104808807373, 1.121337890625, -0.39111328125, 0.068115234375
539, 3206074012, -6.875504970550537, -1.0900983810424805, 6.96556282043457, -7.509862899780273, 0.2933103144168854, -5.954749584197998, 1.12109375, -0.3916015625, 0.069091796875
540, 3206090679, -6.875958442687988, -1.134088397026062, 6.982685089111328, -6.268914699554443, -0.5401079654693604, -4.934978485107422, 1.12060546875, -0.39111328125, 0.068115234375
541, 3206107346, -6.886335849761963, -1.0908347368240356, 7.002346038818359, -5.38573694229126, -1.10447096824646, -4.135695934295654, 1.12060546875, -0.38916015625, 0.068115234375
542, 3206124013, -6.858216762542725, -1.132935881614685, 6.967374324798584, -4.564375400543213, -1.7078934907913208, -3.464143991470337, 1.1220703125, -0.38818359375, 0.069091796875
543, 3206140680, -6.834984302520752, -1.1542282104492188, 6.9883713722229, -3.177090883255005, -2.3588268756866455, -2.6227240562438965, 1.11962890625, -0.3876953125, 0.067626953125
544, 3206157347, -6.870812892913818, -1.07296621799469, 7.025514602661133, -2.5701446533203125, -2.2634966373443604, -2.298086643218994, 1.122802734375, -0.38916015625, 0.068603515625
545, 3206174014, -6.878965377807617, -1.067395567893982, 7.01677131652832, -2.772279977798462, -1.9222073554992676, -2.3855154514312744, 1.1201171875, -0.38818359375, 0.068115234375
546, 3206190681, -6.874293804168701, -1.08449387550354, 7.018769264221191, -2.6515936851501465, -1.6960091590881348, -2.411653757095337, 1.12109375, -0.387451171875, 0.067626953125
547, 3206207348, -6.890380382537842, -1.091420292854309, 7.054094314575195, -2.773317813873291, -1.2510653734207153, -2.326491355895996, 1.119140625, -0.38818359375, 0.067138671875
548, 3206224015, -6.90341854095459, -1.0610800981521606, 7.0248894691467285, -3.324272632598877, -0.9810688495635986, -2.4525187015533447, 1.12109375, -0.387451171875, 0.06591796875
549, 3206240682, -6.880880355834961, -1.1234594583511353, 6.995467185974121, -3.0175352096557617, -1.192706823348999, -2.262946605682373, 1.1201171875, -0.3896484375, 0.06591796875
550, 3206257349, -6.844180583953857, -1.1142574548721313, 6.986521244049072, -2.6876304149627686, -1.1908754110336304, -2.0294735431671143, 1.123779296875, -0.388671875, 0.069091796875
551, 3206274016, -6.842896938323975, -1.132014274597168, 6.995765686035156, -2.077881336212158, -1.2590305805206299, -1.7359520196914673, 1.12060546875, -0.388671875, 0.068115234375
552, 3206290683, -6.862971305847168, -1.0949450731277466, 7.0099687576293945, -1.7025530338287354, -1.1198896169662476, -1.2212775945663452, 1.122802734375, -0.3876953125, 0.068115234375
553, 3206307350, -6.870892524719238, -1.0235310792922974, 7.043909549713135, -1.6451932191848755, -0.6701561808586121, -1.0095757246017456, 1.12060546875, -0.38818359375, 0.070556640625
554, 3206324017, -6.897097110748291, -1.0231128931045532, 7.0255842208862305, -2.456834316253662, 0.04833757132291794, -1.3830217123031616, 1.12255859375, -0.38818359375, 0.068115234375
555, 3206340684, -6.869690418243408, -1.0989990234375, 6.998416900634766, -2.295999050140381, 0.33107614517211914, -1.3035454750061035, 1.12060546875, -0.387451171875, 0.069091796875
556, 3206357351, -6.888347148895264, -1.034255027770996, 7.002499580383301, -2.14392352104187, 1.2130621671676636, -0.9598358273506165, 1.124267578125, -0.39013671875, 0.0693359375
557, 3206374018, -6.893532752990723, -1.0301119089126587, 6.9623003005981445, -2.311699867248535, 2.0416202545166016, -1.2160269021987915, 1.124267578125, -0.38916015625, 0.07080078125
558, 3206390685, -6.831271171569824, -1.0981427431106567, 6.980726718902588, -1.847059726715088, 2.7881405353546143, -1.0023400783538818, 1.122314453125, -0.390625, 0.07177734375
559, 3206407352, -6.819069862365723, -1.1307625770568848, 6.978311538696289, -1.3823429346084595, 3.808140754699707, -0.8439512252807617, 1.123779296875, -0.390625, 0.0732421875
560, 3206424019, -6.682751655578613, -1.2141532897949219, 7.041441917419434, -1.231958031654358, 5.635376453399658, -0.6670955419540405, 1.124267578125, -0.390625, 0.074462890625
561, 3206440686, -6.605640411376953, -1.1252092123031616, 7.150241374969482, -0.9537276029586792, 10.933854103088379, -0.22043579816818237, 1.126708984375, -0.390625, 0.075927734375
562, 3206457353, -6.435057640075684, -0.9821909666061401, 7.340789794921875, -1.798822283744812, 23.89550018310547, 0.23579739034175873, 1.12890625, -0.39013671875, 0.08056640625
563, 3206474020, -6.213651657104492, -1.1193006038665771, 7.400465965270996, -3.4332926273345947, 45.78491973876953, 0.58909010887146, 1.135986328125, -0.39208984375, 0.09326171875
564, 3206490687, -5.618391513824463, -1.0524441003799438, 8.48163890838623, -9.309062004089355, 80.81478118896484, 1.1094461679458618, 1.142333984375, -0.3935546875, 0.11181640625
565, 3206507354, -6.354480266571045, -2.071942090988159, 9.755922317504883, -6.5389227867126465, 117.35751342773438, 9.34953498840332, 1.151611328125, -0.39501953125, 0.140380859375
566, 3206524021, -8.527864456176758, -1.7394651174545288, 9.978363037109375, -8.803438186645508, 133.03237915039062, 24.991680145263672, 1.166015625, -0.399169921875, 0.174560546875
567, 3206540688, -8.885659217834473, -2.929784059524536, 9.514752388000488, -10.012194633483887, 131.09727478027344, 39.0723991394043, 1.177978515625, -0.40966796875, 0.206298828125
568, 3206557355, -5.468776702880859, -4.1381731033325195, 11.943361282348633, 1.1035276651382446, 115.38995361328125, 51.24734115600586, 1.1884765625, -0.4208984375, 0.23974609375
569, 3206574022, -2.745246171951294, -5.206742763519287, 13.600043296813965, 20.936756134033203, 87.53540802001953, 54.19691467285156, 1.1953125, -0.438232421875, 0.2626953125
570, 3206590689, -2.1744611263275146, -4.286567211151123, 14.836050987243652, 22.882080078125, 56.28300476074219, 42.38690185546875, 1.202392578125, -0.451171875, 0.28125
571, 3206607356, -1.3008878231048584, -3.8349390029907227, 15.103567123413086, 6.896960258483887, 8.392925262451172, 24.916231155395508, 1.20361328125, -0.459228515625, 0.28466796875
572, 3206624023, -0.17462272942066193, -3.317516565322876, 13.88507080078125, -11.623769760131836, -28.199275970458984, 16.445655822753906, 1.205078125, -0.460205078125, 0.280029296875
573, 3206640690, -0.8856720924377441, -3.5841851234436035, 12.950496673583984, -28.32363510131836, -56.97630310058594, 10.854290962219238, 1.20556640625, -0.46484375, 0.267578125
574, 3206657357, -1.8780893087387085, -4.342649459838867, 12.042506217956543, -35.53810501098633, -82.4448013305664, 1.0121465921401978, 1.201416015625, -0.4609375, 0.24853515625
575, 3206674024, -2.699406147003174, -4.6715288162231445, 11.248056411743164, -35.245521545410156, -100.69950866699219, -15.10547924041748, 1.1982421875, -0.454345703125, 0.22509765625
576, 3206690691, -3.6232264041900635, -4.402772903442383, 10.742332458496094, -33.52988052368164, -108.74491119384766, -35.428123474121094, 1.19140625, -0.445068359375, 0.19873046875
577, 3206707358, -5.192834377288818, -3.894595146179199, 10.812851905822754, -28.266855239868164, -112.60812377929688, -53.69453430175781, 1.182861328125, -0.42822265625, 0.16845703125
578, 3206724025, -7.102560043334961, -2.8652901649475098, 11.355430603027344, -22.301589965820312, -121.43161010742188, -65.63336944580078, 1.1748046875, -0.409423828125, 0.139892578125
579, 3206740692, -9.484766006469727, -1.5829746723175049, 12.066818237304688, -23.299510955810547, -135.72784423828125, -72.06742858886719, 1.16064453125, -0.388427734375, 0.10595703125
580, 3206757359, -11.302118301391602, -0.39321452379226685, 12.170998573303223, -31.176956176757812, -162.44839477539062, -76.51268768310547, 1.14013671875, -0.363037109375, 0.067138671875
581, 3206774026, -10.958847045898438, 0.6603717803955078, 10.797526359558105, -38.682926177978516, -188.57766723632812, -76.61383819580078, 1.11865234375, -0.3388671875, 0.022216796875
582, 3206790693, -9.008957862854004, 1.1756342649459839, 9.040431022644043, -40.358543395996094, -193.7677764892578, -67.68831634521484, 1.08349609375, -0.31298828125, -0.020751953125
583, 3206807360, -8.858287811279297, 1.218795895576477, 8.421638488769531, -38.45017623901367, -181.63465881347656, -52.4261360168457, 1.053466796875, -0.293212890625, -0.059814453125
584, 3206824027, -9.457053184509277, 0.9457371830940247, 7.954490661621094, -38.698760986328125, -172.14312744140625, -38.53980255126953, 1.018310546875, -0.277099609375, -0.093505859375
585, 3206840694, -9.868156433105469, 0.39890167117118835, 7.269250392913818, -42.011348724365234, -164.98106384277344, -26.485342025756836, 0.993408203125, -0.26220703125, -0.120361328125
586, 3206857361, -10.222341537475586, 0.2722651958465576, 6.274963855743408, -50.683956146240234, -163.31153869628906, -20.639820098876953, 0.961669921875, -0.25, -0.14794921875
587, 3206874028, -9.019815444946289, 0.3801984190940857, 4.253623008728027, -58.8441162109375, -156.12733459472656, -16.619525909423828, 0.935791015625, -0.236328125, -0.17431640625
588, 3206890695, -7.900782108306885, 0.6885281801223755, 2.3157432079315186, -61.1366081237793, -135.2449188232422, -10.236939430236816, 0.907470703125, -0.2216796875, -0.195556640625
589, 3206907362, -7.3628716468811035, 0.6806528568267822, 1.3843647241592407, -56.75648498535156, -103.41145324707031, -3.072970151901245, 0.8857421875, -0.21142578125, -0.20947265625
590, 3206924029, -7.4512786865234375, 0.19381558895111084, 1.2023969888687134, -44.24006652832031, -72.37351989746094, 1.319913387298584, 0.871826171875, -0.201904296875, -0.220947265625
591, 3206940696, -7.749723434448242, -0.1616273820400238, 1.3649152517318726, -25.894441604614258, -46.62204360961914, 2.6498584747314453, 0.861572265625, -0.1953125, -0.231689453125
592, 3206957363, -7.843284606933594, -0.1531141996383667, 1.2582056522369385, -10.969487190246582, -25.772489547729492, 1.8865917921066284, 0.85791015625, -0.1943359375, -0.2353515625
593, 3206974030, -7.735341548919678, -0.1794947385787964, 0.6454257369041443, 0.8124924302101135, -1.9908241033554077, 1.532670259475708, 0.856201171875, -0.192138671875, -0.23681640625
594, 3206990697, -8.523022651672363, -0.3240324854850769, 0.3316567838191986, 15.089611053466797, 26.143537521362305, 2.831653118133545, 0.859375, -0.19677734375, -0.23486328125
595, 3207007364, -9.913113594055176, -0.0015929114306345582, 0.3378247022628784, 28.37228775024414, 51.96556091308594, 4.184635162353516, 0.8681640625, -0.200439453125, -0.228271484375
596, 3207024031, -10.896369934082031, 0.7807424664497375, 0.4937792718410492, 32.7212028503418, 76.66021728515625, 13.34007453918457, 0.88330078125, -0.2099609375, -0.215087890625
597, 3207040698, -6.975414752960205, -4.542247772216797, 12.52889633178711, 33.508323669433594, 68.87703704833984, 41.4158935546875, 0.90185546875, -0.22119140625, -0.205810546875
598, 3207057365, 4.989497661590576, -6.737534999847412, 11.440231323242188, 37.190799713134766, 80.94544219970703, 46.193878173828125, 0.91748046875, -0.239990234375, -0.19140625
599, 3207074032, -1.600364327430725, -6.666164875030518, 6.5218071937561035, 43.745765686035156, 209.9516143798828, 38.55141067504883, 0.9541015625, -0.261474609375, -0.154052734375
600, 3207090699, -14.214926719665527, 1.979592204093933, 9.522662162780762, 37.459930419921875, 190.90960693359375, -11.59876537322998, 0.989501953125, -0.27197265625, -0.110595703125
601, 3207107366, -8.751239776611328, 5.535656452178955, 11.477462768554688, 14.767239570617676, 154.4287872314453, 16.68195343017578, 1.018798828125, -0.277587890625, -0.075439453125
602, 3207124033, -10.991226196289062, -2.15854549407959, 9.104641914367676, -1.7557766437530518, 124.83119201660156, 32.75699996948242, 1.04150390625, -0.28515625, -0.047607421875
603, 3207140700, -10.978796005249023, -4.912869930267334, 7.691606044769287, 11.940425872802734, 113.90222930908203, 13.746628761291504, 1.05908203125, -0.29052734375, -0.02001953125
604, 3207157367, -9.447940826416016, 0.27058038115501404, 8.979715347290039, 10.952195167541504, 89.4154052734375, 18.34160041809082, 1.075439453125, -0.296142578125, -4.8828125E-4
605, 3207174034, -7.930215835571289, -2.6583735942840576, 7.707036972045898, 4.9835357666015625, 74.67699432373047, 18.92899513244629, 1.0869140625, -0.30029296875, 0.0166015625
606, 3207190701, -7.75905179977417, -1.856343388557434, 7.398637771606445, 9.596939086914062, 64.24276733398438, 19.86937141418457, 1.0947265625, -0.307373046875, 0.03173828125
607, 3207207368, -7.334187030792236, -1.3944932222366333, 7.440546989440918, 13.100521087646484, 53.6657829284668, 24.37797737121582, 1.103515625, -0.314453125, 0.04296875
608, 3207224035, -9.104118347167969, -2.9432506561279297, 7.749769687652588, 22.649513244628906, 45.78460693359375, 28.62036895751953, 1.11328125, -0.320556640625, 0.05126953125
609, 3207240702, -8.688730239868164, -0.9011878371238708, 8.031815528869629, 31.159921646118164, 21.271148681640625, 25.580196380615234, 1.1162109375, -0.332763671875, 0.05615234375
610, 3207257369, -7.467166423797607, -0.8543046712875366, 7.890404224395752, 21.86069107055664, 11.559662818908691, 21.797801971435547, 1.119873046875, -0.341064453125, 0.057861328125
611, 3207274036, -7.5413055419921875, -1.0464987754821777, 7.525782108306885, 19.07074737548828, 5.793076515197754, 18.843881607055664, 1.12353515625, -0.34912109375, 0.0576171875
612, 3207290703, -7.224570274353027, -1.085961937904358, 7.380059719085693, 15.322917938232422, 1.1875154972076416, 14.693381309509277, 1.12255859375, -0.3564453125, 0.055908203125
613, 3207307370, -7.051950931549072, -0.9918773770332336, 7.287821292877197, 12.01736831665039, -1.0542069673538208, 11.53308391571045, 1.123291015625, -0.3603515625, 0.05712890625
614, 3207324037, -7.032310485839844, -0.9460809826850891, 7.211991786956787, 9.420351028442383, -3.694660186767578, 9.049606323242188, 1.124267578125, -0.364013671875, 0.053466796875
615, 3207340704, -6.846255302429199, -1.0744625329971313, 7.190540790557861, 6.178598880767822, -4.516324996948242, 5.835857391357422, 1.121826171875, -0.3671875, 0.050537109375
616, 3207357371, -6.765620231628418, -0.988629162311554, 7.114615440368652, 5.506468772888184, -4.89886474609375, 4.808445453643799, 1.123291015625, -0.369140625, 0.050537109375
617, 3207374038, -6.698854923248291, -1.1620270013809204, 7.101964473724365, 6.711227893829346, -6.666232109069824, 5.801541328430176, 1.12548828125, -0.372802734375, 0.046875
618, 3207390705, -6.499690055847168, -1.4254920482635498, 7.1330084800720215, 7.606136322021484, -7.779963970184326, 5.82725715637207, 1.1220703125, -0.37841796875, 0.04345703125
619, 3207407372, -6.602278232574463, -1.495991826057434, 7.10377836227417, 8.98022174835205, -8.768500328063965, 6.529417514801025, 1.12451171875, -0.384521484375, 0.040283203125
620, 3207424039, -6.678555965423584, -0.9210741519927979, 7.200175762176514, 10.954174041748047, -11.364137649536133, 7.257693290710449, 1.127197265625, -0.386474609375, 0.04248046875
621, 3207440706, -6.68968391418457, -0.6194035410881042, 7.4413909912109375, 9.78053092956543, -10.854273796081543, 5.253610610961914, 1.130126953125, -0.374755859375, 0.044921875
622, 3207457373, -6.5935845375061035, -0.6660431027412415, 7.487114429473877, 7.769911289215088, -9.17673397064209, 3.3233518600463867, 1.117431640625, -0.375732421875, 0.034912109375
623, 3207474040, -6.442733287811279, -0.8973065614700317, 7.392585754394531, 5.873269081115723, -6.821202278137207, 2.40319561958313, 1.114990234375, -0.382568359375, 0.031494140625
624, 3207490707, -6.295782566070557, -1.4821786880493164, 7.288017272949219, 7.988969326019287, -5.730345249176025, 6.598263263702393, 1.115478515625, -0.390625, 0.030029296875
625, 3207507374, -6.422972202301025, -1.235245704650879, 7.348336696624756, 9.793901443481445, -3.313107967376709, 12.050766944885254, 1.11572265625, -0.396728515625, 0.030029296875
626, 3207524041, -6.403213024139404, -1.3422881364822388, 7.371423244476318, 9.303511619567871, 0.5746024250984192, 17.146347045898438, 1.11474609375, -0.403076171875, 0.031005859375
627, 3207540708, -6.438965320587158, -0.6785630583763123, 7.679708003997803, 4.323040962219238, 11.146377563476562, 19.632238388061523, 1.120361328125, -0.407470703125, 0.03369140625
628, 3207557375, -6.3227338790893555, -0.19409748911857605, 7.82098913192749, -5.397120475769043, 29.230440139770508, 19.595706939697266, 1.12158203125, -0.414306640625, 0.042236328125
629, 3207574042, -5.7603278160095215, -0.7909375429153442, 8.081851959228516, -9.370806694030762, 55.99628448486328, 20.18693733215332, 1.12841796875, -0.42138671875, 0.05712890625
630, 3207590709, -5.7352070808410645, -0.20847830176353455, 8.482696533203125, -1.8959602117538452, 89.69438934326172, 21.245275497436523, 1.1376953125, -0.42431640625, 0.07763671875
631, 3207607376, -5.946041584014893, 0.12869319319725037, 8.257838249206543, -2.3977863788604736, 128.18023681640625, 22.73394012451172, 1.152587890625, -0.430908203125, 0.10986328125
632, 3207624043, -6.181110382080078, 0.3308701813220978, 7.971900463104248, 0.22084899246692657, 169.238525390625, 23.31749153137207, 1.169189453125, -0.4384765625, 0.14990234375
633, 3207640710, -6.2540388107299805, 0.08637185394763947, 7.666301727294922, 1.0451899766921997, 214.65074157714844, 27.7867431640625, 1.19091796875, -0.4482421875, 0.20068359375
634, 3207657377, -6.424302577972412, -0.8186792731285095, 7.294492244720459, 5.142816543579102, 263.61328125, 41.331809997558594, 1.211669921875, -0.457763671875, 0.26611328125
635, 3207674044, -6.500975131988525, -1.0836522579193115, 7.305577278137207, 14.056546211242676, 323.560791015625, 60.80015182495117, 1.22998046875, -0.47607421875, 0.35009765625
636, 3207690711, -7.992799282073975, -1.2454607486724854, 7.043622970581055, 34.199527740478516, 415.90728759765625, 81.52836608886719, 1.24267578125, -0.49853515625, 0.45703125
637, 3207707378, -11.031356811523438, -1.0804585218429565, 7.895108699798584, 51.15580368041992, 484.63275146484375, 99.25922393798828, 1.240966796875, -0.5244140625, 0.5849609375
638, 3207724045, -20.000896453857422, 0.5200009346008301, 9.01561164855957, 53.72780227661133, 494.7434997558594, 100.52238464355469, 1.220703125, -0.553466796875, 0.716064453125
639, 3207740712, -21.845539093017578, -0.8395960927009583, 9.898797988891602, 40.782466888427734, 469.4615783691406, 74.42950439453125, 1.1845703125, -0.571044921875, 0.833984375
640, 3207757379, -22.461191177368164, -1.9611669778823853, 11.304285049438477, 37.61747741699219, 455.3052062988281, 85.62112426757812, 1.12939453125, -0.589599609375, 0.94091796875
641, 3207774046, -21.688167572021484, -2.9529776573181152, 14.869818687438965, 40.516197204589844, 422.84002685546875, 112.10712432861328, 1.067626953125, -0.610595703125, 1.033935546875
642, 3207790713, -17.707529067993164, -4.453118801116943, 20.87042236328125, 9.115480422973633, 326.6796875, 109.94327545166016, 1.002197265625, -0.636962890625, 1.10498046875
643, 3207807380, -21.450759887695312, -8.591248512268066, 25.004547119140625, -36.977317810058594, 115.6754150390625, 36.606266021728516, 0.9736328125, -0.659423828125, 1.124267578125
644, 3207824047, -16.532560348510742, -8.010746002197266, 22.266372680664062, -31.64285659790039, -194.25498962402344, -22.114728927612305, 1.000244140625, -0.668212890625, 1.08935546875
645, 3207840714, -3.6437535285949707, -4.121390342712402, 12.086065292358398, -4.217978477478027, -278.6136779785156, -3.608703136444092, 1.046630859375, -0.6689453125, 1.018798828125
646, 3207857381, -1.4730229377746582, -1.8537013530731201, 7.611717224121094, -15.40213680267334, -263.4866638183594, 0.8132172226905823, 1.083251953125, -0.67626953125, 0.949462890625
647, 3207874048, -3.44905686378479, -2.735894203186035, 6.7349066734313965, -45.34431457519531, -250.19363403320312, -20.920589447021484, 1.1123046875, -0.6796875, 0.880615234375
648, 3207890715, -6.418793201446533, -4.409129619598389, 6.509115695953369, -50.7748908996582, -262.2190246582031, -50.516117095947266, 1.132080078125, -0.673583984375, 0.8125
649, 3207907382, -7.459353446960449, -4.38958740234375, 5.665630340576172, -30.65006446838379, -290.989990234375, -80.64314270019531, 1.150146484375, -0.6591796875, 0.740966796875
650, 3207924049, -6.678520202636719, -2.3672492504119873, 4.889588832855225, -16.32742691040039, -303.3436584472656, -102.29373168945312, 1.162353515625, -0.63623046875, 0.66796875
651, 3207940716, -7.682156085968018, -0.5822467803955078, 5.411540985107422, -25.3625545501709, -295.8083190917969, -115.06232452392578, 1.173828125, -0.608154296875, 0.60400390625
652, 3207957383, -10.028595924377441, 0.06851569563150406, 6.415611267089844, -40.86176300048828, -298.8048400878906, -119.9675064086914, 1.18310546875, -0.588623046875, 0.541259765625
653, 3207974050, -12.453206062316895, 0.6085082292556763, 7.1144795417785645, -53.291114807128906, -319.7287902832031, -113.23081970214844, 1.188720703125, -0.5693359375, 0.465087890625
