sep=,
DeviceTag:,B,,,,,,,,,,,,,,,,,
FirmwareVersion:,2.2.1,,,,,,,,,,,,,,,,,
AppVersion:,2023.6.1,,,,,,,,,,,,,,,,,
SyncStatus:,Synced,,,,,,,,,,,,,,,,,
OutputRate:,60Hz,,,,,,,,,,,,,,,,,
FilterProfile:,General,,,,,,,,,,,,,,,,,
Measurement Mode:,Inertial Mode - Rate quantities (with mag),,,,,,,,,,,,,,,,,
StartTime:,2023-12-07 12:07:43.441 +0200,,,,,,,,,,,,,,,,,
 2023,,,,,,,,,,,,,,,,,,,

PacketCounter,SampleTimeFine,Acc_X,Acc_Y,Acc_Z,Gyr_X,Gyr_Y,Gyr_Z,Mag_X,Mag_Y,Mag_Z
1, 3197123833, -6.35214376449585, 1.7552998065948486, 7.08505916595459, -0.12174997478723526, -0.8883381485939026, -1.2530885934829712, 0.5927734375, 0.191650390625, -0.70166015625
2, 3197140500, -6.334587097167969, 1.7683683633804321, 7.121240615844727, -0.14318780601024628, -0.8602665066719055, -1.2215209007263184, 0.594482421875, 0.190673828125, -0.703125
3, 3197157167, -6.33772611618042, 1.7708615064620972, 7.07435417175293, -0.14148454368114471, -0.8432085514068604, -1.20557701587677, 0.594970703125, 0.19140625, -0.7001953125
4, 3197173834, -6.334978103637695, 1.7709074020385742, 7.1015167236328125, -0.034397851675748825, -0.8325920104980469, -1.189056634902954, 0.596435546875, 0.189697265625, -0.70263671875
5, 3197190501, -6.3340840339660645, 1.75970458984375, 7.0908918380737305, -0.14215049147605896, -0.8668490052223206, -1.2376697063446045, 0.594970703125, 0.190185546875, -0.7041015625
6, 3197207168, -6.336069583892822, 1.7604732513427734, 7.095027446746826, -0.15459826588630676, -0.8434390425682068, -1.304685354232788, 0.59326171875, 0.19189453125, -0.70361328125
7, 3197223835, -6.338029861450195, 1.7505698204040527, 7.078882694244385, -0.1251564621925354, -0.9227742552757263, -1.2656387090682983, 0.594970703125, 0.190673828125, -0.70361328125
8, 3197240502, -6.334523677825928, 1.7443238496780396, 7.1040940284729, -0.11170979589223862, -0.9299330115318298, -1.2108787298202515, 0.593994140625, 0.189697265625, -0.703125
9, 3197257169, -6.335440158843994, 1.7517976760864258, 7.100335121154785, -0.13833419978618622, -0.8240630030632019, -1.2620913982391357, 0.597900390625, 0.190185546875, -0.706298828125
10, 3197273836, -6.332589626312256, 1.772669792175293, 7.0959086418151855, -0.11190187931060791, -0.9274102449417114, -1.194128155708313, 0.5927734375, 0.191650390625, -0.7021484375
11, 3197290503, -6.331156253814697, 1.7535159587860107, 7.1056060791015625, -0.059062886983156204, -0.9390128254890442, -1.2933261394500732, 0.593994140625, 0.188720703125, -0.703125
12, 3197307170, -6.331614017486572, 1.7616629600524902, 7.098594665527344, -0.11999548971652985, -1.0147110223770142, -1.3023031949996948, 0.595458984375, 0.190673828125, -0.70361328125
13, 3197323837, -6.319512844085693, 1.7538635730743408, 7.097718715667725, -0.10574202984571457, -0.9088281989097595, -1.2316251993179321, 0.593994140625, 0.190673828125, -0.70361328125
14, 3197340504, -6.344639301300049, 1.7611855268478394, 7.086665153503418, -0.17969870567321777, -0.9232993125915527, -1.2504503726959229, 0.593994140625, 0.190185546875, -0.70458984375
15, 3197357171, -6.339854717254639, 1.7642079591751099, 7.081075191497803, -0.16508665680885315, -0.8999919295310974, -1.1428771018981934, 0.596435546875, 0.189697265625, -0.703125
16, 3197373838, -6.343536853790283, 1.7700172662734985, 7.122828960418701, -0.10590850561857224, -0.8673868179321289, -1.2534470558166504, 0.595947265625, 0.19091796875, -0.70458984375
17, 3197390505, -6.346773147583008, 1.751922607421875, 7.109008312225342, -0.190827414393425, -0.9313547015190125, -1.3089754581451416, 0.595458984375, 0.190185546875, -0.70263671875
18, 3197407172, -6.340839385986328, 1.755690097808838, 7.10772180557251, -0.21189388632774353, -0.957748532295227, -1.2020295858383179, 0.594482421875, 0.190673828125, -0.70263671875
19, 3197423839, -6.333267688751221, 1.759343147277832, 7.080573558807373, -0.142906054854393, -0.88614821434021, -1.221917748451233, 0.593994140625, 0.19189453125, -0.701171875
20, 3197440506, -6.328785419464111, 1.7533926963806152, 7.097273826599121, -0.1455569714307785, -0.7495300769805908, -1.2127227783203125, 0.596435546875, 0.190673828125, -0.705078125
21, 3197457173, -6.337054252624512, 1.7744879722595215, 7.096344947814941, -0.03848308324813843, -0.7829802632331848, -1.217025876045227, 0.594970703125, 0.19140625, -0.70361328125
22, 3197473840, -6.32822322845459, 1.7677565813064575, 7.092896938323975, -0.16451038420200348, -0.8752500414848328, -1.27476966381073, 0.59326171875, 0.1923828125, -0.703125
23, 3197490507, -6.329881191253662, 1.7563549280166626, 7.105215072631836, -0.1489250510931015, -0.9091611504554749, -1.295708179473877, 0.593505859375, 0.190185546875, -0.7041015625
24, 3197507174, -6.3450493812561035, 1.7646291255950928, 7.111640453338623, -0.15274134278297424, -0.9216859340667725, -1.2305622100830078, 0.595458984375, 0.19091796875, -0.70166015625
25, 3197523841, -6.33665132522583, 1.76779043674469, 7.087337970733643, -0.19854965806007385, -0.8477675318717957, -1.252742886543274, 0.593994140625, 0.190673828125, -0.70166015625
26, 3197540508, -6.335098743438721, 1.7576591968536377, 7.098249912261963, -0.14733704924583435, -0.9227102398872375, -1.2992810010910034, 0.596435546875, 0.190185546875, -0.70361328125
27, 3197557175, -6.329043865203857, 1.7613015174865723, 7.093521595001221, -0.29473814368247986, -0.9274358749389648, -1.2213287353515625, 0.595458984375, 0.189208984375, -0.70361328125
28, 3197573842, -6.32949161529541, 1.7803170680999756, 7.100491046905518, -0.2224591225385666, -0.8648640513420105, -1.2475050687789917, 0.596435546875, 0.1923828125, -0.70458984375
29, 3197590509, -6.327540397644043, 1.7650036811828613, 7.0843095779418945, -0.23719921708106995, -0.7959657907485962, -1.2985126972198486, 0.594970703125, 0.190673828125, -0.703125
30, 3197607176, -6.333546161651611, 1.7772375345230103, 7.084505081176758, -0.17403829097747803, -0.8458337783813477, -1.3392112255096436, 0.593505859375, 0.190185546875, -0.70263671875
31, 3197623843, -6.338715553283691, 1.7689955234527588, 7.090498447418213, -0.2505306303501129, -0.8198240399360657, -1.3888614177703857, 0.5927734375, 0.191650390625, -0.7041015625
32, 3197640510, -6.336007595062256, 1.7543952465057373, 7.081161975860596, -0.23041187226772308, -0.8288397789001465, -1.3132655620574951, 0.595458984375, 0.188720703125, -0.70361328125
33, 3197657177, -6.329735279083252, 1.7582521438598633, 7.084438323974609, -0.21565894782543182, -0.7392594218254089, -1.3873118162155151, 0.593505859375, 0.190673828125, -0.7021484375
34, 3197673844, -6.334544658660889, 1.7623623609542847, 7.077690124511719, -0.1900206059217453, -0.8386877179145813, -1.3047364950180054, 0.595947265625, 0.190673828125, -0.703125
35, 3197690511, -6.326208591461182, 1.7751123905181885, 7.122923374176025, -0.2084745615720749, -0.816584050655365, -1.3496739864349365, 0.591796875, 0.190673828125, -0.703125
36, 3197707178, -6.330319881439209, 1.7680338621139526, 7.100430488586426, -0.2423730045557022, -0.73430335521698, -1.366629719734192, 0.595458984375, 0.189697265625, -0.70263671875
37, 3197723845, -6.333520889282227, 1.7565840482711792, 7.099370956420898, -0.25809913873672485, -0.7068720459938049, -1.3244966268539429, 0.593994140625, 0.190185546875, -0.70361328125
38, 3197740512, -6.326107501983643, 1.7635209560394287, 7.083072185516357, -0.20683535933494568, -0.7802653312683105, -1.3009843826293945, 0.596435546875, 0.19091796875, -0.70458984375
39, 3197757179, -6.33939266204834, 1.740803837776184, 7.087942123413086, -0.059011660516262054, -0.7774991989135742, -1.233789324760437, 0.594970703125, 0.190185546875, -0.7041015625
40, 3197773846, -6.343298435211182, 1.7586264610290527, 7.094532012939453, -0.08070561289787292, -0.7722613215446472, -1.2846177816390991, 0.593994140625, 0.190673828125, -0.70361328125
41, 3197790513, -6.329249858856201, 1.7636198997497559, 7.104495525360107, -0.1193423643708229, -0.8234610557556152, -1.1828712224960327, 0.596923828125, 0.190673828125, -0.705078125
42, 3197807180, -6.335481643676758, 1.773415446281433, 7.110034465789795, -0.18009570240974426, -0.8305558562278748, -1.2188060283660889, 0.59326171875, 0.191650390625, -0.703125
43, 3197823847, -6.329966068267822, 1.7611066102981567, 7.102148056030273, -0.14925801753997803, -0.8221547603607178, -1.2759350538253784, 0.595458984375, 0.189697265625, -0.7041015625
44, 3197840514, -6.325162410736084, 1.7640293836593628, 7.0848388671875, -0.12227503210306168, -0.8836509585380554, -1.2947092056274414, 0.595458984375, 0.190673828125, -0.7041015625
45, 3197857181, -6.325868129730225, 1.7593295574188232, 7.110280990600586, -0.1555587202310562, -0.8306582570075989, -1.2594659328460693, 0.59228515625, 0.189208984375, -0.70263671875
46, 3197873848, -6.326900959014893, 1.7686691284179688, 7.085144519805908, -0.2003169059753418, -0.8025227785110474, -1.3051975965499878, 0.594482421875, 0.187744140625, -0.70263671875
47, 3197890515, -6.331569671630859, 1.7530968189239502, 7.1029582023620605, -0.09106594324111938, -0.8259710669517517, -1.1976498365402222, 0.59375, 0.19189453125, -0.7041015625
48, 3197907182, -6.338813781738281, 1.7637195587158203, 7.077497482299805, -0.1079191043972969, -0.8278792500495911, -1.2449308633804321, 0.593505859375, 0.191650390625, -0.70263671875
49, 3197923849, -6.3391594886779785, 1.7577896118164062, 7.107280731201172, -0.13488928973674774, -0.8458210229873657, -1.224223017692566, 0.594482421875, 0.188720703125, -0.703125
50, 3197940516, -6.331814289093018, 1.772336721420288, 7.0873260498046875, -0.19893385469913483, -0.9393457770347595, -1.3218202590942383, 0.595947265625, 0.193359375, -0.70263671875
51, 3197957183, -6.3196892738342285, 1.7622586488723755, 7.091529369354248, -0.19045603275299072, -0.9043461084365845, -1.2291918992996216, 0.597412109375, 0.189208984375, -0.7021484375
52, 3197973850, -6.335434436798096, 1.7574856281280518, 7.114485740661621, -0.2011493295431137, -0.859703004360199, -1.3285819292068481, 0.595458984375, 0.190673828125, -0.703125
53, 3197990517, -6.325531005859375, 1.7605167627334595, 7.09746789932251, -0.1428035944700241, -0.8578718304634094, -1.1741886138916016, 0.594482421875, 0.190673828125, -0.70458984375
54, 3198007184, -6.333137512207031, 1.7646656036376953, 7.093983173370361, -0.21066448092460632, -0.9371687769889832, -1.2505016326904297, 0.595947265625, 0.188720703125, -0.7021484375
55, 3198023851, -6.339641571044922, 1.7539329528808594, 7.1084723472595215, -0.20531140267848969, -0.8914756774902344, -1.2448028326034546, 0.593017578125, 0.190185546875, -0.70361328125
56, 3198040518, -6.329818248748779, 1.7713063955307007, 7.0822601318359375, -0.2157357633113861, -0.9538042545318604, -1.2682127952575684, 0.595458984375, 0.19140625, -0.7041015625
57, 3198057185, -6.335118293762207, 1.7682009935379028, 7.098921298980713, -0.14257310330867767, -0.8656324744224548, -1.233776569366455, 0.596435546875, 0.190673828125, -0.703125
58, 3198073852, -6.336716175079346, 1.7620655298233032, 7.083885192871094, -0.21387887001037598, -0.7695720195770264, -1.2607595920562744, 0.595947265625, 0.189697265625, -0.703125
59, 3198090519, -6.333678722381592, 1.767006516456604, 7.110633373260498, -0.2682417929172516, -0.819158136844635, -1.3205010890960693, 0.594482421875, 0.190673828125, -0.70166015625
60, 3198107186, -6.340329647064209, 1.7641443014144897, 7.098827362060547, -0.24603557586669922, -0.832694411277771, -1.378885269165039, 0.59228515625, 0.191162109375, -0.70361328125
61, 3198123853, -6.333269119262695, 1.754047155380249, 7.086715221405029, -0.2618386447429657, -0.8972896337509155, -1.3510057926177979, 0.595458984375, 0.190185546875, -0.70166015625
62, 3198140520, -6.3364129066467285, 1.767261266708374, 7.086058616638184, -0.20131580531597137, -0.9174340963363647, -1.2566614151000977, 0.591796875, 0.190185546875, -0.703125
63, 3198157187, -6.328344345092773, 1.7680081129074097, 7.10378360748291, -0.25373220443725586, -0.9218266606330872, -1.2329696416854858, 0.595458984375, 0.189697265625, -0.7041015625
64, 3198173854, -6.337963581085205, 1.7681607007980347, 7.096245288848877, -0.22942574322223663, -0.9338774681091309, -1.266291856765747, 0.594482421875, 0.190673828125, -0.7041015625
65, 3198190521, -6.339679718017578, 1.7771368026733398, 7.0915422439575195, -0.28145796060562134, -1.0010980367660522, -1.3564870357513428, 0.594482421875, 0.189697265625, -0.705078125
66, 3198207188, -6.338134765625, 1.765936017036438, 7.090489387512207, -0.23069359362125397, -0.9607580304145813, -1.389373779296875, 0.594970703125, 0.190673828125, -0.70166015625
67, 3198223855, -6.320982456207275, 1.7752201557159424, 7.130218505859375, -0.22414952516555786, -0.8016774654388428, -1.3745567798614502, 0.593994140625, 0.189208984375, -0.70458984375
68, 3198240522, -6.332154273986816, 1.764737606048584, 7.132525444030762, -0.12169873714447021, -0.7379787564277649, -1.3950468301773071, 0.595947265625, 0.19140625, -0.705078125
69, 3198257189, -6.335376739501953, 1.7635918855667114, 7.081840991973877, -0.24827668070793152, -0.7381196022033691, -1.3554496765136719, 0.593017578125, 0.190185546875, -0.703125
70, 3198273856, -6.3456549644470215, 1.7561023235321045, 7.09823751449585, -0.1797115057706833, -0.7744511961936951, -1.322025179862976, 0.594970703125, 0.193359375, -0.701171875
71, 3198290523, -6.331913471221924, 1.7626501321792603, 7.096126079559326, -0.14864329993724823, -0.8095148801803589, -1.3486493825912476, 0.594970703125, 0.19189453125, -0.703125
72, 3198307190, -6.34449577331543, 1.75625479221344, 7.106183052062988, -0.12642428278923035, -0.758507251739502, -1.2031182050704956, 0.595947265625, 0.190185546875, -0.7021484375
73, 3198323857, -6.348575592041016, 1.7569406032562256, 7.1109418869018555, -0.13011251389980316, -0.8003712892532349, -1.2894073724746704, 0.594970703125, 0.191162109375, -0.70458984375
74, 3198340524, -6.31408166885376, 1.7729042768478394, 7.087307929992676, -0.13428737223148346, -0.8449245095252991, -1.265882134437561, 0.594482421875, 0.189208984375, -0.70166015625
75, 3198357191, -6.326241493225098, 1.7758041620254517, 7.09348201751709, -0.15038496255874634, -0.7677534818649292, -1.325495719909668, 0.595458984375, 0.190185546875, -0.70361328125
76, 3198373858, -6.316922187805176, 1.7700704336166382, 7.105066776275635, -0.22819632291793823, -0.8544396162033081, -1.2639739513397217, 0.594482421875, 0.191162109375, -0.705078125
77, 3198390525, -6.330813884735107, 1.7601544857025146, 7.093904495239258, -0.11589746922254562, -0.8047381639480591, -1.3107426166534424, 0.59375, 0.191162109375, -0.7041015625
78, 3198407192, -6.319683074951172, 1.760449767112732, 7.114427089691162, -0.14183034002780914, -0.7738621234893799, -1.3859928846359253, 0.594482421875, 0.19140625, -0.7021484375
79, 3198423859, -6.341131687164307, 1.7674845457077026, 7.0931315422058105, -0.1347483992576599, -0.8210150003433228, -1.2994729280471802, 0.594482421875, 0.189697265625, -0.70361328125
80, 3198440526, -6.337913990020752, 1.766770601272583, 7.116438388824463, -0.16791686415672302, -0.8446299433708191, -1.2905343770980835, 0.593505859375, 0.190185546875, -0.70361328125
81, 3198457193, -6.333234786987305, 1.7549467086791992, 7.081175804138184, -0.2051192820072174, -0.8351532220840454, -1.2543690204620361, 0.594970703125, 0.191162109375, -0.70458984375
82, 3198473860, -6.324536323547363, 1.772910714149475, 7.100799083709717, -0.23424093425273895, -0.8717283010482788, -1.2884596586227417, 0.595947265625, 0.19140625, -0.7041015625
83, 3198490527, -6.319561004638672, 1.7680002450942993, 7.100772380828857, -0.19274836778640747, -0.9492449760437012, -1.2888309955596924, 0.595458984375, 0.190673828125, -0.705810546875
84, 3198507194, -6.339084625244141, 1.7765748500823975, 7.1015496253967285, -0.17179715633392334, -0.8123323321342468, -1.3729302883148193, 0.594482421875, 0.190185546875, -0.703125
85, 3198523861, -6.341261863708496, 1.7677645683288574, 7.106534957885742, -0.21672187745571136, -0.8168274760246277, -1.280366063117981, 0.594482421875, 0.19189453125, -0.703125
86, 3198540528, -6.324582576751709, 1.7662947177886963, 7.100634574890137, -0.20821842551231384, -0.815700352191925, -1.3252650499343872, 0.596435546875, 0.19189453125, -0.705078125
87, 3198557195, -6.330825328826904, 1.7740719318389893, 7.107858180999756, -0.2034032642841339, -0.9090972542762756, -1.2863337993621826, 0.595947265625, 0.189697265625, -0.70556640625
88, 3198573862, -6.336877346038818, 1.752021312713623, 7.126389503479004, -0.13277623057365417, -0.9062156081199646, -1.32572603225708, 0.596923828125, 0.19140625, -0.70361328125
89, 3198590529, -6.3315653800964355, 1.7473386526107788, 7.1336140632629395, -0.18903452157974243, -0.8300051093101501, -1.2934156656265259, 0.594970703125, 0.191162109375, -0.70263671875
90, 3198607196, -6.338898658752441, 1.7538762092590332, 7.091675281524658, -0.2779234051704407, -0.8242807388305664, -1.2687764167785645, 0.595458984375, 0.19140625, -0.70458984375
91, 3198623863, -6.326056957244873, 1.751017689704895, 7.085748672485352, -0.1835021823644638, -0.8479211926460266, -1.3148024082183838, 0.594970703125, 0.190673828125, -0.70361328125
92, 3198640530, -6.336687088012695, 1.7612663507461548, 7.107998371124268, -0.12968990206718445, -0.9040898680686951, -1.3100383281707764, 0.595458984375, 0.191162109375, -0.703125
93, 3198657197, -6.337210655212402, 1.755642294883728, 7.092898368835449, -0.20569558441638947, -0.8880050778388977, -1.3887461423873901, 0.59375, 0.191650390625, -0.7041015625
94, 3198673864, -6.3333964347839355, 1.756300449371338, 7.098702430725098, -0.2082952857017517, -0.9245544672012329, -1.3063886165618896, 0.59228515625, 0.191162109375, -0.7021484375
95, 3198690531, -6.323680877685547, 1.7585480213165283, 7.09938383102417, -0.17898154258728027, -0.8080422878265381, -1.4324158430099487, 0.594970703125, 0.189697265625, -0.70361328125
96, 3198707198, -6.325105667114258, 1.7531813383102417, 7.1035542488098145, -0.1852310448884964, -0.7608764171600342, -1.297411322593689, 0.595458984375, 0.190673828125, -0.7021484375
97, 3198723865, -6.334418773651123, 1.763331413269043, 7.090611934661865, -0.17766247689723969, -0.7628486156463623, -1.3482013940811157, 0.594482421875, 0.193359375, -0.70166015625
98, 3198740532, -6.334839820861816, 1.7662978172302246, 7.095429420471191, -0.1593237966299057, -0.7432677745819092, -1.3490848541259766, 0.595458984375, 0.190185546875, -0.705078125
99, 3198757199, -6.328563213348389, 1.7603367567062378, 7.085342884063721, -0.21506986021995544, -0.7481598258018494, -1.3928825855255127, 0.597900390625, 0.189208984375, -0.70556640625
100, 3198773866, -6.326336860656738, 1.7576450109481812, 7.088686466217041, -0.18172210454940796, -0.7537177205085754, -1.3441416025161743, 0.596923828125, 0.189208984375, -0.7041015625
101, 3198790533, -6.335211277008057, 1.7558097839355469, 7.101864337921143, -0.23151318728923798, -0.7682913541793823, -1.3930491209030151, 0.594970703125, 0.191162109375, -0.70361328125
102, 3198807200, -6.33538818359375, 1.760686993598938, 7.115773677825928, -0.1405496895313263, -0.761081337928772, -1.3338708877563477, 0.593505859375, 0.190673828125, -0.70361328125
103, 3198823867, -6.322073936462402, 1.7684952020645142, 7.10764217376709, -0.1971793919801712, -0.7780753970146179, -1.3104737997055054, 0.593994140625, 0.191162109375, -0.70068359375
104, 3198840534, -6.3337626457214355, 1.752077579498291, 7.096086502075195, -0.25963589549064636, -0.814061164855957, -1.387081265449524, 0.594482421875, 0.19189453125, -0.703125
105, 3198857201, -6.327777862548828, 1.76344895362854, 7.105268478393555, -0.26355472207069397, -0.7117001414299011, -1.367756724357605, 0.594482421875, 0.188232421875, -0.70263671875
106, 3198873868, -6.332944869995117, 1.7522602081298828, 7.112940311431885, -0.25803515315055847, -0.7725558876991272, -1.3630951642990112, 0.594970703125, 0.19189453125, -0.703125
107, 3198890535, -6.3331427574157715, 1.7413281202316284, 7.09604024887085, -0.17731672525405884, -0.716605007648468, -1.3083351850509644, 0.59326171875, 0.19189453125, -0.70458984375
108, 3198907202, -6.329043865203857, 1.7577929496765137, 7.108308792114258, -0.17082390189170837, -0.6905055642127991, -1.2963354587554932, 0.593017578125, 0.191650390625, -0.7001953125
109, 3198923869, -6.340258598327637, 1.7445306777954102, 7.112051010131836, -0.1592213362455368, -0.7959914207458496, -1.2807501554489136, 0.594970703125, 0.189697265625, -0.705078125
110, 3198940536, -6.3329877853393555, 1.751074194908142, 7.112029075622559, -0.21177862584590912, -0.7511051893234253, -1.2875888347625732, 0.59326171875, 0.1923828125, -0.70361328125
111, 3198957203, -6.339838027954102, 1.7516363859176636, 7.101737976074219, -0.26196667551994324, -0.7633352875709534, -1.3095132112503052, 0.595947265625, 0.19140625, -0.705078125
112, 3198973870, -6.3349809646606445, 1.7497929334640503, 7.0995025634765625, -0.19857527315616608, -0.8521600961685181, -1.313278317451477, 0.596435546875, 0.190673828125, -0.7041015625
113, 3198990537, -6.33297061920166, 1.7539118528366089, 7.108294486999512, -0.2352270483970642, -0.84883052110672, -1.2863210439682007, 0.594482421875, 0.19189453125, -0.70361328125
114, 3199007204, -6.3217244148254395, 1.7524821758270264, 7.080532550811768, -0.07966829836368561, -0.8557586669921875, -1.3324238061904907, 0.59326171875, 0.19189453125, -0.70166015625
115, 3199023871, -6.337554454803467, 1.7543861865997314, 7.094420909881592, -0.19290201365947723, -0.9106850624084473, -1.3348056077957153, 0.595947265625, 0.19140625, -0.7041015625
116, 3199040538, -6.335446834564209, 1.7584502696990967, 7.092231273651123, -0.10388511419296265, -0.8797705769538879, -1.2904446125030518, 0.595947265625, 0.19140625, -0.70263671875
117, 3199057205, -6.355234622955322, 1.740012288093567, 7.111536979675293, -0.23555999994277954, -0.7919318675994873, -1.3293629884719849, 0.595458984375, 0.188720703125, -0.70556640625
118, 3199073872, -6.336071014404297, 1.764464020729065, 7.090028762817383, -0.1419840008020401, -0.8920135498046875, -1.3165696859359741, 0.594482421875, 0.190185546875, -0.70263671875
119, 3199090539, -6.332139492034912, 1.7519208192825317, 7.09011697769165, -0.2167474627494812, -0.8395971655845642, -1.4156522750854492, 0.5927734375, 0.191162109375, -0.703125
120, 3199107206, -6.337411403656006, 1.7577147483825684, 7.1008172035217285, -0.17684288322925568, -0.905178427696228, -1.389822006225586, 0.595458984375, 0.19287109375, -0.70361328125
121, 3199123873, -6.3288421630859375, 1.754393219947815, 7.115458011627197, -0.20636151731014252, -0.9137714505195618, -1.334639310836792, 0.5927734375, 0.191650390625, -0.70458984375
122, 3199140540, -6.329766750335693, 1.7580052614212036, 7.085991859436035, -0.2415533810853958, -0.8301075100898743, -1.360456943511963, 0.59423828125, 0.19189453125, -0.705322265625
123, 3199157207, -6.3364386558532715, 1.7544870376586914, 7.099545001983643, -0.19272276759147644, -0.8402886986732483, -1.3559362888336182, 0.596435546875, 0.190673828125, -0.705078125
124, 3199173874, -6.341663837432861, 1.7663699388504028, 7.085883617401123, -0.22975873947143555, -0.7822374701499939, -1.32778799533844, 0.595458984375, 0.190185546875, -0.7041015625
125, 3199190541, -6.335189342498779, 1.766214370727539, 7.132565498352051, -0.23139795660972595, -0.9073939323425293, -1.3337942361831665, 0.593994140625, 0.19189453125, -0.703125
126, 3199207208, -6.334937572479248, 1.7494686841964722, 7.113621711730957, -0.253655344247818, -0.7959401607513428, -1.3803834915161133, 0.594970703125, 0.1943359375, -0.70068359375
127, 3199223875, -6.337698936462402, 1.7474418878555298, 7.109628200531006, -0.28841182589530945, -0.8384446501731873, -1.4285356998443604, 0.595458984375, 0.19140625, -0.70361328125
128, 3199240542, -6.332380294799805, 1.758486270904541, 7.105918884277344, -0.30074432492256165, -0.8664392828941345, -1.4437624216079712, 0.59326171875, 0.1923828125, -0.705810546875
129, 3199257209, -6.342341899871826, 1.766364336013794, 7.092953681945801, -0.26401567459106445, -0.8331938982009888, -1.4278182983398438, 0.594482421875, 0.19189453125, -0.703125
130, 3199273876, -6.324148654937744, 1.7424912452697754, 7.107075214385986, -0.2253020852804184, -0.79353266954422, -1.3918581008911133, 0.594970703125, 0.191162109375, -0.7041015625
131, 3199290543, -6.330408573150635, 1.7546412944793701, 7.109409809112549, -0.23220475018024445, -0.761862576007843, -1.3973777294158936, 0.5927734375, 0.1923828125, -0.70263671875
132, 3199307210, -6.338443756103516, 1.7762056589126587, 7.091757774353027, -0.24941647052764893, -0.7909970283508301, -1.421748161315918, 0.594482421875, 0.190185546875, -0.705078125
133, 3199323877, -6.325982570648193, 1.7469282150268555, 7.0991621017456055, -0.24151495099067688, -0.7792535424232483, -1.4217737913131714, 0.594970703125, 0.191162109375, -0.703125
134, 3199340544, -6.324645042419434, 1.7486060857772827, 7.1218461990356445, -0.16347305476665497, -0.7396050691604614, -1.4168047904968262, 0.595458984375, 0.190673828125, -0.7041015625
135, 3199357211, -6.324562072753906, 1.745287299156189, 7.099541664123535, -0.14702971279621124, -0.5955080986022949, -1.4760855436325073, 0.594970703125, 0.189697265625, -0.70361328125
136, 3199373878, -6.3312482833862305, 1.765071153640747, 7.124206066131592, -0.13757860660552979, -0.526584267616272, -1.3982867002487183, 0.596435546875, 0.19091796875, -0.703125
137, 3199390545, -6.334580421447754, 1.7668520212173462, 7.108063220977783, -0.13113702833652496, -0.42417192459106445, -1.3642092943191528, 0.595947265625, 0.1923828125, -0.70361328125
138, 3199407212, -6.330001354217529, 1.7497074604034424, 7.115812301635742, -0.15201136469841003, -0.6018088459968567, -1.4348747730255127, 0.59326171875, 0.19287109375, -0.70361328125
139, 3199423879, -6.33768892288208, 1.7588980197906494, 7.113539218902588, -0.2216523140668869, -0.610465943813324, -1.4541226625442505, 0.5927734375, 0.19287109375, -0.70361328125
140, 3199440546, -6.336970806121826, 1.7537544965744019, 7.116539001464844, -0.0455906055867672, -0.6114391684532166, -1.3497636318206787, 0.593994140625, 0.189697265625, -0.7041015625
141, 3199457213, -6.353549480438232, 1.746529459953308, 7.095051288604736, -0.0700635313987732, -0.674702525138855, -1.4213767051696777, 0.594482421875, 0.19189453125, -0.70361328125
142, 3199473880, -6.3370208740234375, 1.73491370677948, 7.107426643371582, -0.10822645574808121, -0.7184873819351196, -1.3609563112258911, 0.596923828125, 0.19140625, -0.703125
143, 3199490547, -6.340447902679443, 1.7454524040222168, 7.099956035614014, -0.11990585178136826, -0.7805854678153992, -1.2948243618011475, 0.595458984375, 0.19140625, -0.70458984375
144, 3199507214, -6.334905624389648, 1.759407877922058, 7.128091335296631, -0.1159742921590805, -0.7992697954177856, -1.296553134918213, 0.595458984375, 0.19189453125, -0.70361328125
145, 3199523881, -6.345570087432861, 1.7484729290008545, 7.098691940307617, -0.1556611806154251, -0.7843376994132996, -1.3475096225738525, 0.593505859375, 0.191650390625, -0.7021484375
146, 3199540548, -6.3408894538879395, 1.7562378644943237, 7.084730625152588, -0.14386653900146484, -0.7650641798973083, -1.372482180595398, 0.59423828125, 0.1923828125, -0.7041015625
147, 3199557215, -6.336733341217041, 1.761606216430664, 7.1035332679748535, -0.17333395779132843, -0.7653587460517883, -1.371585726737976, 0.595458984375, 0.19189453125, -0.70263671875
148, 3199573882, -6.3248419761657715, 1.7682223320007324, 7.098296165466309, -0.2230738252401352, -0.8657604455947876, -1.311472773551941, 0.595458984375, 0.190673828125, -0.7041015625
149, 3199590549, -6.327981472015381, 1.743576169013977, 7.091037750244141, -0.185115784406662, -0.8200033903121948, -1.373724341392517, 0.59423828125, 0.19580078125, -0.70263671875
150, 3199607216, -6.335953235626221, 1.7437154054641724, 7.083327293395996, -0.12393985688686371, -0.8630455732345581, -1.4165360927581787, 0.594482421875, 0.1923828125, -0.70263671875
151, 3199623883, -6.337632656097412, 1.7348254919052124, 7.097719669342041, -0.11970096081495285, -0.7931869029998779, -1.444236159324646, 0.593994140625, 0.191162109375, -0.7021484375
152, 3199640550, -6.3501434326171875, 1.738918423652649, 7.11372184753418, -0.12073825299739838, -0.6933358311653137, -1.3449740409851074, 0.59521484375, 0.193359375, -0.705322265625
153, 3199657217, -6.3444905281066895, 1.7450581789016724, 7.071204662322998, -0.07472504675388336, -0.7408472895622253, -1.422747015953064, 0.594482421875, 0.19189453125, -0.7041015625
154, 3199673884, -6.34111213684082, 1.7655761241912842, 7.090825080871582, -0.11428387463092804, -0.7942883372306824, -1.3288764953613281, 0.595947265625, 0.1923828125, -0.7021484375
155, 3199690551, -6.3377251625061035, 1.7598837614059448, 7.114589691162109, -0.06777119636535645, -0.7902029752731323, -1.424181342124939, 0.59228515625, 0.193359375, -0.7021484375
156, 3199707218, -6.341647624969482, 1.7409762144088745, 7.099358081817627, -0.06919270753860474, -0.7390671968460083, -1.3396849632263184, 0.593994140625, 0.189697265625, -0.7021484375
157, 3199723885, -6.343898773193359, 1.7523022890090942, 7.094815731048584, -0.024191195145249367, -0.7493507862091064, -1.3960843086242676, 0.594482421875, 0.193359375, -0.7021484375
158, 3199740552, -6.343815326690674, 1.747014045715332, 7.127845764160156, -0.17133615911006927, -0.7788694500923157, -1.381485104560852, 0.59375, 0.19189453125, -0.70458984375
159, 3199757219, -6.329091548919678, 1.7475780248641968, 7.101909160614014, -0.13953797519207, -0.6641756892204285, -1.405714511871338, 0.595458984375, 0.189697265625, -0.70263671875
160, 3199773886, -6.332882881164551, 1.7421424388885498, 7.11417293548584, -0.058345723897218704, -0.5735963582992554, -1.3880544900894165, 0.596435546875, 0.19189453125, -0.7021484375
161, 3199790553, -6.343573093414307, 1.7439392805099487, 7.115477085113525, -0.13761703670024872, -0.5761321187019348, -1.3351004123687744, 0.595458984375, 0.19189453125, -0.705078125
162, 3199807220, -6.333743572235107, 1.7556188106536865, 7.101230144500732, -0.14354637265205383, -0.7901774048805237, -1.3911538124084473, 0.593017578125, 0.190673828125, -0.7021484375
163, 3199823887, -6.347684860229492, 1.7453855276107788, 7.074569225311279, -0.11054442077875137, -0.8532998561859131, -1.382458209991455, 0.5927734375, 0.190673828125, -0.703125
164, 3199840554, -6.3423638343811035, 1.73588228225708, 7.101559638977051, -0.1362595558166504, -0.7380939722061157, -1.375056266784668, 0.593994140625, 0.191162109375, -0.70263671875
165, 3199857221, -6.344836235046387, 1.7612428665161133, 7.116476535797119, -0.19520717859268188, -0.9141940474510193, -1.4153578281402588, 0.594970703125, 0.189697265625, -0.7041015625
166, 3199873888, -6.347999572753906, 1.7459522485733032, 7.113462924957275, -0.25083795189857483, -0.8506361246109009, -1.3663990497589111, 0.595947265625, 0.19091796875, -0.703125
167, 3199890555, -6.345676422119141, 1.7347605228424072, 7.0746660232543945, -0.2144039273262024, -0.8276616334915161, -1.3571016788482666, 0.594482421875, 0.1943359375, -0.70068359375
168, 3199907222, -6.35123348236084, 1.739333987236023, 7.1019721031188965, -0.2062462568283081, -0.8301460146903992, -1.419430136680603, 0.593017578125, 0.190673828125, -0.70263671875
169, 3199923889, -6.35108757019043, 1.7424277067184448, 7.112150192260742, -0.2262241691350937, -0.8821013569831848, -1.3205779790878296, 0.594970703125, 0.191162109375, -0.7021484375
170, 3199940556, -6.352536678314209, 1.7599607706069946, 7.085301399230957, -0.2250203937292099, -0.8017159700393677, -1.3827913999557495, 0.595458984375, 0.19189453125, -0.703125
171, 3199957223, -6.338580131530762, 1.764708399772644, 7.091024875640869, -0.23568809032440186, -0.8684114217758179, -1.3965452909469604, 0.597412109375, 0.190673828125, -0.70556640625
172, 3199973890, -6.3501787185668945, 1.764724612236023, 7.088822841644287, -0.22809390723705292, -0.8561428785324097, -1.3793081045150757, 0.594970703125, 0.19140625, -0.70361328125
173, 3199990557, -6.3465800285339355, 1.7551331520080566, 7.099985122680664, -0.17060619592666626, -0.8100913166999817, -1.405151128768921, 0.59326171875, 0.193359375, -0.7001953125
174, 3200007224, -6.342812538146973, 1.7326849699020386, 7.06866979598999, -0.18968763947486877, -0.8067231774330139, -1.4001821279525757, 0.593994140625, 0.1923828125, -0.7001953125
175, 3200023891, -6.343620777130127, 1.7640801668167114, 7.117752552032471, -0.1367845982313156, -0.6907104253768921, -1.3968652486801147, 0.593994140625, 0.19189453125, -0.7021484375
176, 3200040558, -6.343297481536865, 1.7600059509277344, 7.098428249359131, -0.19413144886493683, -0.7529493570327759, -1.4397538900375366, 0.594482421875, 0.19189453125, -0.70361328125
177, 3200057225, -6.336879730224609, 1.755692720413208, 7.103891372680664, -0.2198082059621811, -0.6120538711547852, -1.4062142372131348, 0.59326171875, 0.19189453125, -0.706298828125
178, 3200073892, -6.33983850479126, 1.7574561834335327, 7.098830223083496, -0.1436232030391693, -0.6566199064254761, -1.3815233707427979, 0.596923828125, 0.1923828125, -0.70263671875
179, 3200090559, -6.337330341339111, 1.7491536140441895, 7.105068683624268, -0.1566856950521469, -0.713211178779602, -1.3366755247116089, 0.593994140625, 0.1923828125, -0.70166015625
180, 3200107226, -6.353004455566406, 1.7468358278274536, 7.094581604003906, -0.06413419544696808, -0.7074611783027649, -1.4729349613189697, 0.595458984375, 0.190185546875, -0.70263671875
181, 3200123893, -6.354940891265869, 1.753942847251892, 7.088644981384277, -0.12885747849941254, -0.7999485731124878, -1.331437587738037, 0.593994140625, 0.191162109375, -0.70361328125
182, 3200140560, -6.340057373046875, 1.7545804977416992, 7.09210205078125, -0.26629525423049927, -0.7904976010322571, -1.321179986000061, 0.594482421875, 0.193359375, -0.701171875
183, 3200157227, -6.3310065269470215, 1.741539478302002, 7.065133094787598, -0.20721957087516785, -0.803777813911438, -1.4366804361343384, 0.595947265625, 0.19287109375, -0.70166015625
184, 3200173894, -6.347323417663574, 1.739482045173645, 7.097318649291992, -0.08215273171663284, -0.6420847177505493, -1.418738603591919, 0.595947265625, 0.1923828125, -0.70263671875
185, 3200190561, -6.34885835647583, 1.7566369771957397, 7.100015640258789, -0.1920696198940277, -0.6212232112884521, -1.4300081729888916, 0.594970703125, 0.19140625, -0.701171875
186, 3200207228, -6.347215175628662, 1.7536077499389648, 7.1030073165893555, -0.20610539615154266, -0.5956233739852905, -1.4252699613571167, 0.595947265625, 0.1943359375, -0.70068359375
187, 3200223895, -6.3375983238220215, 1.7443416118621826, 7.1010422706604, -0.17903277277946472, -0.5594582557678223, -1.4492050409317017, 0.594970703125, 0.19140625, -0.701171875
188, 3200240562, -6.346466541290283, 1.7663910388946533, 7.0894317626953125, -0.09850643575191498, -0.5467798709869385, -1.520971655845642, 0.594482421875, 0.19189453125, -0.701171875
189, 3200257229, -6.356423854827881, 1.741766095161438, 7.087619304656982, -0.22536614537239075, -0.5154556035995483, -1.640519142150879, 0.596435546875, 0.190673828125, -0.70263671875
190, 3200273896, -6.341474533081055, 1.7331535816192627, 7.074578762054443, -0.2204228788614273, -0.571188747882843, -1.6064667701721191, 0.593505859375, 0.1923828125, -0.70068359375
191, 3200290563, -6.345040798187256, 1.7467265129089355, 7.094196796417236, -0.3086458444595337, -0.5715090036392212, -1.567177176475525, 0.594970703125, 0.1923828125, -0.70068359375
192, 3200307230, -6.348392009735107, 1.7471758127212524, 7.0796918869018555, -0.21280312538146973, -0.5143798589706421, -1.5495811700820923, 0.596435546875, 0.19091796875, -0.70166015625
193, 3200323897, -6.3457722663879395, 1.7376068830490112, 7.092184066772461, -0.14373846352100372, -0.372511088848114, -1.5711342096328735, 0.595947265625, 0.193359375, -0.703125
194, 3200340564, -6.3564839363098145, 1.7397253513336182, 7.080883502960205, -0.1294465810060501, -0.4506041705608368, -1.5565733909606934, 0.596435546875, 0.19091796875, -0.7041015625
195, 3200357231, -6.333944797515869, 1.7343908548355103, 7.064566135406494, -0.1898413449525833, -0.5140725374221802, -1.448359727859497, 0.597412109375, 0.193359375, -0.70068359375
196, 3200373898, -6.34703254699707, 1.744032859802246, 7.093979358673096, -0.12271043658256531, -0.6044981479644775, -1.3975313901901245, 0.596435546875, 0.1923828125, -0.70166015625
197, 3200390565, -6.35631799697876, 1.7451640367507935, 7.090860366821289, -0.2627734839916229, -0.7936351299285889, -1.4178295135498047, 0.596923828125, 0.19287109375, -0.70263671875
198, 3200407232, -6.3569016456604, 1.7259230613708496, 7.0821051597595215, -0.21562054753303528, -0.909135639667511, -1.4214537143707275, 0.595458984375, 0.19189453125, -0.70361328125
199, 3200423899, -6.367376804351807, 1.7205674648284912, 7.101161956787109, -0.27054694294929504, -0.9129390120506287, -1.3246759176254272, 0.595458984375, 0.19189453125, -0.703125
200, 3200440566, -6.358147621154785, 1.7286893129348755, 7.087625503540039, -0.1905328631401062, -0.8355246186256409, -1.2771899700164795, 0.594482421875, 0.19140625, -0.70361328125
201, 3200457233, -6.357327938079834, 1.7356036901474, 7.091317176818848, -0.05022650212049484, -0.8642492890357971, -1.129917025566101, 0.597412109375, 0.193359375, -0.7001953125
202, 3200473900, -6.344511985778809, 1.7400639057159424, 7.1075873374938965, -0.02074628882110119, -0.8847907781600952, -1.11748206615448, 0.594970703125, 0.193359375, -0.70166015625
203, 3200490567, -6.355029582977295, 1.753531813621521, 7.091216564178467, -0.04520641639828682, -0.844322681427002, -1.0364819765090942, 0.595458984375, 0.193359375, -0.70166015625
204, 3200507234, -6.348189830780029, 1.7474172115325928, 7.09128999710083, -0.018428334966301918, -0.940498411655426, -0.9976657629013062, 0.59326171875, 0.1923828125, -0.70263671875
205, 3200523901, -6.345195293426514, 1.7347733974456787, 7.10744571685791, -0.08488048613071442, -0.953599214553833, -1.0410152673721313, 0.595947265625, 0.19482421875, -0.7021484375
206, 3200540568, -6.337143898010254, 1.7460157871246338, 7.078045845031738, -0.0910787507891655, -0.8804621696472168, -0.9656243920326233, 0.593994140625, 0.190185546875, -0.70068359375
207, 3200557235, -6.339177131652832, 1.7681443691253662, 7.082222938537598, -0.013933309353888035, -0.9336085319519043, -1.1121931076049805, 0.595947265625, 0.19189453125, -0.70166015625
208, 3200573902, -6.3546977043151855, 1.752966284751892, 7.084794044494629, -0.11396370828151703, -0.74139803647995, -1.2100592851638794, 0.594482421875, 0.193359375, -0.70166015625
209, 3200590569, -6.352481365203857, 1.747005820274353, 7.067610740661621, -0.007606972474604845, -0.6897628903388977, -1.17505943775177, 0.595947265625, 0.193359375, -0.70068359375
210, 3200607236, -6.359654903411865, 1.7449625730514526, 7.090841770172119, -0.02936495840549469, -0.6799403429031372, -1.2060636281967163, 0.593505859375, 0.19189453125, -0.698974609375
211, 3200623903, -6.352997779846191, 1.762580394744873, 7.0684733390808105, -0.08134593069553375, -0.6891865134239197, -1.2301522493362427, 0.595458984375, 0.19189453125, -0.703125
212, 3200640570, -6.368962287902832, 1.7472350597381592, 7.070241451263428, -0.20572121441364288, -0.9274102449417114, -1.3025596141815186, 0.594482421875, 0.19384765625, -0.70166015625
213, 3200657237, -6.350188255310059, 1.7533440589904785, 7.086493015289307, -0.18856069445610046, -0.9162687063217163, -1.3056073188781738, 0.593994140625, 0.19140625, -0.703125
214, 3200673904, -6.349710941314697, 1.746654748916626, 7.087675094604492, -0.21933437883853912, -0.8888246417045593, -1.3144181966781616, 0.595947265625, 0.19189453125, -0.7021484375
215, 3200690571, -6.344189643859863, 1.7404896020889282, 7.07968807220459, -0.06273830682039261, -0.6893529891967773, -1.3520432710647583, 0.594482421875, 0.193359375, -0.7001953125
216, 3200707238, -6.3486199378967285, 1.746584415435791, 7.077732086181641, -0.10213062912225723, -0.7901901602745056, -1.3145078420639038, 0.595458984375, 0.19189453125, -0.7021484375
217, 3200723905, -6.358822822570801, 1.754736065864563, 7.090137004852295, -0.2851718068122864, -0.8856102824211121, -1.3535672426223755, 0.596923828125, 0.190673828125, -0.70263671875
218, 3200740572, -6.3480119705200195, 1.743552327156067, 7.086452007293701, -0.3146775960922241, -0.928383469581604, -1.4024488925933838, 0.595947265625, 0.19140625, -0.703125
219, 3200757239, -6.343532562255859, 1.7355529069900513, 7.07010555267334, -0.19610366225242615, -0.9453520774841309, -1.3951750993728638, 0.594970703125, 0.19287109375, -0.703125
220, 3200773906, -6.347485065460205, 1.7525116205215454, 7.08413553237915, -0.18365585803985596, -1.0156716108322144, -1.2530373334884644, 0.594482421875, 0.19189453125, -0.701171875
221, 3200790573, -6.348545074462891, 1.7442471981048584, 7.076117038726807, -0.20865385234355927, -0.8881203532218933, -1.189082384109497, 0.593994140625, 0.1923828125, -0.69970703125
222, 3200807240, -6.3507513999938965, 1.7467985153198242, 7.086154460906982, -0.18776670098304749, -1.0335237979888916, -1.225362777709961, 0.595458984375, 0.193359375, -0.703125
223, 3200823907, -6.348968505859375, 1.735633373260498, 7.089552879333496, -0.28310999274253845, -1.0752466917037964, -1.1816930770874023, 0.597900390625, 0.19140625, -0.70166015625
224, 3200840574, -6.34883975982666, 1.714504599571228, 7.073312759399414, -0.1780851036310196, -1.2477740049362183, -1.133528470993042, 0.594970703125, 0.193359375, -0.70361328125
225, 3200857241, -6.324609756469727, 1.6775003671646118, 7.095989227294922, 0.12212775647640228, -1.2549070119857788, -0.6858312487602234, 0.593994140625, 0.19189453125, -0.703125
226, 3200873908, -6.3428730964660645, 1.7235180139541626, 7.057243347167969, 1.6954008340835571, -0.29720979928970337, 0.5453008413314819, 0.594970703125, 0.19140625, -0.70263671875
227, 3200890575, -6.372642517089844, 1.6159898042678833, 7.078492164611816, 2.6171634197235107, -0.12329953908920288, 1.5555169582366943, 0.596435546875, 0.19140625, -0.703125
228, 3200907242, -6.3523101806640625, 1.7728005647659302, 7.072678089141846, 2.569075584411621, -0.4466855227947235, 1.8739597797393799, 0.594970703125, 0.190185546875, -0.7001953125
229, 3200923909, -6.336618900299072, 1.8515148162841797, 7.085836887359619, 3.256533622741699, -0.4701339900493622, 2.030658483505249, 0.595458984375, 0.188720703125, -0.70166015625
230, 3200940576, -6.322536468505859, 1.830909013748169, 7.080719470977783, 3.216359853744507, -0.051302243024110794, 1.7539770603179932, 0.593994140625, 0.188232421875, -0.7021484375
231, 3200957243, -6.341395854949951, 1.823185920715332, 7.074337005615234, 2.651522397994995, 0.14710012078285217, 1.3281272649765015, 0.594482421875, 0.186279296875, -0.70166015625
232, 3200973910, -6.344125270843506, 1.7820817232131958, 7.081371307373047, 3.430776596069336, 0.8776256442070007, 1.2082726955413818, 0.594482421875, 0.18505859375, -0.701171875
233, 3200990577, -6.341967582702637, 1.7934330701828003, 7.073465824127197, 3.6976988315582275, 1.0726789236068726, 1.5800666809082031, 0.5966796875, 0.18359375, -0.699951171875
234, 3201007244, -6.355481147766113, 1.837765097618103, 7.067872524261475, 4.206277370452881, 1.3674683570861816, 1.9656144380569458, 0.5966796875, 0.1826171875, -0.701416015625
235, 3201023911, -6.391839504241943, 1.9059607982635498, 7.058391571044922, 5.461390018463135, 2.4303317070007324, 1.815306544303894, 0.5966796875, 0.181640625, -0.699951171875
236, 3201040578, -6.385568141937256, 1.8887077569961548, 7.069684028625488, 6.149719715118408, 2.7567150592803955, 1.6427925825119019, 0.59716796875, 0.177978515625, -0.699462890625
237, 3201057245, -6.371452331542969, 1.9356529712677002, 7.071435928344727, 4.846864700317383, 1.5560294389724731, 1.2376506328582764, 0.599365234375, 0.177490234375, -0.699462890625
238, 3201073912, -6.3524065017700195, 1.9162466526031494, 7.022941589355469, 3.5578410625457764, 0.40605735778808594, 0.6833020448684692, 0.601318359375, 0.177001953125, -0.6953125
239, 3201090579, -6.341961860656738, 1.9183253049850464, 7.040639400482178, 3.039619207382202, 0.9053640961647034, 0.38719359040260315, 0.595947265625, 0.1748046875, -0.6962890625
240, 3201107246, -6.343228816986084, 1.9563404321670532, 7.027016639709473, 2.180722951889038, 0.7745088934898376, -0.21177862584590912, 0.597412109375, 0.176513671875, -0.69384765625
241, 3201123913, -6.330717086791992, 1.9566450119018555, 7.034502983093262, 1.2270082235336304, 1.1694949865341187, -0.9993306398391724, 0.599853515625, 0.174560546875, -0.69775390625
242, 3201140580, -6.345207214355469, 2.012389898300171, 7.048622131347656, 0.4910658895969391, 2.235623836517334, -2.1474199295043945, 0.600830078125, 0.175537109375, -0.69775390625
243, 3201157247, -6.373592376708984, 1.9156423807144165, 7.098538875579834, 1.4906911849975586, 5.203943729400635, -2.7172255516052246, 0.598388671875, 0.174560546875, -0.69482421875
244, 3201173914, -6.389211654663086, 1.5224910974502563, 7.317087173461914, 0.33952847123146057, 6.689149379730225, -1.9964849948883057, 0.600341796875, 0.177490234375, -0.69287109375
245, 3201190581, -6.383210182189941, 0.8211033940315247, 7.413776397705078, 0.9390579462051392, 9.81167221069336, 1.9323315620422363, 0.6025390625, 0.174560546875, -0.690673828125
246, 3201207248, -6.356757164001465, 1.4516196250915527, 7.442690372467041, 5.865962028503418, 16.7337646484375, 5.237771034240723, 0.60498046875, 0.175537109375, -0.6865234375
247, 3201223915, -6.129821300506592, 0.16833701729774475, 8.533681869506836, 17.883378982543945, 33.230323791503906, 11.212039947509766, 0.608642578125, 0.169921875, -0.680419921875
248, 3201240582, -6.261504650115967, -1.5497548580169678, 10.360933303833008, 40.64297103881836, 59.590641021728516, 41.49222946166992, 0.61328125, 0.158203125, -0.66845703125
249, 3201257249, 6.409794807434082, -6.134637832641602, 20.685705184936523, -58.54140090942383, 83.78659057617188, 74.03668212890625, 0.6240234375, 0.1416015625, -0.64892578125
250, 3201273916, 3.3337059020996094, -28.152578353881836, 33.894012451171875, -132.76148986816406, 67.60440826416016, 59.7700309753418, 0.630859375, 0.14111328125, -0.62939453125
251, 3201290583, -4.352834701538086, -27.442480087280273, 37.217628479003906, -34.33043670654297, -63.713321685791016, -52.59209060668945, 0.626953125, 0.148193359375, -0.6376953125
252, 3201307250, -3.1457393169403076, -20.84295654296875, 33.0953369140625, 19.28483772277832, -205.14224243164062, -179.5144805908203, 0.611083984375, 0.177734375, -0.678955078125
253, 3201323917, -4.035165309906006, -11.877669334411621, 27.850915908813477, 51.594905853271484, -258.0516662597656, -239.30630493164062, 0.579833984375, 0.21923828125, -0.736572265625
254, 3201340584, -7.396693706512451, -3.631727695465088, 24.003379821777344, 34.49120330810547, -255.45907592773438, -233.3308563232422, 0.542724609375, 0.259521484375, -0.796630859375
255, 3201357251, -9.62477970123291, -0.9104554653167725, 21.49603843688965, -12.294515609741211, -216.23577880859375, -197.60214233398438, 0.5068359375, 0.299072265625, -0.84619140625
256, 3201373918, -14.007671356201172, 0.7323588728904724, 20.935970306396484, -51.541770935058594, -179.11080932617188, -180.62130737304688, 0.47216796875, 0.340576171875, -0.88818359375
257, 3201390585, -20.660306930541992, 0.7899525165557861, 20.512548446655273, -40.63260269165039, -201.27780151367188, -154.91163635253906, 0.4326171875, 0.377197265625, -0.925048828125
258, 3201407252, -18.51813507080078, 3.3451387882232666, 15.207193374633789, -17.776657104492188, -246.121337890625, -121.03779602050781, 0.38134765625, 0.403076171875, -0.970458984375
259, 3201423919, -14.304092407226562, 5.457894325256348, 10.222575187683105, -41.407958984375, -245.1236572265625, -116.6541976928711, 0.320556640625, 0.4267578125, -1.011962890625
260, 3201440586, -14.654302597045898, 7.2965569496154785, 8.065746307373047, -66.7030258178711, -222.93809509277344, -117.92753601074219, 0.25927734375, 0.459716796875, -1.04541015625
261, 3201457253, -14.765119552612305, 11.271796226501465, 3.664646625518799, -73.25825500488281, -204.9445343017578, -119.7901840209961, 0.19921875, 0.49169921875, -1.068115234375
262, 3201473920, -17.420143127441406, 15.506650924682617, -1.428786277770996, -73.95169830322266, -164.7508087158203, -122.40037536621094, 0.145751953125, 0.523681640625, -1.080078125
263, 3201490587, -23.678653717041016, 13.37946891784668, -6.357455253601074, -4.01324462890625, -168.4001007080078, -104.08049011230469, 0.0947265625, 0.539306640625, -1.09326171875
264, 3201507254, -19.67867088317871, 10.599812507629395, -13.487345695495605, 143.22384643554688, -174.00277709960938, -78.13139343261719, 0.040771484375, 0.520751953125, -1.116455078125
265, 3201523921, -19.44594955444336, 11.953592300415039, -18.05458641052246, 218.53378295898438, -134.39120483398438, -54.47268295288086, -0.003173828125, 0.46875, -1.14453125
266, 3201540588, -19.808544158935547, 12.103011131286621, -21.7275390625, 153.4180145263672, -75.23062896728516, -18.301218032836914, -0.03271484375, 0.42333984375, -1.16064453125
267, 3201557255, -19.006790161132812, 9.403044700622559, -23.459869384765625, 27.970661163330078, 7.663153171539307, 18.084360122680664, -0.03564453125, 0.4072265625, -1.165771484375
268, 3201573922, -18.939411163330078, 5.352060794830322, -19.802228927612305, -41.677589416503906, 88.16861724853516, 31.392629623413086, -0.01123046875, 0.413330078125, -1.159423828125
269, 3201590589, -18.996917724609375, 5.012300968170166, -13.193689346313477, -31.54953956604004, 140.07858276367188, 43.81676483154297, 0.02197265625, 0.42138671875, -1.1484375
270, 3201607256, -18.368677139282227, 7.074287414550781, -7.248725414276123, -22.489192962646484, 171.93666076660156, 55.1949462890625, 0.072509765625, 0.419677734375, -1.13330078125
271, 3201623923, -17.8526554107666, 8.002330780029297, -2.2947208881378174, -33.254756927490234, 193.7760772705078, 70.5229263305664, 0.126220703125, 0.424072265625, -1.116455078125
272, 3201640590, -17.25603485107422, 7.4151692390441895, 1.8564870357513428, -36.72963333129883, 213.1820068359375, 92.26750183105469, 0.1845703125, 0.42431640625, -1.090576171875
273, 3201657257, -16.580493927001953, 5.69335412979126, 5.781159400939941, -26.514511108398438, 233.1461639404297, 114.33110809326172, 0.247314453125, 0.4169921875, -1.060546875
274, 3201673924, -16.152053833007812, 3.4192259311676025, 9.873913764953613, -11.063116073608398, 245.9198455810547, 131.93817138671875, 0.31201171875, 0.404052734375, -1.02099609375
275, 3201690591, -14.968709945678711, 2.343816041946411, 12.906591415405273, -4.9411396980285645, 244.4533233642578, 137.97714233398438, 0.37548828125, 0.38623046875, -0.9775390625
276, 3201707258, -13.503875732421875, 0.9833941459655762, 15.549761772155762, -6.768370151519775, 242.4192352294922, 143.2104034423828, 0.430419921875, 0.3623046875, -0.927001953125
277, 3201723925, -14.384085655212402, -2.843245267868042, 18.483394622802734, 14.40705680847168, 239.30665588378906, 161.7745819091797, 0.48046875, 0.3330078125, -0.876708984375
278, 3201740592, -13.279033660888672, -4.534653663635254, 21.84384536743164, 38.80897903442383, 241.52529907226562, 170.973876953125, 0.5224609375, 0.2919921875, -0.82568359375
279, 3201757259, -10.810079574584961, -3.381221294403076, 24.60430908203125, 5.735683917999268, 226.7743682861328, 159.9146270751953, 0.561767578125, 0.25927734375, -0.7734375
280, 3201773926, -7.580981731414795, -7.893045425415039, 24.108734130859375, -27.967269897460938, 183.2429656982422, 158.86436462402344, 0.588623046875, 0.230712890625, -0.7294921875
281, 3201790593, -6.633453845977783, -11.832474708557129, 22.97327995300293, 1.4935827255249023, 147.7740020751953, 146.37884521484375, 0.6083984375, 0.20166015625, -0.693359375
282, 3201807260, -4.634627819061279, -12.004613876342773, 23.015453338623047, 34.240699768066406, 121.74518585205078, 105.58490753173828, 0.6201171875, 0.1748046875, -0.658447265625
283, 3201823927, -4.175569534301758, -9.741835594177246, 23.1032772064209, 34.83784866333008, 79.18745422363281, 55.27024841308594, 0.62890625, 0.156005859375, -0.63818359375
284, 3201840594, -2.8428025245666504, -7.203020095825195, 20.485239028930664, 27.588653564453125, 36.73759460449219, 13.671112060546875, 0.6357421875, 0.1474609375, -0.6259765625
285, 3201857261, 0.06479354202747345, -2.0326573848724365, 16.131330490112305, 17.824520111083984, 13.440962791442871, -3.744609832763672, 0.638671875, 0.146484375, -0.625244140625
286, 3201873928, 2.377495765686035, -0.7202562093734741, 13.475852012634277, 3.524153232574463, 21.276559829711914, 1.0087257623672485, 0.642333984375, 0.1494140625, -0.619140625
287, 3201890595, -3.5125021934509277, 1.0395320653915405, 17.920604705810547, -25.308734893798828, 17.042848587036133, 11.515711784362793, 0.64501953125, 0.1474609375, -0.610595703125
288, 3201907262, -1.0857560634613037, -8.554132461547852, 13.856319427490234, -73.009765625, -20.93819236755371, 0.3189678192138672, 0.644287109375, 0.15478515625, -0.620361328125
289, 3201923929, -8.013445854187012, -13.75141716003418, 14.617551803588867, -64.96177673339844, -19.549453735351562, -57.7494010925293, 0.643310546875, 0.174560546875, -0.62255859375
290, 3201940596, -6.73745584487915, 1.0817722082138062, 7.660233497619629, -13.651546478271484, -37.497711181640625, -28.88431739807129, 0.6376953125, 0.1884765625, -0.63427734375
291, 3201957263, -7.638977527618408, 2.0838093757629395, 6.0177388191223145, -12.281074523925781, -28.97235107421875, 0.7502433657646179, 0.63720703125, 0.18994140625, -0.638916015625
292, 3201973930, -7.0683393478393555, 1.9220422506332397, 6.705867767333984, -5.620462417602539, -34.32427978515625, 6.288745403289795, 0.631591796875, 0.187744140625, -0.649658203125
293, 3201990597, -6.704836845397949, 1.8985098600387573, 6.795101642608643, -1.674464225769043, -36.737632751464844, 9.926898002624512, 0.6279296875, 0.187744140625, -0.656982421875
294, 3202007264, -6.552767276763916, 2.4493377208709717, 6.686489105224609, -0.05184035748243332, -36.6813850402832, 10.106072425842285, 0.622802734375, 0.1845703125, -0.6640625
295, 3202023931, -6.33920955657959, 2.283877372741699, 6.99206018447876, -1.1869348287582397, -30.448760986328125, 4.698185443878174, 0.61669921875, 0.182861328125, -0.6728515625
296, 3202040598, -6.169783592224121, 1.7925554513931274, 7.316301345825195, -1.6843581199645996, -22.249496459960938, 1.1439228057861328, 0.614013671875, 0.183837890625, -0.677978515625
297, 3202057265, -6.114650726318359, 1.8379048109054565, 7.368281364440918, 1.2608304023742676, -10.98347282409668, -0.3784917891025543, 0.614501953125, 0.182861328125, -0.68359375
298, 3202073932, -6.389438152313232, 1.6785824298858643, 7.204912185668945, 4.681931018829346, 1.2597286701202393, -1.4871245622634888, 0.612060546875, 0.181396484375, -0.680908203125
299, 3202090599, -6.569743633270264, 1.484453558921814, 7.022645473480225, 5.560896873474121, 4.887051582336426, -0.10528102517127991, 0.614013671875, 0.181396484375, -0.680419921875
300, 3202107266, -6.588597774505615, 1.557202935218811, 6.920156002044678, 5.180829048156738, 4.709849834442139, 1.3173190355300903, 0.6142578125, 0.180908203125, -0.677978515625
301, 3202123933, -6.563624858856201, 1.5334633588790894, 7.098841190338135, 8.431249618530273, 7.1728715896606445, 2.3467323780059814, 0.612548828125, 0.18017578125, -0.67529296875
302, 3202140600, -6.63999080657959, 1.9518407583236694, 6.8256731033325195, 9.700628280639648, 7.042734146118164, 2.7457404136657715, 0.61376953125, 0.174560546875, -0.67431640625
303, 3202157267, -6.613674163818359, 2.351966381072998, 6.727912425994873, 6.987344264984131, 3.058342695236206, 1.0106836557388306, 0.615966796875, 0.173583984375, -0.67333984375
304, 3202173934, -6.673987865447998, 2.085014581680298, 6.820623874664307, 5.503753185272217, -1.2406665086746216, -0.2575485110282898, 0.617431640625, 0.17529296875, -0.672119140625
305, 3202190601, -6.6687421798706055, 1.6981064081192017, 7.123339653015137, 8.983675003051758, -3.0461575984954834, -0.011679394170641899, 0.61474609375, 0.173583984375, -0.67333984375
306, 3202207268, -6.584300994873047, 1.9100695848464966, 7.082262992858887, 10.898920059204102, -3.926147222518921, -0.24469104409217834, 0.616943359375, 0.169677734375, -0.67431640625
307, 3202223935, -6.528373718261719, 2.155587911605835, 6.658799648284912, 8.68763256072998, -4.307648181915283, -1.1200565099716187, 0.615478515625, 0.16796875, -0.672607421875
308, 3202240602, -6.523542881011963, 1.825581669807434, 6.583574295043945, 5.575213432312012, -5.686877727508545, 0.4670412540435791, 0.613037109375, 0.16748046875, -0.67333984375
309, 3202257269, -6.473942756652832, 1.8972853422164917, 6.669225215911865, 4.1564483642578125, -4.64532470703125, 2.259559154510498, 0.614013671875, 0.16552734375, -0.67578125
310, 3202273936, -6.3666863441467285, 2.1108953952789307, 6.818534851074219, 4.074666976928711, -2.710143804550171, 2.9344277381896973, 0.614013671875, 0.164306640625, -0.6767578125
311, 3202290603, -6.432397365570068, 2.4681811332702637, 6.719621181488037, 2.072829484939575, -1.8558448553085327, 1.0906847715377808, 0.613037109375, 0.163818359375, -0.67724609375
312, 3202307270, -6.435461521148682, 2.399229049682617, 6.725255489349365, -1.6895546913146973, -2.5625762939453125, -1.8946994543075562, 0.611572265625, 0.16552734375, -0.67529296875
313, 3202323937, -6.490145683288574, 2.178248882293701, 6.76641321182251, -4.160950183868408, -3.9997947216033936, -3.364023447036743, 0.61181640625, 0.164794921875, -0.677734375
314, 3202340604, -6.458848476409912, 2.063042402267456, 6.821831226348877, -6.30007266998291, -5.819962978363037, -3.858067750930786, 0.61083984375, 0.16552734375, -0.678955078125
315, 3202357271, -6.384677410125732, 2.121507167816162, 6.871641635894775, -8.055837631225586, -5.645412921905518, -4.897111892700195, 0.60986328125, 0.166015625, -0.679931640625
316, 3202373938, -6.456345558166504, 1.9818106889724731, 6.883200645446777, -9.909046173095703, -5.416832447052002, -5.971347808837891, 0.6103515625, 0.169921875, -0.680908203125
317, 3202390605, -6.509653091430664, 1.929703950881958, 6.909412860870361, -10.666403770446777, -7.49554967880249, -5.651087760925293, 0.611572265625, 0.173095703125, -0.68359375
318, 3202407272, -6.517147064208984, 1.893094778060913, 6.948761940002441, -10.984271049499512, -11.100285530090332, -4.488911151885986, 0.608154296875, 0.173095703125, -0.68505859375
319, 3202423939, -6.445709228515625, 1.8706681728363037, 7.051382541656494, -11.267127990722656, -11.627791404724121, -4.2227702140808105, 0.607177734375, 0.175048828125, -0.68603515625
320, 3202440606, -6.40312385559082, 1.8225749731063843, 7.127727508544922, -10.746532440185547, -8.916555404663086, -4.369401454925537, 0.60693359375, 0.18017578125, -0.692138671875
321, 3202457273, -6.410761833190918, 1.7711656093597412, 7.10044527053833, -9.356132507324219, -6.06400203704834, -4.1668171882629395, 0.606201171875, 0.182861328125, -0.69287109375
322, 3202473940, -6.419265270233154, 1.646163821220398, 7.093204975128174, -7.16415548324585, -3.9501194953918457, -3.493201971054077, 0.605712890625, 0.183349609375, -0.691162109375
323, 3202490607, -6.406219959259033, 1.6374489068984985, 7.100025653839111, -4.639190196990967, -2.716418981552124, -2.251138687133789, 0.605224609375, 0.182861328125, -0.69384765625
324, 3202507274, -6.403573036193848, 1.6901196241378784, 7.110572338104248, -2.749420642852783, -2.0438930988311768, -1.4684144258499146, 0.605224609375, 0.185791015625, -0.6943359375
325, 3202523941, -6.375853538513184, 1.7936888933181763, 7.063725471496582, -1.876283884048462, -1.2562133073806763, -1.2843488454818726, 0.604736328125, 0.183837890625, -0.6943359375
326, 3202540608, -6.365684509277344, 1.8253096342086792, 7.067426681518555, -1.595491886138916, -0.9734107255935669, -1.4872654676437378, 0.603759765625, 0.183349609375, -0.693359375
327, 3202557275, -6.358537197113037, 1.8403592109680176, 7.083541393280029, -1.5872187614440918, -0.5278905034065247, -1.938420295715332, 0.604736328125, 0.185791015625, -0.696533203125
328, 3202573942, -6.3836989402771, 1.7936018705368042, 7.071342945098877, -1.2622451782226562, 0.1070546880364418, -2.0310616493225098, 0.606201171875, 0.184326171875, -0.6923828125
329, 3202590609, -6.389517307281494, 1.8040027618408203, 7.042505264282227, -0.9865884184837341, 0.5839759707450867, -2.1091675758361816, 0.604736328125, 0.187744140625, -0.693359375
330, 3202607276, -6.416770935058594, 1.7776978015899658, 7.040903568267822, -0.9491809606552124, 0.5726423263549805, -2.4009087085723877, 0.6064453125, 0.184814453125, -0.690185546875
331, 3202623943, -6.41309928894043, 1.7128924131393433, 7.0414252281188965, -1.2190364599227905, 0.1298884153366089, -2.404264211654663, 0.604736328125, 0.186767578125, -0.6923828125
332, 3202640610, -6.403873443603516, 1.7085331678390503, 7.0328049659729, -0.8274054527282715, -0.4249146580696106, -1.9445034265518188, 0.603271484375, 0.186279296875, -0.6923828125
333, 3202657277, -6.41363000869751, 1.7405016422271729, 7.056252956390381, -0.6357072591781616, -0.6032431721687317, -1.592636227607727, 0.603759765625, 0.185791015625, -0.69287109375
334, 3202673944, -6.432073593139648, 1.776802659034729, 7.020033836364746, -0.6268579363822937, -0.8768635392189026, -1.5462899208068848, 0.606689453125, 0.18896484375, -0.6943359375
335, 3202690611, -6.372797012329102, 1.8006852865219116, 7.041780948638916, -0.8456545472145081, -0.8687059879302979, -1.840323805809021, 0.603759765625, 0.186279296875, -0.69482421875
336, 3202707278, -6.391388416290283, 1.781570553779602, 7.042932033538818, -0.9575179219245911, -0.8963675498962402, -2.23260760307312, 0.606201171875, 0.18994140625, -0.693359375
337, 3202723945, -6.3944268226623535, 1.834516167640686, 7.04473352432251, -1.3254700899124146, -0.9168322086334229, -2.5495777130126953, 0.604736328125, 0.187255859375, -0.69287109375
338, 3202740612, -6.395259857177734, 1.789315938949585, 7.026747703552246, -1.8702139854431152, -1.0236884355545044, -3.3066253662109375, 0.604736328125, 0.187255859375, -0.69287109375
339, 3202757279, -6.3912434577941895, 1.7358689308166504, 7.073054313659668, -1.940674066543579, -0.9193422198295593, -3.487694025039673, 0.608154296875, 0.1875, -0.693359375
340, 3202773946, -6.408097267150879, 1.6558990478515625, 7.054070949554443, -1.8637853860855103, -0.4962460696697235, -3.3817219734191895, 0.608154296875, 0.18994140625, -0.69287109375
341, 3202790613, -6.423496723175049, 1.5878041982650757, 7.056541919708252, -1.2884725332260132, -0.24982628226280212, -2.764314651489258, 0.604248046875, 0.1884765625, -0.69189453125
342, 3202807280, -6.414020538330078, 1.7050178050994873, 7.040129661560059, -0.769187867641449, -0.32501235604286194, -2.169062852859497, 0.605712890625, 0.1923828125, -0.695556640625
343, 3202823947, -6.398114204406738, 1.7443088293075562, 7.031909942626953, -0.8812176585197449, -0.6827192306518555, -2.2860357761383057, 0.603759765625, 0.18994140625, -0.69140625
344, 3202840614, -6.386042594909668, 1.7157719135284424, 7.049776554107666, -0.9985495209693909, -0.8593573570251465, -2.4032652378082275, 0.605712890625, 0.1923828125, -0.6923828125
345, 3202857281, -6.387439250946045, 1.6937050819396973, 7.018182754516602, -0.8387775421142578, -1.198981761932373, -2.2438135147094727, 0.606689453125, 0.19287109375, -0.69384765625
346, 3202873948, -6.417552471160889, 1.6964576244354248, 7.042787075042725, -0.681784451007843, -1.6183127164840698, -1.934565544128418, 0.607177734375, 0.1923828125, -0.6923828125
347, 3202890615, -6.412941932678223, 1.669069766998291, 7.045822620391846, -0.605023205280304, -2.2630739212036133, -1.580277919769287, 0.603515625, 0.19189453125, -0.693359375
348, 3202907282, -6.39668083190918, 1.6048173904418945, 7.055166244506836, -0.5389807224273682, -2.874666690826416, -1.2269506454467773, 0.60400390625, 0.193359375, -0.6943359375
349, 3202923949, -6.395744800567627, 1.6369044780731201, 7.086472034454346, 0.022916963323950768, -2.371274948120117, -0.43450668454170227, 0.603515625, 0.18994140625, -0.6953125
350, 3202940616, -6.375705242156982, 1.7548606395721436, 7.070779800415039, 0.2195328325033188, -1.856049656867981, -0.3886854946613312, 0.605712890625, 0.19091796875, -0.6953125
351, 3202957283, -6.377565383911133, 1.7986716032028198, 7.0809245109558105, -0.009694406762719154, -1.249413013458252, -0.8807182312011719, 0.604736328125, 0.1904296875, -0.6953125
352, 3202973950, -6.380498886108398, 1.7228683233261108, 7.060512065887451, -0.34469568729400635, -1.162432312965393, -1.4033582210540771, 0.605712890625, 0.19091796875, -0.693359375
353, 3202990617, -6.377814292907715, 1.7458325624465942, 7.0682373046875, -0.8813074231147766, -1.5883843898773193, -1.9754177331924438, 0.60302734375, 0.19287109375, -0.6923828125
354, 3203007284, -6.382766246795654, 1.668247103691101, 7.073635101318359, -0.838149905204773, -1.4239381551742554, -2.008855104446411, 0.6025390625, 0.19189453125, -0.69384765625
355, 3203023951, -6.360508918762207, 1.69573175907135, 7.0978288650512695, -0.7056811451911926, -0.9709262251853943, -1.773282527923584, 0.60302734375, 0.19384765625, -0.695556640625
356, 3203040618, -6.3618011474609375, 1.7147027254104614, 7.063848972320557, -0.5173124670982361, -0.6854598522186279, -1.7905582189559937, 0.6044921875, 0.193359375, -0.695556640625
357, 3203057285, -6.3886566162109375, 1.695344090461731, 7.076415061950684, -0.46885332465171814, -0.7428194880485535, -1.8374935388565063, 0.60400390625, 0.1923828125, -0.697021484375
358, 3203073952, -6.365581512451172, 1.6902556419372559, 7.054080963134766, -0.6149480938911438, -0.7980404496192932, -1.6233712434768677, 0.605712890625, 0.1923828125, -0.69287109375
359, 3203090619, -6.393667697906494, 1.6924329996109009, 7.0417327880859375, -0.49310851097106934, -0.9004016518592834, -1.6551053524017334, 0.60498046875, 0.194091796875, -0.695068359375
360, 3203107286, -6.400059223175049, 1.7056971788406372, 7.042088508605957, -0.46601027250289917, -1.2126716375350952, -1.6406853199005127, 0.605224609375, 0.19189453125, -0.69287109375
361, 3203123953, -6.388856887817383, 1.7033147811889648, 7.073361873626709, -0.6142950057983398, -1.6368308067321777, -1.401296615600586, 0.6015625, 0.19189453125, -0.6943359375
362, 3203140620, -6.384748458862305, 1.6870149374008179, 7.069249629974365, -0.6084681153297424, -1.6208611726760864, -1.4225549697875977, 0.60205078125, 0.19384765625, -0.6943359375
363, 3203157287, -6.364048004150391, 1.6798923015594482, 7.088994979858398, -0.4103410243988037, -1.482898473739624, -1.3030074834823608, 0.60400390625, 0.193603515625, -0.695068359375
364, 3203173954, -6.362114906311035, 1.6941910982131958, 7.093112468719482, -0.21989785134792328, -1.0570873022079468, -1.2413450479507446, 0.6044921875, 0.19189453125, -0.695556640625
365, 3203190621, -6.384366035461426, 1.6854299306869507, 7.068309307098389, 0.0389120951294899, -0.5613407492637634, -1.1001806259155273, 0.6044921875, 0.193359375, -0.696044921875
366, 3203207288, -6.378239154815674, 1.7041783332824707, 7.054294109344482, 0.18066558241844177, -0.2168499082326889, -1.1497797966003418, 0.603515625, 0.19384765625, -0.695068359375
367, 3203223955, -6.4107513427734375, 1.696486234664917, 7.057040691375732, 0.20133502781391144, -0.026099340990185738, -1.1731256246566772, 0.60302734375, 0.1923828125, -0.69482421875
368, 3203240622, -6.388946533203125, 1.7088640928268433, 7.047145843505859, 0.13259056210517883, -0.19571945071220398, -1.2325855493545532, 0.6044921875, 0.194091796875, -0.6943359375
369, 3203257289, -6.395353317260742, 1.675323247909546, 7.0674262046813965, 0.21560128033161163, -0.01589267887175083, -1.1478074789047241, 0.6044921875, 0.19287109375, -0.69384765625
370, 3203273956, -6.397985458374023, 1.6802499294281006, 7.070324420928955, 0.28152838349342346, 0.11303524672985077, -0.8777599930763245, 0.605224609375, 0.19189453125, -0.693359375
371, 3203290623, -6.4255475997924805, 1.6763840913772583, 7.074087619781494, 0.3365444839000702, -0.046230919659137726, -0.8519551753997803, 0.6044921875, 0.193359375, -0.69384765625
372, 3203307290, -6.421497821807861, 1.675955057144165, 7.068366050720215, 0.2726023495197296, -0.27513161301612854, -0.8168529868125916, 0.6025390625, 0.193359375, -0.69287109375
373, 3203323957, -6.406582832336426, 1.699230432510376, 7.066335678100586, 0.12175636738538742, -0.7157468199729919, -0.8523393869400024, 0.605224609375, 0.1923828125, -0.69287109375
374, 3203340624, -6.403199195861816, 1.6940354108810425, 7.051050186157227, -0.02270565927028656, -1.0352013111114502, -0.9315723776817322, 0.60498046875, 0.19287109375, -0.6943359375
375, 3203357291, -6.3942790031433105, 1.708125352859497, 7.075462818145752, -0.22651872038841248, -1.3455249071121216, -1.08395516872406, 0.604248046875, 0.19091796875, -0.69384765625
376, 3203373958, -6.40083646774292, 1.6889582872390747, 7.047491073608398, -0.3409818708896637, -1.3773741722106934, -1.0618385076522827, 0.605224609375, 0.19189453125, -0.6943359375
377, 3203390625, -6.396432399749756, 1.6885440349578857, 7.089662551879883, -0.2485840767621994, -1.410888433456421, -1.0033774375915527, 0.6044921875, 0.1923828125, -0.6943359375
378, 3203407292, -6.400084972381592, 1.7047628164291382, 7.091648101806641, -0.24686798453330994, -1.531869888305664, -0.9843728542327881, 0.6044921875, 0.19189453125, -0.696044921875
379, 3203423959, -6.387455940246582, 1.7020699977874756, 7.071932315826416, -0.4124796688556671, -1.601062536239624, -1.0304116010665894, 0.60400390625, 0.19140625, -0.6953125
380, 3203440626, -6.38938570022583, 1.668229579925537, 7.0602946281433105, -0.17621533572673798, -1.593276023864746, -0.8860583901405334, 0.60595703125, 0.193603515625, -0.696044921875
381, 3203457293, -6.390284061431885, 1.6686733961105347, 7.0832319259643555, 0.13843025267124176, -1.3417341709136963, -0.5535032749176025, 0.605224609375, 0.18994140625, -0.6953125
382, 3203473960, -6.383480072021484, 1.6726473569869995, 7.082525730133057, 0.4080423414707184, -1.1830635070800781, -0.2295026034116745, 0.6025390625, 0.194091796875, -0.696044921875
383, 3203490627, -6.3794660568237305, 1.6741280555725098, 7.057919502258301, 0.4385470151901245, -1.1161502599716187, -0.22659555077552795, 0.603515625, 0.1923828125, -0.69482421875
384, 3203507294, -6.374722480773926, 1.689754605293274, 7.052567481994629, 0.4843169152736664, -1.3429250717163086, 0.06846915185451508, 0.6025390625, 0.1904296875, -0.695556640625
385, 3203523961, -6.357801914215088, 1.7419787645339966, 7.081050872802734, 0.4602665901184082, -1.4487438201904297, 0.030754446983337402, 0.605224609375, 0.1904296875, -0.696044921875
386, 3203540628, -6.3662519454956055, 1.7468955516815186, 7.081605911254883, 0.27192363142967224, -1.3509674072265625, -0.17980113625526428, 0.604736328125, 0.1884765625, -0.69580078125
387, 3203557295, -6.36452054977417, 1.750104308128357, 7.061046123504639, 0.4451935887336731, -1.046112298965454, -0.3973938524723053, 0.6044921875, 0.18994140625, -0.697509765625
388, 3203573962, -6.365251541137695, 1.750828504562378, 7.082598686218262, 0.6969408392906189, -0.8702171444892883, -0.474091112613678, 0.60205078125, 0.18896484375, -0.693359375
389, 3203590629, -6.372114658355713, 1.7424896955490112, 7.087944507598877, 0.6493138670921326, -0.7104577422142029, -0.5986071825027466, 0.603271484375, 0.188720703125, -0.6953125
390, 3203607296, -6.374466896057129, 1.7227935791015625, 7.078151702880859, 0.45365849137306213, -0.8365107178688049, -0.6866892576217651, 0.603271484375, 0.187744140625, -0.69580078125
391, 3203623963, -6.373363971710205, 1.74606192111969, 7.065200328826904, 0.142233744263649, -1.0530790090560913, -0.7413596510887146, 0.6025390625, 0.188720703125, -0.6953125
392, 3203640630, -6.376244068145752, 1.7402640581130981, 7.082103729248047, 0.005884517915546894, -1.3509290218353271, -0.7992059588432312, 0.603759765625, 0.1884765625, -0.69580078125
393, 3203657297, -6.37270975112915, 1.7555936574935913, 7.089587688446045, -0.061380837112665176, -1.3763368129730225, -0.9275766015052795, 0.60205078125, 0.188232421875, -0.696044921875
394, 3203673964, -6.378505229949951, 1.7600980997085571, 7.072220325469971, -0.22349640727043152, -1.3242405652999878, -0.9383083581924438, 0.603759765625, 0.18896484375, -0.69580078125
395, 3203690631, -6.3749494552612305, 1.7623271942138672, 7.079423904418945, -0.38502293825149536, -1.4403302669525146, -0.9748322367668152, 0.6025390625, 0.186767578125, -0.69580078125
396, 3203707298, -6.360769271850586, 1.7479794025421143, 7.076162815093994, -0.5611870288848877, -1.5536662340164185, -1.1792597770690918, 0.60107421875, 0.189208984375, -0.696044921875
397, 3203723965, -6.3595356941223145, 1.7296053171157837, 7.107300758361816, -0.5026747584342957, -1.444082260131836, -1.2316762208938599, 0.60302734375, 0.18896484375, -0.69580078125
398, 3203740632, -6.352312088012695, 1.7145967483520508, 7.10209846496582, -0.3842160701751709, -1.5037342309951782, -1.177018642425537, 0.60107421875, 0.187744140625, -0.6953125
399, 3203757299, -6.356318950653076, 1.7312960624694824, 7.062464714050293, -0.33501413464546204, -1.4247193336486816, -1.0306936502456665, 0.6025390625, 0.188720703125, -0.698974609375
400, 3203773966, -6.363569736480713, 1.7436339855194092, 7.079850196838379, -0.36988574266433716, -1.4113621711730957, -1.1569766998291016, 0.603759765625, 0.188232421875, -0.696533203125
401, 3203790633, -6.3432536125183105, 1.7489680051803589, 7.074844837188721, -0.19151896238327026, -1.1803996562957764, -1.1690917015075684, 0.60205078125, 0.187744140625, -0.697021484375
402, 3203807300, -6.348283290863037, 1.7485156059265137, 7.067568302154541, -0.19547612965106964, -0.9990361928939819, -1.242139220237732, 0.60205078125, 0.189453125, -0.697509765625
403, 3203823967, -6.354372978210449, 1.736474633216858, 7.075655460357666, -0.1472986489534378, -0.9219931364059448, -1.3810625076293945, 0.6025390625, 0.18896484375, -0.69482421875
404, 3203840634, -6.359481334686279, 1.7270113229751587, 7.064323902130127, -0.21323852241039276, -1.0000221729278564, -1.3514283895492554, 0.6025390625, 0.187255859375, -0.697021484375
405, 3203857301, -6.3420939445495605, 1.7409976720809937, 7.070300102233887, -0.15357373654842377, -1.1018198728561401, -1.2325726747512817, 0.6025390625, 0.18896484375, -0.698974609375
406, 3203873968, -6.354236125946045, 1.7518659830093384, 7.080138206481934, -0.168390691280365, -0.9788405895233154, -1.3945732116699219, 0.60400390625, 0.189453125, -0.696044921875
407, 3203890635, -6.347775936126709, 1.7400996685028076, 7.06337833404541, -0.24309013783931732, -0.9343641400337219, -1.374351978302002, 0.60107421875, 0.187744140625, -0.6953125
408, 3203907302, -6.362142562866211, 1.7448787689208984, 7.1045002937316895, -0.2088971585035324, -0.7653330564498901, -1.3864666223526, 0.6015625, 0.1904296875, -0.696044921875
409, 3203923969, -6.353827476501465, 1.7442584037780762, 7.0881242752075195, -0.2209351360797882, -0.7456881403923035, -1.3612509965896606, 0.599609375, 0.188232421875, -0.698486328125
410, 3203940636, -6.361895561218262, 1.7202562093734741, 7.0753889083862305, -0.1710416078567505, -0.6900445818901062, -1.3929338455200195, 0.6025390625, 0.18896484375, -0.697021484375
411, 3203957303, -6.362589359283447, 1.7434208393096924, 7.076415061950684, -0.27117446064949036, -0.8917189836502075, -1.3781169652938843, 0.6025390625, 0.187744140625, -0.696533203125
412, 3203973970, -6.35077428817749, 1.7522928714752197, 7.084360122680664, -0.3741631507873535, -0.8779905438423157, -1.3900909423828125, 0.604248046875, 0.187744140625, -0.697998046875
413, 3203990637, -6.372851848602295, 1.7449146509170532, 7.069211959838867, -0.4798922836780548, -1.0203073024749756, -1.5062185525894165, 0.6025390625, 0.189453125, -0.698486328125
414, 3204007304, -6.343268394470215, 1.7425016164779663, 7.079555511474609, -0.5240357518196106, -1.0443832874298096, -1.6347047090530396, 0.6005859375, 0.187744140625, -0.697509765625
415, 3204023971, -6.345135688781738, 1.7199031114578247, 7.077179431915283, -0.48496365547180176, -1.082239031791687, -1.5857974290847778, 0.6025390625, 0.188720703125, -0.69580078125
416, 3204040638, -6.344731330871582, 1.725803256034851, 7.082217693328857, -0.5652594566345215, -1.1167136430740356, -1.583594799041748, 0.6025390625, 0.1904296875, -0.697998046875
417, 3204057305, -6.353833198547363, 1.72234046459198, 7.099653244018555, -0.5475866794586182, -1.1172771453857422, -1.4701433181762695, 0.6015625, 0.18994140625, -0.697021484375
418, 3204073972, -6.355782985687256, 1.7328550815582275, 7.082822799682617, -0.5424641370773315, -1.2043347358703613, -1.5792661905288696, 0.603515625, 0.189453125, -0.697998046875
419, 3204090639, -6.3565216064453125, 1.7310346364974976, 7.103809356689453, -0.5876576900482178, -1.0825461149215698, -1.574988603591919, 0.59912109375, 0.188720703125, -0.697021484375
420, 3204107306, -6.340216636657715, 1.707746982574463, 7.0824809074401855, -0.5186571478843689, -1.0698808431625366, -1.517833948135376, 0.60205078125, 0.188232421875, -0.699951171875
421, 3204123973, -6.360076427459717, 1.6930296421051025, 7.098510265350342, -0.3388560116291046, -0.9920567274093628, -1.4167152643203735, 0.60400390625, 0.1904296875, -0.697509765625
422, 3204140640, -6.3421125411987305, 1.7262872457504272, 7.098996162414551, -0.3707822263240814, -0.9773421287536621, -1.2194974422454834, 0.60107421875, 0.188720703125, -0.697998046875
423, 3204157307, -6.340560436248779, 1.720644474029541, 7.111291885375977, -0.517402172088623, -1.0247129201889038, -1.265753984451294, 0.60302734375, 0.18994140625, -0.699462890625
424, 3204173974, -6.336150169372559, 1.7389116287231445, 7.098015308380127, -0.509833574295044, -1.1014740467071533, -1.2680718898773193, 0.6015625, 0.1904296875, -0.697509765625
425, 3204190641, -6.340683937072754, 1.736708641052246, 7.106724262237549, -0.5917302370071411, -0.9902638792991638, -1.3530805110931396, 0.6005859375, 0.188720703125, -0.697998046875
426, 3204207308, -6.3471479415893555, 1.7107841968536377, 7.089860439300537, -0.4774719178676605, -0.9440969228744507, -1.3838285207748413, 0.60107421875, 0.189453125, -0.698486328125
427, 3204223975, -6.334641933441162, 1.715103030204773, 7.104378700256348, -0.47188839316368103, -0.887403130531311, -1.3632999658584595, 0.60107421875, 0.188232421875, -0.697021484375
428, 3204240642, -6.351283073425293, 1.7141432762145996, 7.107529163360596, -0.43396875262260437, -0.8754420280456543, -1.3199248313903809, 0.59912109375, 0.19140625, -0.698974609375
429, 3204257309, -6.342188835144043, 1.7150465250015259, 7.110044479370117, -0.3030494749546051, -0.86787348985672, -1.3640938997268677, 0.60107421875, 0.189208984375, -0.697021484375
430, 3204273976, -6.352078437805176, 1.7063407897949219, 7.0780463218688965, -0.2719428241252899, -0.7877312898635864, -1.3102431297302246, 0.60400390625, 0.187744140625, -0.699462890625
431, 3204290643, -6.343123435974121, 1.7140573263168335, 7.0873284339904785, -0.32392382621765137, -0.8299795389175415, -1.1911059617996216, 0.603515625, 0.18994140625, -0.697998046875
432, 3204307310, -6.343429088592529, 1.7334717512130737, 7.100710391998291, -0.26401570439338684, -0.8950741291046143, -1.319438099861145, 0.60302734375, 0.187744140625, -0.698974609375
433, 3204323977, -6.354227542877197, 1.7051823139190674, 7.0936079025268555, -0.3259984850883484, -0.9201363325119019, -1.3825352191925049, 0.60302734375, 0.18994140625, -0.698974609375
434, 3204340644, -6.344802379608154, 1.7113112211227417, 7.104686737060547, -0.27675801515579224, -0.8554129004478455, -1.3169794082641602, 0.60107421875, 0.187744140625, -0.699462890625
435, 3204357311, -6.347721576690674, 1.7137941122055054, 7.081880569458008, -0.26751184463500977, -0.9377449750900269, -1.308847427368164, 0.6015625, 0.18994140625, -0.699951171875
436, 3204373978, -6.337740898132324, 1.7298084497451782, 7.104084014892578, -0.22724869847297668, -0.7629895806312561, -1.4021289348602295, 0.60205078125, 0.18994140625, -0.699951171875
437, 3204390645, -6.345207691192627, 1.7092393636703491, 7.120838642120361, -0.30014240741729736, -0.8202851414680481, -1.3310792446136475, 0.60205078125, 0.189453125, -0.698974609375
438, 3204407312, -6.360492706298828, 1.7012524604797363, 7.1095781326293945, -0.125041201710701, -0.7064879536628723, -1.2498100996017456, 0.6015625, 0.18994140625, -0.697509765625
439, 3204423979, -6.348759651184082, 1.7347314357757568, 7.08318567276001, -0.15909329056739807, -0.7252364754676819, -1.3718801736831665, 0.60205078125, 0.18896484375, -0.697509765625
440, 3204440646, -6.334737300872803, 1.7221202850341797, 7.078855991363525, -0.1639084815979004, -0.41837066411972046, -1.367462158203125, 0.6005859375, 0.189453125, -0.699462890625
441, 3204457313, -6.34655237197876, 1.6974550485610962, 7.089949131011963, -0.24699607491493225, -0.4794953465461731, -1.5115973949432373, 0.60009765625, 0.19189453125, -0.698486328125
442, 3204473980, -6.35516881942749, 1.7174240350723267, 7.099769592285156, -0.21727252006530762, -0.5831115245819092, -1.476059913635254, 0.603515625, 0.19140625, -0.697998046875
443, 3204490647, -6.360508918762207, 1.7227634191513062, 7.090366840362549, -0.215748593211174, -0.7134034037590027, -1.4662760496139526, 0.60205078125, 0.19091796875, -0.695556640625
444, 3204507314, -6.344709873199463, 1.719614028930664, 7.067698001861572, -0.15814562141895294, -0.8135105967521667, -1.4466564655303955, 0.6025390625, 0.18994140625, -0.697998046875
445, 3204523981, -6.3480634689331055, 1.6989630460739136, 7.100636959075928, -0.24351276457309723, -0.8816660046577454, -1.4572601318359375, 0.60107421875, 0.19189453125, -0.698974609375
446, 3204540648, -6.360768795013428, 1.7000463008880615, 7.079906940460205, -0.24147653579711914, -0.8971743583679199, -1.3277112245559692, 0.60302734375, 0.188720703125, -0.698486328125
447, 3204557315, -6.341519832611084, 1.716902494430542, 7.086165428161621, -0.16046357154846191, -0.887492835521698, -1.4199810028076172, 0.60302734375, 0.18896484375, -0.698974609375
448, 3204573982, -6.3402276039123535, 1.7040835618972778, 7.095994472503662, -0.2913188636302948, -0.9385005235671997, -1.4212359189987183, 0.60205078125, 0.189453125, -0.696044921875
449, 3204590649, -6.340173721313477, 1.7200262546539307, 7.092020511627197, -0.2681393623352051, -1.0951862335205078, -1.3714064359664917, 0.60107421875, 0.1923828125, -0.698974609375
450, 3204607316, -6.354928493499756, 1.7133468389511108, 7.09210205078125, -0.22897756099700928, -1.0394530296325684, -1.311767339706421, 0.6015625, 0.189208984375, -0.697998046875
451, 3204623983, -6.349340915679932, 1.719683051109314, 7.109872817993164, -0.10092685371637344, -0.9928122758865356, -1.3547453880310059, 0.60205078125, 0.19091796875, -0.698486328125
452, 3204640650, -6.350124835968018, 1.716166377067566, 7.109411716461182, -0.121993288397789, -0.9660342335700989, -1.374646544456482, 0.60009765625, 0.18994140625, -0.697509765625
453, 3204657317, -6.342736721038818, 1.7269866466522217, 7.079649925231934, -0.1566600650548935, -1.199109673500061, -1.3755810260772705, 0.6025390625, 0.1904296875, -0.697021484375
454, 3204673984, -6.345007419586182, 1.7144076824188232, 7.087325096130371, -0.03920023888349533, -1.11763596534729, -1.4100817441940308, 0.60107421875, 0.1904296875, -0.697509765625
455, 3204690651, -6.348474025726318, 1.7041507959365845, 7.081622123718262, -0.1504489928483963, -1.0557554960250854, -1.325341820716858, 0.60205078125, 0.189208984375, -0.698486328125
456, 3204707318, -6.353219985961914, 1.706079125404358, 7.088252067565918, -0.08773630857467651, -1.043461561203003, -1.3127278089523315, 0.6005859375, 0.19189453125, -0.697998046875
457, 3204723985, -6.337026596069336, 1.701802372932434, 7.089207649230957, -0.07878465205430984, -1.1165087223052979, -1.2105330228805542, 0.6025390625, 0.1904296875, -0.696044921875
458, 3204740652, -6.332583427429199, 1.7097233533859253, 7.111940860748291, -0.01964494213461876, -0.9441608786582947, -1.2155531644821167, 0.6025390625, 0.189453125, -0.697998046875
459, 3204757319, -6.354410171508789, 1.7017674446105957, 7.101332187652588, 0.16797450184822083, -0.8015878796577454, -1.2894586324691772, 0.60302734375, 0.187744140625, -0.699951171875
460, 3204773986, -6.344757556915283, 1.7192986011505127, 7.087935447692871, 0.11855479329824448, -0.7472121119499207, -1.1824103593826294, 0.60302734375, 0.19189453125, -0.697998046875
461, 3204790653, -6.355356693267822, 1.7228176593780518, 7.113968372344971, 0.023301152512431145, -0.7721076607704163, -1.237106204032898, 0.60107421875, 0.189208984375, -0.698974609375
462, 3204807320, -6.3439202308654785, 1.730634093284607, 7.094898223876953, -0.1329042911529541, -0.7724149823188782, -1.3660404682159424, 0.599609375, 0.18994140625, -0.696044921875
463, 3204823987, -6.355167388916016, 1.7015177011489868, 7.096607685089111, -0.06577341258525848, -0.7292192578315735, -1.349123477935791, 0.60107421875, 0.1904296875, -0.697509765625
464, 3204840654, -6.354039669036865, 1.687985897064209, 7.084648132324219, -0.0043029338121414185, -0.584955632686615, -1.135103702545166, 0.60302734375, 0.19091796875, -0.697021484375
465, 3204857321, -6.347121715545654, 1.6981639862060547, 7.097535133361816, 0.2158830314874649, -0.5170563459396362, -1.0532069206237793, 0.60107421875, 0.19091796875, -0.698486328125
466, 3204873988, -6.352293014526367, 1.7359886169433594, 7.0846967697143555, 0.08151881396770477, -0.6660711169242859, -0.9749858379364014, 0.60302734375, 0.18994140625, -0.699462890625
467, 3204890655, -6.334672451019287, 1.736059546470642, 7.083632469177246, -0.055464304983615875, -0.7212151885032654, -1.203258991241455, 0.6015625, 0.18994140625, -0.697021484375
468, 3204907322, -6.347994804382324, 1.7261050939559937, 7.090551376342773, -0.2221517413854599, -0.763706624507904, -1.3639787435531616, 0.6005859375, 0.18994140625, -0.698486328125
469, 3204923989, -6.337676048278809, 1.7190349102020264, 7.101525783538818, -0.16872365772724152, -0.6923497319221497, -1.3884773254394531, 0.60205078125, 0.19189453125, -0.697509765625
470, 3204940656, -6.336076259613037, 1.7117607593536377, 7.105718612670898, -0.1878819614648819, -0.6343113780021667, -1.2613872289657593, 0.6025390625, 0.1904296875, -0.697998046875
471, 3204957323, -6.356980800628662, 1.7177472114562988, 7.087344646453857, -0.042427439242601395, -0.552004873752594, -1.1515470743179321, 0.59814453125, 0.190185546875, -0.698486328125
472, 3204973990, -6.35163688659668, 1.720942497253418, 7.094712734222412, 0.0275912806391716, -0.5650545954704285, -1.2142083644866943, 0.60107421875, 0.188720703125, -0.697509765625
473, 3204990657, -6.35672664642334, 1.7274296283721924, 7.102130889892578, -0.15571241080760956, -0.7122763395309448, -1.3655667304992676, 0.60107421875, 0.19091796875, -0.698974609375
474, 3205007324, -6.35541296005249, 1.7350116968154907, 7.086759567260742, -0.1520625799894333, -0.7718386054039001, -1.3083349466323853, 0.60205078125, 0.189453125, -0.695556640625
475, 3205023991, -6.351230621337891, 1.7178200483322144, 7.10073184967041, -0.1179080605506897, -0.7133393287658691, -1.3811521530151367, 0.60205078125, 0.19189453125, -0.697021484375
476, 3205040658, -6.351426601409912, 1.7205520868301392, 7.111811637878418, -0.19078899919986725, -0.7012244462966919, -1.2400901317596436, 0.60205078125, 0.189453125, -0.698974609375
477, 3205057325, -6.367822170257568, 1.712391972541809, 7.08098840713501, -0.17347483336925507, -0.7591092586517334, -1.2658437490463257, 0.603515625, 0.189453125, -0.698974609375
478, 3205073992, -6.35678768157959, 1.7192485332489014, 7.0910820960998535, -0.17469142377376556, -0.7454063296318054, -1.237810492515564, 0.60400390625, 0.18896484375, -0.699462890625
479, 3205090659, -6.355630874633789, 1.7288599014282227, 7.097757816314697, -0.19413143396377563, -0.7204083800315857, -1.3693444728851318, 0.59912109375, 0.1904296875, -0.696533203125
480, 3205107326, -6.362615585327148, 1.7238008975982666, 7.103393077850342, -0.19781967997550964, -0.7225982546806335, -1.3959561586380005, 0.60205078125, 0.188232421875, -0.697509765625
481, 3205123993, -6.359246730804443, 1.7085098028182983, 7.1098809242248535, -0.20935821533203125, -0.6594501733779907, -1.422337293624878, 0.60205078125, 0.188720703125, -0.696044921875
482, 3205140660, -6.362329483032227, 1.7109172344207764, 7.085144996643066, -0.26156967878341675, -0.7734266519546509, -1.3783345222473145, 0.6005859375, 0.1904296875, -0.697509765625
483, 3205157327, -6.335875034332275, 1.7111178636550903, 7.085764408111572, -0.29607000946998596, -0.8072482943534851, -1.383239507675171, 0.60302734375, 0.189453125, -0.697021484375
484, 3205173994, -6.340981483459473, 1.7126951217651367, 7.110440731048584, -0.3130512535572052, -0.9082648158073425, -1.3725076913833618, 0.6025390625, 0.18896484375, -0.698974609375
485, 3205190661, -6.3612565994262695, 1.7362207174301147, 7.0920023918151855, -0.36122870445251465, -0.9801723957061768, -1.45021653175354, 0.60302734375, 0.189453125, -0.696044921875
486, 3205207328, -6.340635776519775, 1.7147397994995117, 7.0914387702941895, -0.42469701170921326, -0.8773118853569031, -1.4487313032150269, 0.60205078125, 0.18994140625, -0.696044921875
487, 3205223995, -6.348358154296875, 1.7122271060943604, 7.0730061531066895, -0.38529184460639954, -0.8047894835472107, -1.4985606670379639, 0.60107421875, 0.18994140625, -0.696533203125
488, 3205240662, -6.34768009185791, 1.714455246925354, 7.089199542999268, -0.2897052764892578, -0.8874801993370056, -1.493835210800171, 0.60107421875, 0.189208984375, -0.697021484375
489, 3205257329, -6.355185031890869, 1.7129793167114258, 7.113614082336426, -0.35613176226615906, -0.874801754951477, -1.5124298334121704, 0.60302734375, 0.18994140625, -0.697509765625
490, 3205273996, -6.366425037384033, 1.7006933689117432, 7.095794200897217, -0.23156441748142242, -0.9271156787872314, -1.488930106163025, 0.60302734375, 0.1923828125, -0.697509765625
491, 3205290663, -6.354879856109619, 1.7076308727264404, 7.098940849304199, -0.2148008942604065, -0.9837837219238281, -1.5142356157302856, 0.6015625, 0.18994140625, -0.697998046875
492, 3205307330, -6.351503849029541, 1.7185760736465454, 7.074404239654541, -0.26838263869285583, -0.9812096357345581, -1.5345079898834229, 0.6005859375, 0.188720703125, -0.698486328125
493, 3205323997, -6.352670192718506, 1.7024356126785278, 7.097667217254639, -0.3754821717739105, -0.924247145652771, -1.417726993560791, 0.60205078125, 0.19140625, -0.699462890625
494, 3205340664, -6.349597930908203, 1.7316057682037354, 7.092568397521973, -0.3873920142650604, -1.0080900192260742, -1.5286554098129272, 0.6005859375, 0.18994140625, -0.698974609375
495, 3205357331, -6.347871780395508, 1.7151390314102173, 7.100091934204102, -0.4900989532470703, -0.9659187197685242, -1.5923669338226318, 0.60205078125, 0.18994140625, -0.698974609375
496, 3205373998, -6.358673095703125, 1.7065736055374146, 7.077688694000244, -0.34155818819999695, -0.8300948143005371, -1.4821943044662476, 0.6025390625, 0.19140625, -0.697509765625
497, 3205390665, -6.34528112411499, 1.6992546319961548, 7.111003398895264, -0.2719300389289856, -0.7507210373878479, -1.4640474319458008, 0.60302734375, 0.1923828125, -0.696044921875
498, 3205407332, -6.341681957244873, 1.714656949043274, 7.127259731292725, -0.32145217061042786, -0.7427939176559448, -1.4530980587005615, 0.60009765625, 0.19287109375, -0.699462890625
499, 3205423999, -6.353445529937744, 1.7073214054107666, 7.113182544708252, -0.31329455971717834, -0.7464565634727478, -1.4566199779510498, 0.6025390625, 0.18994140625, -0.697998046875
500, 3205440666, -6.3491644859313965, 1.7016410827636719, 7.079403877258301, -0.34879371523857117, -0.8131391406059265, -1.3969166278839111, 0.60205078125, 0.1904296875, -0.698974609375
501, 3205457333, -6.346611499786377, 1.6949255466461182, 7.0785980224609375, -0.2315259873867035, -0.8373687863349915, -1.4116182327270508, 0.6015625, 0.189453125, -0.697998046875
502, 3205474000, -6.340550422668457, 1.705824613571167, 7.108137130737305, -0.21659381687641144, -0.8764538168907166, -1.3754404783248901, 0.6025390625, 0.1923828125, -0.696533203125
503, 3205490667, -6.353678226470947, 1.7090855836868286, 7.104395389556885, -0.22973309457302094, -0.7209718227386475, -1.325866937637329, 0.60205078125, 0.189453125, -0.697509765625
504, 3205507334, -6.349008560180664, 1.717271089553833, 7.104132175445557, -0.2242775857448578, -0.7297313809394836, -1.429291009902954, 0.60302734375, 0.19189453125, -0.697021484375
505, 3205524001, -6.341477394104004, 1.702443242073059, 7.088802337646484, -0.23262736201286316, -0.5508908033370972, -1.5235458612442017, 0.6015625, 0.1904296875, -0.697021484375
506, 3205540668, -6.335822105407715, 1.699079155921936, 7.067841529846191, -0.196039617061615, -0.5804222226142883, -1.4514973163604736, 0.60400390625, 0.19091796875, -0.697021484375
507, 3205557335, -6.3687825202941895, 1.7050150632858276, 7.1036763191223145, -0.1786869913339615, -0.5893226265907288, -1.5077171325683594, 0.6025390625, 0.193359375, -0.697021484375
508, 3205574002, -6.348894119262695, 1.6882843971252441, 7.066620826721191, -0.20906364917755127, -0.5664248466491699, -1.4437878131866455, 0.6015625, 0.18994140625, -0.696044921875
509, 3205590669, -6.357368469238281, 1.698468565940857, 7.110766887664795, -0.2833917438983917, -0.6713985204696655, -1.5722099542617798, 0.6005859375, 0.19140625, -0.696044921875
510, 3205607336, -6.361398220062256, 1.690300703048706, 7.099071979522705, -0.30260124802589417, -0.6962940096855164, -1.5110981464385986, 0.6044921875, 0.19189453125, -0.697998046875
511, 3205624003, -6.349668025970459, 1.6913769245147705, 7.1093244552612305, -0.19437479972839355, -0.7696360349655151, -1.4537385702133179, 0.60400390625, 0.18994140625, -0.697021484375
512, 3205640670, -6.370902061462402, 1.6989580392837524, 7.08861780166626, -0.22905439138412476, -0.5847635865211487, -1.4328641891479492, 0.6015625, 0.1904296875, -0.697021484375
513, 3205657337, -6.357151031494141, 1.690506935119629, 7.08638334274292, -0.19785811007022858, -0.6861770153045654, -1.485177993774414, 0.60400390625, 0.19140625, -0.698974609375
514, 3205674004, -6.356441974639893, 1.697098731994629, 7.057790756225586, -0.12915202975273132, -0.731204092502594, -1.4649438858032227, 0.60400390625, 0.19140625, -0.697021484375
515, 3205690671, -6.365088939666748, 1.6839009523391724, 7.09006404876709, -0.17414075136184692, -0.8754675984382629, -1.3633641004562378, 0.603515625, 0.19287109375, -0.696044921875
516, 3205707338, -6.350998401641846, 1.7052593231201172, 7.053796768188477, -0.25975123047828674, -1.0249691009521484, -1.3186699151992798, 0.60009765625, 0.19189453125, -0.696044921875
517, 3205724005, -6.364110946655273, 1.700303316116333, 7.095391273498535, -0.2495061159133911, -0.9535608887672424, -1.3880418539047241, 0.60302734375, 0.1904296875, -0.697021484375
518, 3205740672, -6.357043266296387, 1.7030366659164429, 7.0980448722839355, -0.25423169136047363, -0.889362633228302, -1.4328001737594604, 0.60205078125, 0.19384765625, -0.695556640625
519, 3205757339, -6.354324817657471, 1.7022831439971924, 7.097723007202148, -0.28729766607284546, -0.7657044529914856, -1.3114471435546875, 0.6015625, 0.19287109375, -0.697509765625
520, 3205774006, -6.359437942504883, 1.703694462776184, 7.093669414520264, -0.19510476291179657, -0.7262994050979614, -1.4211976528167725, 0.603515625, 0.19091796875, -0.697998046875
521, 3205790673, -6.354533672332764, 1.6994253396987915, 7.099311828613281, -0.1892266422510147, -0.6575421094894409, -1.40985107421875, 0.60009765625, 0.19189453125, -0.699951171875
522, 3205807340, -6.363147258758545, 1.6929785013198853, 7.102293968200684, -0.23148757219314575, -0.7943650484085083, -1.3609691858291626, 0.60205078125, 0.19189453125, -0.696044921875
523, 3205824007, -6.376984119415283, 1.7045979499816895, 7.087738037109375, -0.27962666749954224, -0.8546060919761658, -1.4062012434005737, 0.6025390625, 0.193359375, -0.696533203125
524, 3205840674, -6.364767551422119, 1.685736060142517, 7.112315654754639, -0.41445186734199524, -0.9648815989494324, -1.4421998262405396, 0.60205078125, 0.19140625, -0.698486328125
525, 3205857341, -6.351738452911377, 1.695003867149353, 7.098454475402832, -0.4710047245025635, -1.0212167501449585, -1.384788990020752, 0.60205078125, 0.19091796875, -0.696044921875
526, 3205874008, -6.353427410125732, 1.676383376121521, 7.086678504943848, -0.3182506263256073, -1.0248538255691528, -1.345973014831543, 0.6025390625, 0.1923828125, -0.698974609375
527, 3205890675, -6.365535736083984, 1.7047853469848633, 7.098435401916504, -0.2166322022676468, -0.7616832256317139, -1.2670730352401733, 0.6015625, 0.19384765625, -0.696044921875
528, 3205907342, -6.360270023345947, 1.7071986198425293, 7.109350204467773, -0.039059367030858994, -0.18596100807189941, -1.306990385055542, 0.6005859375, 0.1923828125, -0.697021484375
529, 3205924009, -6.349909782409668, 1.6872304677963257, 7.081690311431885, 0.14717698097229004, -0.046141281723976135, -1.2641404867172241, 0.6015625, 0.19287109375, -0.698486328125
530, 3205940676, -6.374556064605713, 1.6829900741577148, 7.0599870681762695, 0.035979438573122025, -0.26740938425064087, -1.1932315826416016, 0.60302734375, 0.19091796875, -0.697509765625
531, 3205957343, -6.372552871704102, 1.6773403882980347, 7.094004154205322, -0.13052232563495636, -0.6213513016700745, -1.0973377227783203, 0.603515625, 0.19287109375, -0.696044921875
532, 3205974010, -6.374478340148926, 1.7173210382461548, 7.0884809494018555, -0.1577998399734497, -0.8880307078361511, -1.1363329887390137, 0.60009765625, 0.19140625, -0.697021484375
533, 3205990677, -6.367830276489258, 1.7189592123031616, 7.072577953338623, -0.16454878449440002, -0.9252971410751343, -1.1904525756835938, 0.60205078125, 0.19287109375, -0.697509765625
534, 3206007344, -6.354172229766846, 1.6944886445999146, 7.087080478668213, -0.16100142896175385, -0.7662166357040405, -1.2935181856155396, 0.60302734375, 0.18994140625, -0.696044921875
535, 3206024011, -6.361929416656494, 1.677704930305481, 7.070686340332031, -0.08153802156448364, -0.5021113157272339, -1.197713851928711, 0.603515625, 0.19287109375, -0.696533203125
536, 3206040678, -6.3512187004089355, 1.6985783576965332, 7.075780391693115, 0.07484670728445053, -0.5291327238082886, -1.1818596124649048, 0.60205078125, 0.19091796875, -0.698486328125
537, 3206057345, -6.3693132400512695, 1.7039189338684082, 7.062472820281982, -0.08640443533658981, -0.8026891946792603, -1.2812880277633667, 0.6025390625, 0.19140625, -0.698974609375
538, 3206074012, -6.357444763183594, 1.731738567352295, 7.076387405395508, -0.20091880857944489, -1.2767289876937866, -1.3959050178527832, 0.6044921875, 0.18994140625, -0.697998046875
539, 3206090679, -6.362847328186035, 1.6967271566390991, 7.090834617614746, -0.3852790892124176, -1.3999903202056885, -1.5241351127624512, 0.6044921875, 0.19287109375, -0.698486328125
540, 3206107346, -6.348715305328369, 1.6968353986740112, 7.103349208831787, -0.36859235167503357, -1.5048613548278809, -1.5505543947219849, 0.6025390625, 0.19140625, -0.696044921875
541, 3206124013, -6.353443622589111, 1.6513367891311646, 7.102980136871338, -0.3339383006095886, -1.4144482612609863, -1.449793815612793, 0.6005859375, 0.19140625, -0.697021484375
542, 3206140680, -6.350316047668457, 1.668135643005371, 7.100188255310059, 0.12570072710514069, -1.2888438701629639, -1.061479926109314, 0.6025390625, 0.19091796875, -0.697998046875
543, 3206157347, -6.353227138519287, 1.6987203359603882, 7.083841323852539, 0.25437891483306885, -1.3964042663574219, -0.919662356376648, 0.60302734375, 0.19287109375, -0.697509765625
544, 3206174014, -6.325703144073486, 1.7123304605484009, 7.077972412109375, 0.20971040427684784, -1.3615199327468872, -0.7814435362815857, 0.60107421875, 0.19189453125, -0.697998046875
545, 3206190681, -6.339057445526123, 1.7239547967910767, 7.097886562347412, 0.07487233728170395, -1.5193582773208618, -0.845449686050415, 0.6015625, 0.19140625, -0.698486328125
546, 3206207348, -6.339960098266602, 1.7209105491638184, 7.1011199951171875, -0.08239604532718658, -1.7014387845993042, -1.142082929611206, 0.60009765625, 0.19189453125, -0.698974609375
547, 3206224015, -6.354336738586426, 1.7463268041610718, 7.039168357849121, -0.22079429030418396, -1.8251482248306274, -1.1768395900726318, 0.60205078125, 0.189453125, -0.698486328125
548, 3206240682, -6.333840370178223, 1.6572710275650024, 7.066873550415039, 0.39132997393608093, -1.7862423658370972, -0.6702201962471008, 0.60205078125, 0.19140625, -0.698486328125
549, 3206257349, -6.330333709716797, 1.6362462043762207, 7.119616985321045, 1.1983733177185059, -1.0218826532363892, -0.0012550221290439367, 0.6025390625, 0.1904296875, -0.699951171875
550, 3206274016, -6.316195011138916, 1.7563859224319458, 7.120147228240967, 1.3116326332092285, -1.0794343948364258, 0.05342167988419533, 0.60205078125, 0.19287109375, -0.699462890625
551, 3206290683, -6.333926677703857, 1.7581838369369507, 7.059250831604004, 1.0572729110717773, -1.4170866012573242, -0.2179768681526184, 0.6015625, 0.19091796875, -0.698974609375
552, 3206307350, -6.351470947265625, 1.6285244226455688, 7.0897321701049805, 1.9286044836044312, -1.456120491027832, 0.33580172061920166, 0.6005859375, 0.189453125, -0.70068359375
553, 3206324017, -6.347299098968506, 1.7035672664642334, 7.108499526977539, 2.520833730697632, -1.1777231693267822, 1.0412393808364868, 0.599609375, 0.189697265625, -0.70068359375
554, 3206340684, -6.352922439575195, 1.7945317029953003, 7.062474250793457, 2.3378052711486816, -1.5643978118896484, 0.9056970477104187, 0.60107421875, 0.187255859375, -0.698974609375
555, 3206357351, -6.301448822021484, 1.8221843242645264, 7.069935321807861, 2.629995346069336, -2.5148727893829346, 1.0585025548934937, 0.60205078125, 0.186767578125, -0.700927734375
556, 3206374018, -6.319079399108887, 1.5853530168533325, 7.124386787414551, 4.439749717712402, -1.8584702014923096, 2.6091208457946777, 0.6005859375, 0.185302734375, -0.700439453125
557, 3206390685, -6.345229148864746, 1.6607530117034912, 7.064852237701416, 5.480754375457764, -1.2779332399368286, 4.0291924476623535, 0.599609375, 0.1845703125, -0.701416015625
558, 3206407352, -6.359564304351807, 1.698055624961853, 7.071208953857422, 5.795150279998779, -1.600986123085022, 4.9119086265563965, 0.60009765625, 0.17919921875, -0.700927734375
559, 3206424019, -6.31574010848999, 1.8053735494613647, 7.10099983215332, 5.111828327178955, -2.5848212242126465, 4.897770404815674, 0.600830078125, 0.178466796875, -0.700927734375
560, 3206440686, -6.274313449859619, 1.9036386013031006, 7.069443225860596, 4.448664665222168, -3.412303924560547, 3.9847285747528076, 0.602294921875, 0.175048828125, -0.702880859375
561, 3206457353, -6.3184123039245605, 1.8082101345062256, 7.079805850982666, 4.2152557373046875, -3.5879807472229004, 3.7375268936157227, 0.600830078125, 0.175048828125, -0.702880859375
562, 3206474020, -6.276703357696533, 1.9073020219802856, 7.0957536697387695, 4.279491901397705, -4.437989711761475, 3.85921311378479, 0.598388671875, 0.1728515625, -0.702880859375
563, 3206490687, -6.266739845275879, 1.8367886543273926, 7.140661239624023, 4.198991298675537, -4.676456451416016, 3.647728681564331, 0.59716796875, 0.171875, -0.70361328125
564, 3206507354, -6.282669544219971, 1.975285530090332, 7.116695880889893, 4.307140827178955, -4.5556159019470215, 3.5775368213653564, 0.596923828125, 0.1708984375, -0.70361328125
565, 3206524021, -6.267380714416504, 2.1067259311676025, 7.130001544952393, 3.499725580215454, -3.931037187576294, 2.468122959136963, 0.597900390625, 0.166259765625, -0.70458984375
566, 3206540688, -6.27194881439209, 2.176474094390869, 7.125547409057617, 1.9476215839385986, -3.5800533294677734, 0.7631879448890686, 0.596923828125, 0.166748046875, -0.70751953125
567, 3206557355, -6.231346130371094, 2.1383283138275146, 7.158700942993164, 0.4416077733039856, -2.8189592361450195, -0.7555875182151794, 0.596923828125, 0.165283203125, -0.70654296875
568, 3206574022, -6.221811771392822, 1.957291603088379, 7.1741228103637695, 0.2700411081314087, -1.8931884765625, -1.3525938987731934, 0.599365234375, 0.166748046875, -0.7060546875
569, 3206590689, -6.237256050109863, 1.8876616954803467, 7.173559188842773, 1.2848035097122192, 0.025759974494576454, -1.0386589765548706, 0.597900390625, 0.166748046875, -0.70458984375
570, 3206607356, -6.2203688621521, 1.9924025535583496, 7.1365814208984375, 1.9747453927993774, 1.2729575634002686, -0.9112614393234253, 0.598876953125, 0.164794921875, -0.702880859375
571, 3206624023, -6.284615993499756, 1.9939435720443726, 7.059971332550049, 2.098903179168701, 1.248753547668457, -1.1250890493392944, 0.605224609375, 0.15771484375, -0.70068359375
572, 3206640690, -6.2548017501831055, 1.9829516410827637, 7.078330039978027, 1.4975427389144897, -0.03227200359106064, -0.9474139213562012, 0.6064453125, 0.15087890625, -0.69873046875
573, 3206657357, -6.271265506744385, 1.8611207008361816, 7.112361907958984, 1.2726757526397705, -0.606867253780365, -0.6014630198478699, 0.60302734375, 0.142822265625, -0.695556640625
574, 3206674024, -6.225595474243164, 1.9143669605255127, 7.118162155151367, 1.8042800426483154, -0.43934741616249084, -0.2941490411758423, 0.59912109375, 0.135986328125, -0.697021484375
575, 3206690691, -6.236361503601074, 1.9804903268814087, 7.091000080108643, 2.5498530864715576, 0.07794585078954697, -0.08695512264966965, 0.590576171875, 0.130859375, -0.697998046875
576, 3206707358, -6.239429950714111, 2.1006410121917725, 7.0747971534729, 1.3644078969955444, -0.5719316601753235, -0.6402278542518616, 0.581787109375, 0.13232421875, -0.702880859375
577, 3206724025, -6.256224155426025, 2.0553624629974365, 7.085000038146973, -0.2825336754322052, -1.891945719718933, -1.7691459655761719, 0.5791015625, 0.138427734375, -0.70751953125
578, 3206740692, -6.195284366607666, 2.0231375694274902, 7.107771396636963, -1.1871615648269653, -2.455284595489502, -2.3206772804260254, 0.5791015625, 0.142822265625, -0.70947265625
579, 3206757359, -6.181881904602051, 2.012298345565796, 7.125268459320068, -1.1386638879776, -1.6813585758209229, -2.4095661640167236, 0.58056640625, 0.149658203125, -0.70849609375
580, 3206774026, -6.143311977386475, 1.959426999092102, 7.106407165527344, 0.3965165615081787, -0.12391422688961029, -1.4877904653549194, 0.5830078125, 0.151611328125, -0.70703125
581, 3206790693, -6.08605432510376, 2.0549726486206055, 7.12727689743042, 3.2711708545684814, 2.9483485221862793, -0.4952472150325775, 0.583984375, 0.151123046875, -0.7060546875
582, 3206807360, -6.1622724533081055, 1.9479002952575684, 7.129804611206055, 7.516414165496826, 7.14129114151001, 1.2461289167404175, 0.583984375, 0.152587890625, -0.703369140625
583, 3206824027, -6.161735534667969, 1.9811451435089111, 7.1348981857299805, 6.471646785736084, 7.841222763061523, 1.5017564296722412, 0.584716796875, 0.150146484375, -0.701904296875
584, 3206840694, -6.073138236999512, 2.289094924926758, 7.084959030151367, 3.195230007171631, 8.3585205078125, -0.32639551162719727, 0.587646484375, 0.148681640625, -0.700439453125
585, 3206857361, -6.0079779624938965, 2.411505937576294, 7.05057954788208, -0.8990444540977478, 10.579041481018066, -3.37188720703125, 0.5908203125, 0.148193359375, -0.69677734375
586, 3206874028, -5.961085319519043, 2.423508405685425, 7.167746543884277, -4.5205559730529785, 15.12601089477539, -6.5371222496032715, 0.5927734375, 0.15283203125, -0.69580078125
587, 3206890695, -6.070061206817627, 2.0735812187194824, 6.970318794250488, -8.264993667602539, 21.687992095947266, -10.804548263549805, 0.59423828125, 0.154541015625, -0.68896484375
588, 3206907362, -6.227782249450684, 2.1163840293884277, 6.995452880859375, -14.518142700195312, 27.306833267211914, -19.993906021118164, 0.599853515625, 0.16064453125, -0.680908203125
589, 3206924029, -6.569912910461426, 1.9430322647094727, 6.937150955200195, -14.80056381225586, 29.78498077392578, -23.9167537689209, 0.603271484375, 0.166259765625, -0.6767578125
590, 3206940696, -6.345498561859131, 2.1142632961273193, 6.993009090423584, -12.132736206054688, 36.319087982177734, -25.846214294433594, 0.6103515625, 0.175048828125, -0.668212890625
591, 3206957363, -6.097738265991211, 1.62123441696167, 7.23748779296875, -3.177436113357544, 52.358604431152344, -28.22460174560547, 0.614990234375, 0.180419921875, -0.655517578125
592, 3206974030, -5.9277496337890625, 1.3496683835983276, 7.516829490661621, 8.646031379699707, 76.297119140625, -27.812149047851562, 0.628173828125, 0.186767578125, -0.644775390625
593, 3206990697, -6.238540172576904, 1.0233439207077026, 7.205908298492432, 12.544437408447266, 103.97186279296875, -23.388019561767578, 0.634521484375, 0.18896484375, -0.615478515625
594, 3207007364, -6.322340965270996, 1.2614401578903198, 7.154294967651367, 13.766120910644531, 131.01295471191406, -21.35678482055664, 0.64990234375, 0.192138671875, -0.583740234375
595, 3207024031, -6.570590019226074, 1.8257702589035034, 7.024129867553711, 10.1773042678833, 160.43084716796875, -25.73723602294922, 0.66357421875, 0.195556640625, -0.5458984375
596, 3207040698, -6.974802017211914, 1.5742188692092896, 6.7509918212890625, 6.663191318511963, 193.12753295898438, -31.299755096435547, 0.68115234375, 0.20458984375, -0.5
597, 3207057365, -7.137570858001709, 1.5680891275405884, 6.505038261413574, -1.0821062326431274, 233.0870361328125, -39.0711669921875, 0.698486328125, 0.216064453125, -0.442138671875
598, 3207074032, -7.546463489532471, 2.0612685680389404, 6.373457431793213, -14.047585487365723, 288.0248718261719, -45.097496032714844, 0.71337890625, 0.22314453125, -0.368408203125
599, 3207090699, -8.908535957336426, 2.0268430709838867, 6.016127586364746, -28.304838180541992, 353.2507019042969, -57.284420013427734, 0.72265625, 0.2392578125, -0.2802734375
600, 3207107366, -10.069049835205078, 2.3034253120422363, 6.387919902801514, -27.032730102539062, 415.8552551269531, -76.64295959472656, 0.724365234375, 0.25634765625, -0.170654296875
601, 3207124033, -14.892070770263672, 2.7659659385681152, 6.42210578918457, -16.23307228088379, 433.9814147949219, -77.99837493896484, 0.71435546875, 0.2763671875, -0.057373046875
602, 3207140700, -16.603687286376953, 2.595942735671997, 6.782021999359131, 0.045485079288482666, 420.5190124511719, -60.496490478515625, 0.685302734375, 0.2919921875, 0.049072265625
603, 3207157367, -17.893474578857422, 1.6690471172332764, 7.086568832397461, 27.79388999938965, 413.63702392578125, -46.79508972167969, 0.646484375, 0.305908203125, 0.151611328125
604, 3207174034, -21.040084838867188, 1.8038405179977417, 8.151252746582031, 59.64461898803711, 415.9783020019531, -38.04289627075195, 0.59130859375, 0.319580078125, 0.249267578125
605, 3207190701, -21.141864776611328, 0.9966492652893066, 11.82465934753418, 77.71903228759766, 373.5278625488281, -55.8201789855957, 0.53466796875, 0.341064453125, 0.328369140625
606, 3207207368, -17.038400650024414, 3.1791789531707764, 15.954130172729492, 90.89727783203125, 275.2579650878906, -83.27720642089844, 0.481201171875, 0.37158203125, 0.388916015625
607, 3207224035, -15.765585899353027, 10.091156959533691, 18.78080940246582, 71.91320037841797, 103.21552276611328, -47.44634246826172, 0.451171875, 0.398193359375, 0.4140625
608, 3207240702, -17.018239974975586, 9.284724235534668, 20.948007583618164, 9.556066513061523, -173.88937377929688, 10.682737350463867, 0.469482421875, 0.404052734375, 0.3916015625
609, 3207257369, -6.7247819900512695, 3.672412872314453, 11.894172668457031, -44.36882019042969, -275.053466796875, -16.71245765686035, 0.51708984375, 0.399658203125, 0.344482421875
610, 3207274036, -2.29040789604187, 0.4832417964935303, 6.981491565704346, -36.26396560668945, -257.9755859375, -46.427120208740234, 0.560302734375, 0.401123046875, 0.289306640625
611, 3207290703, -3.4008867740631104, 0.4875776767730713, 6.843698978424072, 10.170042037963867, -234.70095825195312, -48.154945373535156, 0.59130859375, 0.4091796875, 0.23779296875
612, 3207307370, -5.260005950927734, 2.5205392837524414, 7.884485721588135, 48.744712829589844, -256.7242736816406, -27.827259063720703, 0.622314453125, 0.421875, 0.172607421875
613, 3207324037, -6.14481782913208, 4.712071895599365, 7.87861442565918, 48.108760833740234, -297.6473388671875, -1.4420983791351318, 0.652099609375, 0.423828125, 0.09765625
614, 3207340704, -6.4636454582214355, 5.066135406494141, 6.809677600860596, 21.106040954589844, -326.42584228515625, 25.564138412475586, 0.672607421875, 0.41259765625, 0.015625
615, 3207357371, -7.153407096862793, 3.7188634872436523, 6.108077049255371, 3.3019814491271973, -335.8577880859375, 50.58332824707031, 0.683837890625, 0.396240234375, -0.063720703125
616, 3207374038, -8.847949981689453, 2.570633888244629, 6.384846210479736, 8.251333236694336, -344.3815612792969, 71.96727752685547, 0.701171875, 0.3779296875, -0.137451171875
617, 3207390705, -9.196317672729492, 1.9592362642288208, 6.278486251831055, 19.951255798339844, -352.9715881347656, 83.35621643066406, 0.71728515625, 0.369873046875, -0.220703125
618, 3207407372, -10.20274543762207, 1.0263437032699585, 6.637876510620117, 37.74409484863281, -347.38238525390625, 83.5970230102539, 0.73095703125, 0.35595703125, -0.320556640625
619, 3207424039, -11.444034576416016, 0.760200023651123, 6.81107759475708, 65.44405364990234, -338.84857177734375, 76.30026245117188, 0.732177734375, 0.331787109375, -0.427490234375
620, 3207440706, -12.807564735412598, 1.6519825458526611, 7.13131046295166, 87.88756561279297, -321.22698974609375, 68.7948226928711, 0.720458984375, 0.2998046875, -0.529541015625
621, 3207457373, -15.110333442687988, 2.71524715423584, 8.196572303771973, 87.22480773925781, -293.26959228515625, 72.48548889160156, 0.69775390625, 0.2587890625, -0.623779296875
622, 3207474040, -19.211734771728516, 2.2862472534179688, 10.750110626220703, 85.10276794433594, -286.2152404785156, 86.24163818359375, 0.653564453125, 0.213134765625, -0.70751953125
623, 3207490707, -20.819730758666992, 1.4295825958251953, 10.781107902526855, 89.82414245605469, -305.39105224609375, 94.11254119873047, 0.5947265625, 0.17529296875, -0.778564453125
624, 3207507374, -20.62233543395996, 0.7162183523178101, 8.974294662475586, 90.47393798828125, -312.9863586425781, 94.48773956298828, 0.531005859375, 0.135986328125, -0.842041015625
625, 3207524041, -19.319040298461914, -1.018953561782837, 5.705757141113281, 92.1521224975586, -300.43408203125, 98.54793548583984, 0.463134765625, 0.099609375, -0.8955078125
626, 3207540708, -19.94363021850586, -2.584017753601074, 3.4410738945007324, 89.5457992553711, -256.0369873046875, 92.2560806274414, 0.404296875, 0.0673828125, -0.931884765625
627, 3207557375, -22.32250213623047, -2.602933168411255, 2.04891300201416, 60.73946762084961, -233.22967529296875, 83.83112335205078, 0.351806640625, 0.045166015625, -0.960693359375
628, 3207574042, -20.168367385864258, -3.1571953296661377, -4.386534690856934, 8.817427635192871, -207.54405212402344, 75.2565689086914, 0.301513671875, 0.030029296875, -0.9853515625
629, 3207590709, -18.812339782714844, -5.881333351135254, -10.315679550170898, -20.992399215698242, -140.28048706054688, 55.67913818359375, 0.264892578125, 0.030029296875, -1.0029296875
630, 3207607376, -20.11426544189453, -7.056879043579102, -11.688199043273926, -3.3549258708953857, -63.86746597290039, 44.57406234741211, 0.2470703125, 0.02978515625, -1.011474609375
631, 3207624043, -20.03962516784668, -5.171298980712891, -10.893147468566895, -16.436800003051758, -2.3585548400878906, 30.17534637451172, 0.24072265625, 0.025634765625, -1.010986328125
632, 3207640710, -18.848371505737305, -4.733788013458252, -9.33082389831543, -63.961551666259766, 68.56212615966797, 3.3046340942382812, 0.2529296875, 0.0400390625, -1.00732421875
633, 3207657377, -16.072532653808594, -1.1140875816345215, 8.988058090209961, -64.75892639160156, 66.98689270019531, -34.92727279663086, 0.274658203125, 0.058349609375, -0.9951171875
634, 3207674044, 8.602180480957031, -1.9671084880828857, 18.60596466064453, -19.932947158813477, 64.16468811035156, -29.534759521484375, 0.279541015625, 0.066650390625, -0.98779296875
635, 3207690711, 8.339800834655762, 9.105890274047852, 5.339626312255859, -10.345771789550781, 296.9717712402344, -54.07284927368164, 0.3330078125, 0.0751953125, -0.94580078125
636, 3207707378, -22.384296417236328, 3.9591264724731445, 8.60783576965332, -19.49713897705078, 279.8108825683594, 21.67667579650879, 0.393798828125, 0.080810546875, -0.893798828125
637, 3207724045, -13.607437133789062, -7.757451057434082, 11.215130805969238, -10.281641960144043, 217.31700134277344, -2.5865328311920166, 0.43896484375, 0.080322265625, -0.85107421875
638, 3207740712, -12.750319480895996, 2.5516536235809326, 10.577131271362305, 10.219435691833496, 156.4461212158203, -32.1457405090332, 0.467529296875, 0.08447265625, -0.819091796875
639, 3207757379, -9.722978591918945, 4.745952129364014, 8.481864929199219, -0.5604416131973267, 132.80831909179688, -21.567359924316406, 0.49365234375, 0.08740234375, -0.79052734375
640, 3207774046, -9.000502586364746, 0.30668845772743225, 8.667680740356445, 0.17457742989063263, 108.62151336669922, -25.5981502532959, 0.510009765625, 0.090576171875, -0.769775390625
641, 3207790713, -9.421998023986816, 4.6232757568359375, 8.464841842651367, -4.651211738586426, 80.40150451660156, -33.72766876220703, 0.523681640625, 0.10009765625, -0.748779296875
642, 3207807380, -9.034584999084473, 5.0132551193237305, 8.090913772583008, -33.40755844116211, 53.20197296142578, -38.11184310913086, 0.532470703125, 0.1083984375, -0.73876953125
643, 3207824047, -7.558388710021973, 1.8348790407180786, 7.992223739624023, -45.43502426147461, 34.717559814453125, -40.68843460083008, 0.541748046875, 0.125, -0.731201171875
644, 3207840714, -6.812557697296143, 3.280339002609253, 7.077976703643799, -47.47707748413086, 28.465059280395508, -38.35468673706055, 0.54345703125, 0.140869140625, -0.729248046875
645, 3207857381, -7.912449836730957, -0.7395685911178589, 8.734856605529785, -37.19768142700195, 13.185567855834961, -26.695049285888672, 0.5498046875, 0.151123046875, -0.7236328125
646, 3207874048, -6.915151596069336, 1.2307595014572144, 7.5970072746276855, -24.484548568725586, 5.882082939147949, -15.40886402130127, 0.54931640625, 0.161376953125, -0.72412109375
647, 3207890715, -6.48737096786499, 1.1993396282196045, 7.362060070037842, -13.580110549926758, 5.1328349113464355, -7.64594841003418, 0.549560546875, 0.1630859375, -0.7236328125
648, 3207907382, -6.331710338592529, 2.0842909812927246, 7.183483123779297, -10.136486053466797, 4.3160810470581055, -5.900848388671875, 0.551025390625, 0.16650390625, -0.72265625
649, 3207924049, -6.215449810028076, 2.385586738586426, 7.08064079284668, -11.677374839782715, 0.9204378128051758, -8.347810745239258, 0.551513671875, 0.171142578125, -0.72216796875
650, 3207940716, -6.168129920959473, 2.469438076019287, 7.1054768562316895, -14.870085716247559, -1.3682961463928223, -11.347567558288574, 0.551025390625, 0.17333984375, -0.725341796875
651, 3207957383, -6.414681434631348, 1.7920016050338745, 7.1401686668396, -18.27863883972168, -3.2087390422821045, -13.854689598083496, 0.55029296875, 0.182373046875, -0.726318359375
652, 3207974050, -6.364228248596191, 0.9395463466644287, 7.31382417678833, -14.855628967285156, -1.040261149406433, -11.74985408782959, 0.552001953125, 0.191650390625, -0.7265625
653, 3207990717, -6.2216315269470215, 0.7690051794052124, 7.381350040435791, -6.583811283111572, 4.1023688316345215, -5.410569667816162, 0.561767578125, 0.193359375, -0.723876953125
654, 3208007384, -6.213812828063965, 1.1346937417984009, 7.363749980926514, 2.979891300201416, 10.342866897583008, 1.3486946821212769, 0.5693359375, 0.176513671875, -0.71435546875
