sep=,
DeviceTag:,A,,,,,,,,,,,,,,,,,
FirmwareVersion:,2.2.1,,,,,,,,,,,,,,,,,
AppVersion:,2023.6.1,,,,,,,,,,,,,,,,,
SyncStatus:,Synced,,,,,,,,,,,,,,,,,
OutputRate:,60Hz,,,,,,,,,,,,,,,,,
FilterProfile:,General,,,,,,,,,,,,,,,,,
Measurement Mode:,Inertial Mode - Rate quantities (with mag),,,,,,,,,,,,,,,,,
StartTime:,2023-12-07 12:34:38.694 +0200,,,,,,,,,,,,,,,,,
 2023,,,,,,,,,,,,,,,,,,,

PacketCounter,SampleTimeFine,Acc_X,Acc_Y,Acc_Z,Gyr_X,Gyr_Y,Gyr_Z,Mag_X,Mag_Y,Mag_Z
1, 517372174, -6.798603057861328, -0.8113234639167786, 7.1308441162109375, -2.3756167888641357, -1.7940289974212646, -2.4749300479888916, 1.116943359375, -0.406005859375, 0.0537109375
2, 517388841, -6.786128520965576, -0.8176091313362122, 7.149405002593994, -2.2941551208496094, -1.8382748365402222, -2.3741438388824463, 1.11474609375, -0.407470703125, 0.05224609375
3, 517405508, -6.77849006652832, -0.8087266087532043, 7.167257308959961, -2.2975103855133057, -1.8556145429611206, -2.451199531555176, 1.11376953125, -0.405517578125, 0.0546875
4, 517422175, -6.793506145477295, -0.8033090233802795, 7.147565841674805, -2.3281819820404053, -1.7913140058517456, -2.481806993484497, 1.116455078125, -0.406982421875, 0.05419921875
5, 517438842, -6.789360523223877, -0.8041312098503113, 7.142723083496094, -2.4535560607910156, -1.673905372619629, -2.5851798057556152, 1.11572265625, -0.406982421875, 0.05224609375
6, 517455509, -6.807283878326416, -0.8191096186637878, 7.1374711990356445, -2.5089688301086426, -1.4565173387527466, -2.5011825561523438, 1.116943359375, -0.406494140625, 0.0517578125
7, 517472176, -6.788223743438721, -0.8208208680152893, 7.145826816558838, -2.4309208393096924, -1.5411226749420166, -2.3403284549713135, 1.11572265625, -0.406982421875, 0.052734375
8, 517488843, -6.788851737976074, -0.8312649726867676, 7.14695405960083, -2.3397715091705322, -1.6989800930023193, -2.2887637615203857, 1.11328125, -0.405029296875, 0.05322265625
9, 517505510, -6.795725345611572, -0.8222283720970154, 7.146644115447998, -2.313659429550171, -1.7709646224975586, -2.191256284713745, 1.115234375, -0.406982421875, 0.0537109375
10, 517522177, -6.7965922355651855, -0.8116640448570251, 7.150559902191162, -2.2574267387390137, -1.7955272197723389, -2.17305850982666, 1.11572265625, -0.406005859375, 0.05322265625
11, 517538844, -6.7860331535339355, -0.8009359240531921, 7.149778366088867, -2.36277174949646, -1.6918213367462158, -2.2058937549591064, 1.116455078125, -0.406494140625, 0.0537109375
12, 517555511, -6.785098552703857, -0.80842125415802, 7.130524635314941, -2.4285707473754883, -1.5692133903503418, -2.2861130237579346, 1.1162109375, -0.405029296875, 0.055419921875
13, 517572178, -6.786182880401611, -0.8192200660705566, 7.14232063293457, -2.3847601413726807, -1.5887943506240845, -2.223681926727295, 1.1142578125, -0.405517578125, 0.0537109375
14, 517588845, -6.795893669128418, -0.8094743490219116, 7.151856899261475, -2.340270519256592, -1.695291519165039, -2.2057271003723145, 1.115234375, -0.405029296875, 0.0537109375
15, 517605512, -6.776862144470215, -0.7997072339057922, 7.151208877563477, -2.312265396118164, -1.6192911863327026, -2.0833911895751953, 1.11572265625, -0.405517578125, 0.052734375
16, 517622179, -6.789535045623779, -0.8110396265983582, 7.138143539428711, -2.2596418857574463, -1.5607225894927979, -2.0918402671813965, 1.11572265625, -0.407470703125, 0.0517578125
17, 517638846, -6.785725116729736, -0.7983083128929138, 7.1574225425720215, -2.357969045639038, -1.5199342966079712, -2.2102861404418945, 1.11572265625, -0.406005859375, 0.0517578125
18, 517655513, -6.789707660675049, -0.8075991272926331, 7.152401447296143, -2.31901216506958, -1.4043697118759155, -2.168665647506714, 1.116943359375, -0.406494140625, 0.0517578125
19, 517672180, -6.786989688873291, -0.8212701082229614, 7.128942489624023, -2.329641819000244, -1.3399028778076172, -2.1946630477905273, 1.11572265625, -0.406982421875, 0.05419921875
20, 517688847, -6.782348155975342, -0.8124145865440369, 7.146674633026123, -2.358891010284424, -1.329055666923523, -2.106593132019043, 1.116455078125, -0.408203125, 0.05322265625
21, 517705514, -6.782912731170654, -0.8039256930351257, 7.145078659057617, -2.2332863807678223, -1.4457728862762451, -2.0860774517059326, 1.11474609375, -0.406005859375, 0.055908203125
22, 517722181, -6.794250011444092, -0.807584285736084, 7.154492378234863, -2.169600486755371, -1.5217657089233398, -2.056840658187866, 1.11376953125, -0.406005859375, 0.05419921875
23, 517738848, -6.795787811279297, -0.7999400496482849, 7.149442195892334, -2.255089521408081, -1.4700984954833984, -2.052044630050659, 1.11474609375, -0.406982421875, 0.05078125
24, 517755515, -6.79626989364624, -0.7899265289306641, 7.1554155349731445, -2.3268496990203857, -1.4090185165405273, -2.095707893371582, 1.11474609375, -0.406982421875, 0.05224609375
25, 517772182, -6.787679672241211, -0.8019691705703735, 7.169335842132568, -2.357341766357422, -1.3628389835357666, -2.19636607170105, 1.1142578125, -0.4091796875, 0.052734375
26, 517788849, -6.775529384613037, -0.7993375658988953, 7.1488037109375, -2.299623489379883, -1.3570504188537598, -2.2095947265625, 1.116455078125, -0.407958984375, 0.05419921875
27, 517805516, -6.787469387054443, -0.7985078692436218, 7.146340847015381, -2.3114051818847656, -1.4605000019073486, -2.2131547927856445, 1.11328125, -0.40771484375, 0.0546875
28, 517822183, -6.785503387451172, -0.8078045845031738, 7.139352321624756, -2.338196039199829, -1.5096509456634521, -2.1569604873657227, 1.1142578125, -0.407470703125, 0.0537109375
29, 517838850, -6.7909746170043945, -0.780100405216217, 7.132743835449219, -2.3497984409332275, -1.5802392959594727, -2.1568069458007812, 1.1162109375, -0.406005859375, 0.05419921875
30, 517855517, -6.8024582862854, -0.8086255788803101, 7.149745464324951, -2.3802647590637207, -1.5661908388137817, -2.1249189376831055, 1.11376953125, -0.408203125, 0.0546875
31, 517872184, -6.796278476715088, -0.8083029985427856, 7.1641011238098145, -2.384401321411133, -1.5778447389602661, -2.2361679077148438, 1.116455078125, -0.408203125, 0.052734375
32, 517888851, -6.802432537078857, -0.8163111209869385, 7.138763427734375, -2.289506435394287, -1.6444250345230103, -2.2557361125946045, 1.1162109375, -0.406494140625, 0.055419921875
33, 517905518, -6.793409824371338, -0.7980611324310303, 7.142551898956299, -2.3956968784332275, -1.620297908782959, -2.2022440433502197, 1.115234375, -0.407958984375, 0.05322265625
34, 517922185, -6.7864508628845215, -0.7923932671546936, 7.1368937492370605, -2.408964157104492, -1.471897840499878, -2.2667112350463867, 1.11376953125, -0.40771484375, 0.05419921875
35, 517938852, -6.783413410186768, -0.8015409708023071, 7.141892910003662, -2.4546313285827637, -1.5304226875305176, -2.2289323806762695, 1.11572265625, -0.407470703125, 0.05224609375
36, 517955519, -6.7975664138793945, -0.7939106225967407, 7.168023109436035, -2.436945915222168, -1.4754197597503662, -2.2096590995788574, 1.1162109375, -0.406982421875, 0.055419921875
37, 517972186, -6.7978057861328125, -0.8016551733016968, 7.148715019226074, -2.3960041999816895, -1.486497163772583, -2.252150535583496, 1.115234375, -0.406982421875, 0.05322265625
38, 517988853, -6.796754360198975, -0.792739987373352, 7.1124587059021, -2.350029230117798, -1.55611252784729, -2.2046902179718018, 1.11474609375, -0.406494140625, 0.05224609375
39, 518005520, -6.789152145385742, -0.8074334859848022, 7.165905475616455, -2.430107593536377, -1.5706348419189453, -2.2776477336883545, 1.11572265625, -0.406005859375, 0.0546875
40, 518022187, -6.793145179748535, -0.8077778816223145, 7.148297309875488, -2.4871726036071777, -1.5061036348342896, -2.277660846710205, 1.11376953125, -0.406982421875, 0.0556640625
41, 518038854, -6.799939155578613, -0.8066588640213013, 7.116827487945557, -2.3724145889282227, -1.451830267906189, -2.2338500022888184, 1.11279296875, -0.407470703125, 0.052734375
42, 518055521, -6.7858567237854, -0.7950368523597717, 7.160231113433838, -2.354780435562134, -1.4280617237091064, -2.1760549545288086, 1.11572265625, -0.406494140625, 0.0537109375
43, 518072188, -6.780613899230957, -0.7955248355865479, 7.184309005737305, -2.429966449737549, -1.3237025737762451, -2.250293254852295, 1.115966796875, -0.407958984375, 0.05419921875
44, 518088855, -6.81015157699585, -0.8113443851470947, 7.15423059463501, -2.462148904800415, -1.443915843963623, -2.2844350337982178, 1.11572265625, -0.408203125, 0.05322265625
45, 518105522, -6.778860092163086, -0.8103775382041931, 7.138589859008789, -2.397963523864746, -1.2933902740478516, -2.301378011703491, 1.11572265625, -0.406005859375, 0.0537109375
46, 518122189, -6.80072546005249, -0.8030807971954346, 7.158759593963623, -2.4141438007354736, -1.48341703414917, -2.1457486152648926, 1.1142578125, -0.40966796875, 0.05419921875
47, 518138856, -6.790957927703857, -0.7979894280433655, 7.144366264343262, -2.4022021293640137, -1.5228285789489746, -2.1993110179901123, 1.1162109375, -0.406982421875, 0.052734375
48, 518155523, -6.800092697143555, -0.7969087362289429, 7.1455206871032715, -2.3728504180908203, -1.5202162265777588, -2.208160400390625, 1.11572265625, -0.407470703125, 0.052734375
49, 518172190, -6.8013129234313965, -0.7958775758743286, 7.154041290283203, -2.41409969329834, -1.4831162691116333, -2.1991703510284424, 1.11474609375, -0.406982421875, 0.05322265625
50, 518188857, -6.8048415184021, -0.7976240515708923, 7.131321430206299, -2.3421154022216797, -1.574702501296997, -2.2351629734039307, 1.116943359375, -0.407470703125, 0.0537109375
51, 518205524, -6.787529945373535, -0.8188631534576416, 7.148260116577148, -2.3474550247192383, -1.5332529544830322, -2.265007734298706, 1.11572265625, -0.407470703125, 0.0546875
52, 518222191, -6.8083882331848145, -0.813340425491333, 7.145567893981934, -2.321368932723999, -1.647050380706787, -2.1989529132843018, 1.1142578125, -0.41015625, 0.05224609375
53, 518238858, -6.800264835357666, -0.7968750596046448, 7.140288829803467, -2.2574074268341064, -1.7100000381469727, -2.209217071533203, 1.11376953125, -0.407470703125, 0.0537109375
54, 518255525, -6.800903797149658, -0.8040226697921753, 7.140810489654541, -2.2737162113189697, -1.6898620128631592, -2.2630484104156494, 1.1142578125, -0.406494140625, 0.0537109375
55, 518272192, -6.796371936798096, -0.7951120734214783, 7.154478073120117, -2.369840621948242, -1.7453902959823608, -2.207033395767212, 1.116943359375, -0.406982421875, 0.05126953125
56, 518288859, -6.792799472808838, -0.8012474179267883, 7.150876045227051, -2.3575339317321777, -1.6337445974349976, -2.291018009185791, 1.116455078125, -0.407958984375, 0.05322265625
57, 518305526, -6.796574592590332, -0.7988361716270447, 7.150825023651123, -2.4607338905334473, -1.6250683069229126, -2.258521556854248, 1.11474609375, -0.407470703125, 0.05419921875
58, 518322193, -6.795419692993164, -0.8056614995002747, 7.163907527923584, -2.453235626220703, -1.5585072040557861, -2.2503702640533447, 1.11572265625, -0.408203125, 0.05419921875
59, 518338860, -6.79150915145874, -0.8047256469726562, 7.156324863433838, -2.347135066986084, -1.5837100744247437, -2.1684353351593018, 1.115234375, -0.407958984375, 0.0546875
60, 518355527, -6.800300598144531, -0.8069289922714233, 7.151793479919434, -2.3933022022247314, -1.5494660139083862, -2.2200067043304443, 1.115234375, -0.406494140625, 0.05419921875
61, 518372194, -6.786035537719727, -0.8086320757865906, 7.155693054199219, -2.331421375274658, -1.542217493057251, -2.2335166931152344, 1.11474609375, -0.407470703125, 0.05322265625
62, 518388861, -6.796173095703125, -0.7997747659683228, 7.17459774017334, -2.3875904083251953, -1.535763144493103, -2.229060411453247, 1.11474609375, -0.406494140625, 0.05322265625
63, 518405528, -6.793233394622803, -0.8068608045578003, 7.1389241218566895, -2.463890552520752, -1.5288478136062622, -2.256542921066284, 1.11376953125, -0.40869140625, 0.05322265625
64, 518422195, -6.787006855010986, -0.8121660351753235, 7.169750213623047, -2.3797271251678467, -1.584593653678894, -2.2562739849090576, 1.115234375, -0.407958984375, 0.054931640625
65, 518438862, -6.785520076751709, -0.8001546859741211, 7.158015727996826, -2.4279561042785645, -1.6022281646728516, -2.221799612045288, 1.1142578125, -0.407470703125, 0.0546875
66, 518455529, -6.7844343185424805, -0.7997368574142456, 7.159051418304443, -2.4284298419952393, -1.5776783227920532, -2.327503204345703, 1.1142578125, -0.406982421875, 0.05517578125
67, 518472196, -6.799214839935303, -0.7981986403465271, 7.161843776702881, -2.4395458698272705, -1.6300435066223145, -2.294090986251831, 1.11572265625, -0.406982421875, 0.05322265625
68, 518488863, -6.790501594543457, -0.8061362504959106, 7.161440372467041, -2.433744430541992, -1.593058705329895, -2.2802858352661133, 1.115234375, -0.405517578125, 0.052734375
69, 518505530, -6.79386568069458, -0.8091906905174255, 7.1508612632751465, -2.3995516300201416, -1.550131916999817, -2.266019582748413, 1.11328125, -0.40771484375, 0.05517578125
70, 518522197, -6.783926963806152, -0.8170984387397766, 7.131441116333008, -2.373157501220703, -1.5983222723007202, -2.2311480045318604, 1.115234375, -0.4091796875, 0.055419921875
71, 518538864, -6.778871059417725, -0.8170861005783081, 7.154654502868652, -2.313082695007324, -1.6471397876739502, -2.135509729385376, 1.1162109375, -0.406982421875, 0.05224609375
72, 518555531, -6.7889227867126465, -0.8014344573020935, 7.159789085388184, -2.497417688369751, -1.6021512746810913, -2.2330691814422607, 1.115478515625, -0.40966796875, 0.05224609375
73, 518572198, -6.7765421867370605, -0.7744830846786499, 7.1541876792907715, -2.5377063751220703, -1.4585152864456177, -2.441787004470825, 1.11474609375, -0.405517578125, 0.0546875
74, 518588865, -6.799511432647705, -0.7964491844177246, 7.1591796875, -2.750638008117676, -1.2366582155227661, -2.5010292530059814, 1.11474609375, -0.40869140625, 0.0517578125
75, 518605532, -6.805425643920898, -0.8431283235549927, 7.154104709625244, -2.655550718307495, -1.3643759489059448, -2.4396228790283203, 1.115234375, -0.406494140625, 0.05322265625
76, 518622199, -6.81441593170166, -0.7987819314002991, 7.155096054077148, -2.508955955505371, -1.5227774381637573, -2.3312296867370605, 1.115234375, -0.407470703125, 0.0537109375
77, 518638866, -6.783330917358398, -0.8117190599441528, 7.136924743652344, -2.477311849594116, -1.5976178646087646, -2.40549373626709, 1.11328125, -0.406982421875, 0.05322265625
78, 518655533, -6.797186374664307, -0.7962785363197327, 7.1570587158203125, -2.521353006362915, -1.6153932809829712, -2.3629767894744873, 1.115234375, -0.407470703125, 0.05078125
79, 518672200, -6.781132698059082, -0.8094585537910461, 7.157193183898926, -2.428737163543701, -1.6167632341384888, -2.4200031757354736, 1.1162109375, -0.406494140625, 0.052734375
80, 518688867, -6.778439998626709, -0.8073737621307373, 7.141542434692383, -2.4089388847351074, -1.606684684753418, -2.3310890197753906, 1.11376953125, -0.406982421875, 0.0537109375
81, 518705534, -6.787190914154053, -0.7999676465988159, 7.147486209869385, -2.4313626289367676, -1.5520143508911133, -2.3492608070373535, 1.1142578125, -0.406982421875, 0.055419921875
82, 518722201, -6.787254333496094, -0.8044284582138062, 7.139206886291504, -2.424408435821533, -1.5564711093902588, -2.331946849822998, 1.1162109375, -0.406494140625, 0.055419921875
83, 518738868, -6.793690204620361, -0.8032684326171875, 7.141721725463867, -2.3467767238616943, -1.4943090677261353, -2.2893528938293457, 1.11474609375, -0.406005859375, 0.052734375
84, 518755535, -6.777909755706787, -0.8105053305625916, 7.134670257568359, -2.4230000972747803, -1.5165536403656006, -2.1624035835266113, 1.11474609375, -0.40869140625, 0.052734375
85, 518772202, -6.78385066986084, -0.8195667862892151, 7.146340370178223, -2.4349863529205322, -1.4566454887390137, -2.194572925567627, 1.1162109375, -0.407470703125, 0.0537109375
86, 518788869, -6.780308246612549, -0.8177473545074463, 7.156362056732178, -2.390840768814087, -1.5369131565093994, -2.19669508934021, 1.115966796875, -0.407958984375, 0.05224609375
87, 518805536, -6.77940034866333, -0.8161306977272034, 7.161212921142578, -2.4691667556762695, -1.5627334117889404, -2.262869119644165, 1.1142578125, -0.406494140625, 0.052734375
88, 518822203, -6.789090156555176, -0.8038636445999146, 7.136192798614502, -2.362111806869507, -1.4573818445205688, -2.2276196479797363, 1.11328125, -0.407470703125, 0.05322265625
89, 518838870, -6.795784950256348, -0.8004475831985474, 7.138022422790527, -2.449381113052368, -1.3621474504470825, -2.3549857139587402, 1.11474609375, -0.406005859375, 0.052734375
90, 518855537, -6.787384510040283, -0.827338457107544, 7.1414618492126465, -2.518688917160034, -1.468580961227417, -2.3257226943969727, 1.11572265625, -0.406982421875, 0.0537109375
91, 518872204, -6.784808158874512, -0.8171300888061523, 7.157620429992676, -2.4052629470825195, -1.6206178665161133, -2.2069311141967773, 1.11376953125, -0.405029296875, 0.052734375
92, 518888871, -6.782120227813721, -0.8293433785438538, 7.116657733917236, -2.348850965499878, -1.773436188697815, -2.1979026794433594, 1.11572265625, -0.407470703125, 0.05078125
93, 518905538, -6.7963995933532715, -0.8519628047943115, 7.140116214752197, -2.36660099029541, -2.041217088699341, -2.1190924644470215, 1.11474609375, -0.407958984375, 0.05322265625
94, 518922205, -6.762806415557861, -0.7678744196891785, 7.153562068939209, -2.2105934619903564, -1.7603095769882202, -1.9515594244003296, 1.1142578125, -0.405517578125, 0.0517578125
95, 518938872, -6.775854110717773, -0.7821062803268433, 7.151377201080322, -2.3722481727600098, -1.5126858949661255, -2.178513288497925, 1.11279296875, -0.406494140625, 0.0517578125
96, 518955539, -6.80171012878418, -0.790637731552124, 7.163970470428467, -2.4574999809265137, -1.6220650672912598, -2.2757649421691895, 1.11572265625, -0.405517578125, 0.05126953125
97, 518972206, -6.793196201324463, -0.800733208656311, 7.175122261047363, -2.3830952644348145, -1.5626693964004517, -2.201270818710327, 1.1142578125, -0.406982421875, 0.0517578125
98, 518988873, -6.7916083335876465, -0.806874692440033, 7.133216857910156, -2.321112632751465, -1.6050838232040405, -2.0628466606140137, 1.11474609375, -0.406982421875, 0.0537109375
99, 519005540, -6.789877414703369, -0.7950223088264465, 7.149909019470215, -2.3136720657348633, -1.7190090417861938, -2.0258877277374268, 1.1142578125, -0.406982421875, 0.05419921875
100, 519022207, -6.793265342712402, -0.7945550680160522, 7.16412878036499, -2.254007339477539, -1.6374711990356445, -2.063640832901001, 1.11572265625, -0.405517578125, 0.055419921875
101, 519038874, -6.7764997482299805, -0.8014124631881714, 7.150647163391113, -2.3135311603546143, -1.6242291927337646, -2.0940046310424805, 1.11474609375, -0.406005859375, 0.05224609375
102, 519055541, -6.790058135986328, -0.7887278199195862, 7.147010803222656, -2.2748684883117676, -1.5742461681365967, -2.165130853652954, 1.11572265625, -0.404541015625, 0.05419921875
103, 519072208, -6.786520004272461, -0.80433189868927, 7.155158042907715, -2.3688676357269287, -1.5864506959915161, -2.2473866939544678, 1.116943359375, -0.407958984375, 0.05224609375
104, 519088875, -6.768664836883545, -0.8158701658248901, 7.144327163696289, -2.438239336013794, -1.5747710466384888, -2.2174835205078125, 1.115234375, -0.406982421875, 0.05224609375
105, 519105542, -6.777461528778076, -0.7985439300537109, 7.142209053039551, -2.324800729751587, -1.6087592840194702, -2.1490590572357178, 1.1142578125, -0.406982421875, 0.05322265625
106, 519122209, -6.778921604156494, -0.8031824827194214, 7.147904872894287, -2.267979145050049, -1.594813346862793, -2.126584053039551, 1.115234375, -0.406982421875, 0.05322265625
107, 519138876, -6.790781021118164, -0.813836395740509, 7.149836540222168, -2.2302772998809814, -1.6046998500823975, -1.971960425376892, 1.1142578125, -0.406982421875, 0.05224609375
108, 519155543, -6.794339179992676, -0.7941097617149353, 7.150428771972656, -2.3154006004333496, -1.5186793804168701, -2.0969371795654297, 1.115234375, -0.406982421875, 0.05322265625
109, 519172210, -6.775351047515869, -0.8017361164093018, 7.15627908706665, -2.3821473121643066, -1.6248568296432495, -2.136431932449341, 1.1142578125, -0.408203125, 0.052734375
110, 519188877, -6.782260894775391, -0.7876471877098083, 7.148815155029297, -2.2982017993927, -1.560364007949829, -2.074103593826294, 1.1162109375, -0.407470703125, 0.05322265625
111, 519205544, -6.780068397521973, -0.8004705309867859, 7.139453887939453, -2.300250768661499, -1.428445816040039, -2.1346774101257324, 1.115234375, -0.407958984375, 0.0546875
112, 519222211, -6.777970790863037, -0.8040576577186584, 7.161429405212402, -2.2642648220062256, -1.4606666564941406, -1.9973293542861938, 1.11328125, -0.406005859375, 0.05322265625
113, 519238878, -6.780145168304443, -0.8069129586219788, 7.175682067871094, -2.308741331100464, -1.494757056236267, -1.9748029708862305, 1.11376953125, -0.406982421875, 0.05224609375
114, 519255545, -6.781984806060791, -0.7898818850517273, 7.145483016967773, -2.308779716491699, -1.5579948425292969, -2.004039764404297, 1.1123046875, -0.40771484375, 0.05224609375
115, 519272212, -6.788363933563232, -0.7991102337837219, 7.172680377960205, -2.3694565296173096, -1.6236658096313477, -2.0222249031066895, 1.115234375, -0.408203125, 0.05224609375
116, 519288879, -6.77064847946167, -0.7996296882629395, 7.144278049468994, -2.2664291858673096, -1.6375094652175903, -2.000351667404175, 1.1142578125, -0.40771484375, 0.05126953125
117, 519305546, -6.789408206939697, -0.7892376780509949, 7.131535053253174, -2.2090182304382324, -1.6769658327102661, -1.9974958896636963, 1.1142578125, -0.40966796875, 0.05224609375
118, 519322213, -6.781716346740723, -0.7956345081329346, 7.154862403869629, -2.2290732860565186, -1.6401859521865845, -2.0870251655578613, 1.116455078125, -0.408203125, 0.0537109375
119, 519338880, -6.785952568054199, -0.7855350971221924, 7.149811744689941, -2.2291882038116455, -1.64287531375885, -2.0250167846679688, 1.11376953125, -0.406494140625, 0.05419921875
120, 519355547, -6.778903961181641, -0.797982931137085, 7.162008762359619, -2.294398546218872, -1.623691439628601, -2.1128556728363037, 1.1142578125, -0.408203125, 0.052734375
121, 519372214, -6.786526679992676, -0.7834157943725586, 7.162317752838135, -2.3770763874053955, -1.5803420543670654, -2.1840078830718994, 1.11474609375, -0.407470703125, 0.0517578125
122, 519388881, -6.785776138305664, -0.8062843084335327, 7.136782646179199, -2.393094062805176, -1.3956290483474731, -2.224111795425415, 1.115234375, -0.407958984375, 0.05126953125
123, 519405548, -6.790702819824219, -0.8090586066246033, 7.159394264221191, -2.377255439758301, -1.5294495820999146, -2.162224054336548, 1.115478515625, -0.4091796875, 0.0517578125
124, 519422215, -6.784414768218994, -0.7951341271400452, 7.1742424964904785, -2.324403762817383, -1.5280791521072388, -2.085552453994751, 1.11376953125, -0.408203125, 0.05517578125
125, 519438882, -6.7818827629089355, -0.7944281697273254, 7.149527072906494, -2.4119222164154053, -1.5573675632476807, -2.1168770790100098, 1.116455078125, -0.41015625, 0.05126953125
126, 519455549, -6.78464412689209, -0.7988737225532532, 7.163586616516113, -2.390292167663574, -1.5412954092025757, -2.071042776107788, 1.115478515625, -0.40966796875, 0.05224609375
127, 519472216, -6.787901401519775, -0.7976505160331726, 7.13687801361084, -2.348453998565674, -1.4886101484298706, -2.1271092891693115, 1.1142578125, -0.4091796875, 0.05322265625
128, 519488883, -6.778293132781982, -0.7737330198287964, 7.157000541687012, -2.468257427215576, -1.4542123079299927, -2.1931772232055664, 1.11474609375, -0.407958984375, 0.05322265625
129, 519505550, -6.790703773498535, -0.7927201986312866, 7.13866662979126, -2.369328260421753, -1.4230799674987793, -2.2447099685668945, 1.115234375, -0.4091796875, 0.054931640625
130, 519522217, -6.782110214233398, -0.7997129559516907, 7.12882137298584, -2.3776397705078125, -1.511098027229309, -2.139415979385376, 1.115234375, -0.407470703125, 0.0517578125
131, 519538884, -6.778143405914307, -0.7859322428703308, 7.1575164794921875, -2.4027531147003174, -1.4640476703643799, -2.2960760593414307, 1.11279296875, -0.40771484375, 0.05419921875
132, 519555551, -6.783528804779053, -0.8010348677635193, 7.154268741607666, -2.433706045150757, -1.5140436887741089, -2.2072129249572754, 1.115478515625, -0.4091796875, 0.052734375
133, 519572218, -6.786975383758545, -0.7825309634208679, 7.150375843048096, -2.4286282062530518, -1.472544550895691, -2.2728774547576904, 1.11474609375, -0.40966796875, 0.05224609375
134, 519588885, -6.786620616912842, -0.8054806590080261, 7.146421909332275, -2.427943468093872, -1.6149576902389526, -2.259398937225342, 1.1142578125, -0.4091796875, 0.0546875
135, 519605552, -6.785451412200928, -0.7951399087905884, 7.154899597167969, -2.407184362411499, -1.5474424362182617, -2.3046178817749023, 1.11279296875, -0.4091796875, 0.0537109375
136, 519622219, -6.770567893981934, -0.812748372554779, 7.149200439453125, -2.4308183193206787, -1.578837275505066, -2.3137810230255127, 1.1142578125, -0.40771484375, 0.052734375
137, 519638886, -6.7856855392456055, -0.7896350622177124, 7.156063079833984, -2.375180721282959, -1.4867274761199951, -2.2328639030456543, 1.115234375, -0.407958984375, 0.0546875
138, 519655553, -6.8017497062683105, -0.7815483808517456, 7.162764072418213, -2.4029836654663086, -1.5093308687210083, -2.1991193294525146, 1.115234375, -0.406005859375, 0.0537109375
139, 519672220, -6.782224655151367, -0.7970606684684753, 7.161847114562988, -2.453312635421753, -1.5104321241378784, -2.2390880584716797, 1.116455078125, -0.40869140625, 0.0517578125
140, 519688887, -6.776157855987549, -0.7976050972938538, 7.149448394775391, -2.419029951095581, -1.5356862545013428, -2.2336835861206055, 1.11328125, -0.407470703125, 0.05224609375
141, 519705554, -6.787065029144287, -0.7829091548919678, 7.158888816833496, -2.421565532684326, -1.5355967283248901, -2.3129422664642334, 1.115234375, -0.40869140625, 0.052734375
142, 519722221, -6.792487621307373, -0.7966458797454834, 7.158885955810547, -2.503129005432129, -1.5228540897369385, -2.313018560409546, 1.116943359375, -0.40869140625, 0.054443359375
143, 519738888, -6.780992031097412, -0.7910665273666382, 7.126457691192627, -2.528895616531372, -1.529052734375, -2.305476188659668, 1.115234375, -0.4091796875, 0.0517578125
144, 519755555, -6.771655559539795, -0.783665657043457, 7.148007869720459, -2.4567830562591553, -1.519742488861084, -2.28511381149292, 1.115966796875, -0.40869140625, 0.05029296875
145, 519772222, -6.7726311683654785, -0.8048242330551147, 7.135467052459717, -2.369891881942749, -1.47573983669281, -2.265597105026245, 1.115234375, -0.408203125, 0.0517578125
146, 519788889, -6.785080909729004, -0.7990648746490479, 7.134350299835205, -2.4077606201171875, -1.5272468328475952, -2.3081398010253906, 1.115234375, -0.40869140625, 0.05224609375
147, 519805556, -6.762950420379639, -0.7935997843742371, 7.146232604980469, -2.4742891788482666, -1.6507383584976196, -2.257183074951172, 1.115234375, -0.40869140625, 0.05224609375
148, 519822223, -6.787327289581299, -0.7865338325500488, 7.165551662445068, -2.5413947105407715, -1.4936174154281616, -2.4153289794921875, 1.1142578125, -0.40869140625, 0.05322265625
149, 519838890, -6.783271789550781, -0.7951778173446655, 7.174718379974365, -2.527064323425293, -1.435489296913147, -2.4232943058013916, 1.11376953125, -0.4091796875, 0.05224609375
150, 519855557, -6.782858371734619, -0.8049458861351013, 7.157514572143555, -2.500363349914551, -1.3675774335861206, -2.3165793418884277, 1.115966796875, -0.40869140625, 0.0517578125
151, 519872224, -6.778456687927246, -0.8023704886436462, 7.157838821411133, -2.4593186378479004, -1.4727559089660645, -2.3390285968780518, 1.11474609375, -0.40966796875, 0.05322265625
152, 519888891, -6.7803263664245605, -0.7912779450416565, 7.14896297454834, -2.443105459213257, -1.473408818244934, -2.198683500289917, 1.11572265625, -0.407958984375, 0.0537109375
153, 519905558, -6.799609661102295, -0.7890998721122742, 7.154695510864258, -2.5269618034362793, -1.4125276803970337, -2.2604362964630127, 1.11328125, -0.4091796875, 0.052734375
154, 519922225, -6.778603553771973, -0.8060616850852966, 7.143370151519775, -2.5056519508361816, -1.445119857788086, -2.344215154647827, 1.1123046875, -0.408203125, 0.05517578125
155, 519938892, -6.782252788543701, -0.7950798273086548, 7.1489081382751465, -2.5418684482574463, -1.387196660041809, -2.3825318813323975, 1.11328125, -0.408203125, 0.05322265625
156, 519955559, -6.773559093475342, -0.7790265679359436, 7.163754940032959, -2.5597846508026123, -1.2903807163238525, -2.3379528522491455, 1.11474609375, -0.40771484375, 0.05078125
157, 519972226, -6.798405170440674, -0.8062869310379028, 7.152040958404541, -2.6307830810546875, -1.33977472782135, -2.461354970932007, 1.1142578125, -0.406982421875, 0.052734375
158, 519988893, -6.792011260986328, -0.8158400058746338, 7.155056953430176, -2.5603222846984863, -1.4412169456481934, -2.3066823482513428, 1.116455078125, -0.407958984375, 0.05029296875
159, 520005560, -6.7876973152160645, -0.820602297782898, 7.1534881591796875, -2.4399681091308594, -1.4535462856292725, -2.2890708446502686, 1.115478515625, -0.40869140625, 0.05419921875
160, 520022227, -6.777629375457764, -0.8065834045410156, 7.1463518142700195, -2.3837227821350098, -1.4324159622192383, -2.3272595405578613, 1.116455078125, -0.40869140625, 0.05419921875
161, 520038894, -6.781737804412842, -0.794159471988678, 7.152155876159668, -2.345790147781372, -1.5122120380401611, -2.2496018409729004, 1.11474609375, -0.40869140625, 0.0546875
162, 520055561, -6.787168979644775, -0.792677640914917, 7.1421027183532715, -2.52306866645813, -1.4331715106964111, -2.3178341388702393, 1.11572265625, -0.40869140625, 0.05224609375
163, 520072228, -6.799187660217285, -0.8099390864372253, 7.160917282104492, -2.470075845718384, -1.4242581129074097, -2.3404626846313477, 1.115966796875, -0.40869140625, 0.054443359375
164, 520088895, -6.784811496734619, -0.8026266098022461, 7.14617395401001, -2.5929527282714844, -1.1798105239868164, -2.3651022911071777, 1.11572265625, -0.407470703125, 0.0537109375
165, 520105562, -6.779683589935303, -0.8054414391517639, 7.143946647644043, -2.40938663482666, -1.195536732673645, -2.269989490509033, 1.11572265625, -0.407958984375, 0.05322265625
166, 520122229, -6.785043716430664, -0.8175917267799377, 7.127530097961426, -2.4102702140808105, -1.3444617986679077, -2.1804604530334473, 1.1123046875, -0.405029296875, 0.05517578125
167, 520138896, -6.784454822540283, -0.8024168610572815, 7.160036087036133, -2.267287492752075, -1.5109572410583496, -1.995434284210205, 1.11474609375, -0.406982421875, 0.0537109375
168, 520155563, -6.792769432067871, -0.8068483471870422, 7.162724494934082, -2.278287887573242, -1.385672688484192, -1.981846809387207, 1.115234375, -0.406005859375, 0.05322265625
169, 520172230, -6.792351245880127, -0.7973824739456177, 7.155947685241699, -2.2600903511047363, -1.305748462677002, -1.873710036277771, 1.116455078125, -0.408203125, 0.05224609375
170, 520188897, -6.8131561279296875, -0.7807484269142151, 7.1609954833984375, -2.348313093185425, -1.3328849077224731, -1.9456175565719604, 1.11474609375, -0.40869140625, 0.0537109375
171, 520205564, -6.799890995025635, -0.7805250883102417, 7.147408962249756, -2.3729653358459473, -1.2120057344436646, -1.9592050313949585, 1.116455078125, -0.4091796875, 0.055908203125
172, 520222231, -6.783719539642334, -0.8048323392868042, 7.142343521118164, -2.3176417350769043, -1.2619376182556152, -1.9558112621307373, 1.115234375, -0.4091796875, 0.0546875
173, 520238898, -6.777652740478516, -0.7970489859580994, 7.143806457519531, -2.289647340774536, -1.2201634645462036, -1.9469748735427856, 1.115234375, -0.406982421875, 0.056396484375
174, 520255565, -6.791053295135498, -0.8018617630004883, 7.133854389190674, -2.285792589187622, -1.2131327390670776, -1.8632982969284058, 1.11474609375, -0.4091796875, 0.05224609375
175, 520272232, -6.795392036437988, -0.7920137047767639, 7.142453193664551, -2.215946912765503, -1.3813058137893677, -1.7469271421432495, 1.1142578125, -0.407470703125, 0.0537109375
176, 520288899, -6.7976484298706055, -0.7775701284408569, 7.125988483428955, -2.170753240585327, -1.356294870376587, -1.7860761880874634, 1.115966796875, -0.40869140625, 0.056396484375
177, 520305566, -6.794504165649414, -0.7881011366844177, 7.134699821472168, -2.2666854858398438, -1.2819414138793945, -1.7798266410827637, 1.11328125, -0.4091796875, 0.05419921875
178, 520322233, -6.804899215698242, -0.7856842875480652, 7.1487932205200195, -2.3175394535064697, -1.3542073965072632, -1.8495057821273804, 1.11572265625, -0.408203125, 0.052734375
179, 520338900, -6.799471855163574, -0.7858042120933533, 7.139249324798584, -2.232466697692871, -1.5141971111297607, -1.8541929721832275, 1.116455078125, -0.40869140625, 0.05419921875
180, 520355567, -6.798609733581543, -0.7751848697662354, 7.155010223388672, -2.2069051265716553, -1.6199519634246826, -1.9864439964294434, 1.115478515625, -0.41015625, 0.05224609375
181, 520372234, -6.791635036468506, -0.7919960021972656, 7.157736301422119, -2.3232126235961914, -1.640313982963562, -2.0450971126556396, 1.11474609375, -0.40869140625, 0.05322265625
182, 520388901, -6.790701866149902, -0.7814239859580994, 7.162064552307129, -2.381904125213623, -1.4276646375656128, -2.0826709270477295, 1.118408203125, -0.408203125, 0.054931640625
183, 520405568, -6.785903453826904, -0.8019548058509827, 7.141180038452148, -2.355740785598755, -1.431019902229309, -2.0471463203430176, 1.115234375, -0.40869140625, 0.052734375
184, 520422235, -6.7949113845825195, -0.779112696647644, 7.13692569732666, -2.377345085144043, -1.380345106124878, -2.057929277420044, 1.11474609375, -0.41015625, 0.0537109375
185, 520438902, -6.7879486083984375, -0.7891767621040344, 7.12990140914917, -2.41526460647583, -1.2953494787216187, -2.105837821960449, 1.116943359375, -0.41015625, 0.053955078125
186, 520455569, -6.803893089294434, -0.7772617936134338, 7.138242721557617, -2.362912178039551, -1.3393776416778564, -2.033148765563965, 1.115966796875, -0.40869140625, 0.0537109375
187, 520472236, -6.790065288543701, -0.7788209915161133, 7.131400108337402, -2.3431777954101562, -1.3369699716567993, -2.0037965774536133, 1.117431640625, -0.40966796875, 0.05126953125
188, 520488903, -6.790613651275635, -0.7845143675804138, 7.141795635223389, -2.337940216064453, -1.4439289569854736, -2.0928268432617188, 1.1142578125, -0.4091796875, 0.05419921875
189, 520505570, -6.801283836364746, -0.7812091112136841, 7.153216361999512, -2.4138050079345703, -1.5074867010116577, -2.146305799484253, 1.11328125, -0.40869140625, 0.0546875
190, 520522237, -6.794980049133301, -0.7685524821281433, 7.134541988372803, -2.48960542678833, -1.4246422052383423, -2.240163564682007, 1.11474609375, -0.408203125, 0.052734375
191, 520538904, -6.810559272766113, -0.7841192483901978, 7.1359100341796875, -2.445692777633667, -1.4015783071517944, -2.306692600250244, 1.115234375, -0.40869140625, 0.05224609375
192, 520555571, -6.787318229675293, -0.7907034754753113, 7.14663553237915, -2.499338388442993, -1.5040546655654907, -2.2046518325805664, 1.116455078125, -0.40869140625, 0.05419921875
193, 520572238, -6.819096088409424, -0.7904723882675171, 7.137613773345947, -2.3951714038848877, -1.4161388874053955, -2.062155246734619, 1.114990234375, -0.41015625, 0.0546875
194, 520588905, -6.795636177062988, -0.7792518734931946, 7.154048919677734, -2.404299259185791, -1.352896809577942, -2.2187845706939697, 1.11474609375, -0.41015625, 0.05419921875
195, 520605572, -6.8187079429626465, -0.7917619943618774, 7.142832279205322, -2.43393611907959, -1.3733144998550415, -2.172776460647583, 1.115966796875, -0.4091796875, 0.0537109375
196, 520622239, -6.791346549987793, -0.7764949798583984, 7.138383865356445, -2.3647563457489014, -1.3902957439422607, -2.2266016006469727, 1.116455078125, -0.41015625, 0.056396484375
197, 520638906, -6.773545265197754, -0.7865875363349915, 7.141502380371094, -2.482651948928833, -1.4342601299285889, -2.260218381881714, 1.116455078125, -0.4091796875, 0.054443359375
198, 520655573, -6.790195465087891, -0.7915737628936768, 7.150936603546143, -2.5506021976470947, -1.1197872161865234, -2.331434488296509, 1.116455078125, -0.4111328125, 0.052734375
199, 520672240, -6.795192241668701, -0.7967390418052673, 7.122565746307373, -2.654590129852295, -1.1711022853851318, -2.439955711364746, 1.115966796875, -0.40966796875, 0.056396484375
200, 520688907, -6.812206745147705, -0.7329785227775574, 7.141855716705322, -2.616478204727173, -1.191835880279541, -2.579237461090088, 1.11474609375, -0.41064453125, 0.0537109375
201, 520705574, -6.816795825958252, -0.7666553854942322, 7.12013578414917, -2.622715473175049, -1.2714786529541016, -2.5527286529541016, 1.115234375, -0.4091796875, 0.055419921875
202, 520722241, -6.816854953765869, -0.7857850790023804, 7.162301063537598, -2.679882526397705, -1.3390833139419556, -2.7275094985961914, 1.11474609375, -0.40869140625, 0.05419921875
203, 520738908, -6.814245223999023, -0.7919295430183411, 7.145447254180908, -2.7758400440216064, -1.2365041971206665, -2.72050404548645, 1.115478515625, -0.40966796875, 0.054443359375
204, 520755575, -6.79082727432251, -0.7948979139328003, 7.119959354400635, -2.6506714820861816, -1.2664713859558105, -2.528883218765259, 1.116943359375, -0.408203125, 0.054443359375
205, 520772242, -6.797735691070557, -0.7887380719184875, 7.127023220062256, -2.6293234825134277, -1.3316044807434082, -2.4142534732818604, 1.118408203125, -0.406982421875, 0.056396484375
206, 520788909, -6.811489105224609, -0.7960958480834961, 7.121469497680664, -2.604670763015747, -1.2340582609176636, -2.3041441440582275, 1.11474609375, -0.408203125, 0.05419921875
207, 520805576, -6.813558578491211, -0.7925615906715393, 7.132858753204346, -2.7932703495025635, -1.3198353052139282, -2.4224493503570557, 1.1142578125, -0.407958984375, 0.0546875
208, 520822243, -6.799630641937256, -0.7697042226791382, 7.135687351226807, -2.86338472366333, -1.286385178565979, -2.590660810470581, 1.11474609375, -0.40966796875, 0.0546875
209, 520838910, -6.794287204742432, -0.7897159457206726, 7.138515949249268, -2.9144303798675537, -1.2333025932312012, -2.66520619392395, 1.115478515625, -0.40869140625, 0.0546875
210, 520855577, -6.803973197937012, -0.7988438010215759, 7.112597942352295, -3.149017095565796, -1.2148998975753784, -2.945204257965088, 1.117431640625, -0.407470703125, 0.054443359375
211, 520872244, -6.814927577972412, -0.8182488679885864, 7.133785724639893, -2.9955079555511475, -1.2032462358474731, -2.8412296772003174, 1.116455078125, -0.408203125, 0.0537109375
212, 520888911, -6.811212539672852, -0.8102928400039673, 7.122334957122803, -2.9515180587768555, -1.3128429651260376, -2.823953866958618, 1.115966796875, -0.407958984375, 0.056884765625
213, 520905578, -6.817401885986328, -0.8187412023544312, 7.123269557952881, -2.716521978378296, -1.501391053199768, -2.5890729427337646, 1.115966796875, -0.407958984375, 0.056396484375
214, 520922245, -6.8198466300964355, -0.8099870681762695, 7.128988742828369, -2.4800522327423096, -1.4730504751205444, -2.4214887619018555, 1.116455078125, -0.407958984375, 0.057373046875
215, 520938912, -6.821022987365723, -0.8017527461051941, 7.135493755340576, -2.6160688400268555, -1.529910922050476, -2.4833567142486572, 1.116943359375, -0.405029296875, 0.055908203125
216, 520955579, -6.792229652404785, -0.813995361328125, 7.118984699249268, -2.540229558944702, -1.5327409505844116, -2.505345106124878, 1.115966796875, -0.407958984375, 0.056884765625
217, 520972246, -6.8077311515808105, -0.7978001236915588, 7.1404829025268555, -2.5553150177001953, -1.4329794645309448, -2.518342971801758, 1.116455078125, -0.407470703125, 0.056396484375
218, 520988913, -6.802806854248047, -0.8133307099342346, 7.128551959991455, -2.5824391841888428, -1.3515311479568481, -2.454631805419922, 1.117919921875, -0.406494140625, 0.056884765625
219, 521005580, -6.787332057952881, -0.8220347762107849, 7.125830173492432, -2.4677326679229736, -1.4073154926300049, -2.3718130588531494, 1.1142578125, -0.406494140625, 0.0556640625
220, 521022247, -6.802182197570801, -0.8182900547981262, 7.165524959564209, -2.5519466400146484, -1.3772715330123901, -2.1884512901306152, 1.116943359375, -0.406982421875, 0.057373046875
221, 521038914, -6.794610977172852, -0.7996578216552734, 7.1362409591674805, -2.529932737350464, -1.2694165706634521, -2.255800247192383, 1.1162109375, -0.405517578125, 0.055908203125
222, 521055581, -6.8068342208862305, -0.8281433582305908, 7.113714218139648, -2.529971122741699, -1.33205246925354, -2.2939627170562744, 1.116943359375, -0.406982421875, 0.054931640625
223, 521072248, -6.8068742752075195, -0.8051055073738098, 7.126539707183838, -2.5793142318725586, -1.2844769954681396, -2.2376153469085693, 1.116455078125, -0.406005859375, 0.056396484375
224, 521088915, -6.799839973449707, -0.8191344141960144, 7.138416290283203, -2.5896108150482178, -1.3523507118225098, -2.2581183910369873, 1.115234375, -0.406494140625, 0.055908203125
225, 521105582, -6.820388317108154, -0.8208971619606018, 7.117809772491455, -2.4148166179656982, -1.4433013200759888, -2.2430837154388428, 1.116455078125, -0.406005859375, 0.055908203125
226, 521122249, -6.823200702667236, -0.818858802318573, 7.150542259216309, -2.2584762573242188, -1.5245062112808228, -2.115006685256958, 1.115234375, -0.406982421875, 0.055908203125
227, 521138916, -6.8057146072387695, -0.7939123511314392, 7.137990951538086, -2.407721757888794, -1.4356173276901245, -2.0741546154022217, 1.116455078125, -0.406494140625, 0.055419921875
228, 521155583, -6.799072265625, -0.8073473572731018, 7.124852657318115, -2.366651773452759, -1.3667705059051514, -2.12495756149292, 1.1162109375, -0.405517578125, 0.05517578125
229, 521172250, -6.815221309661865, -0.8245718479156494, 7.133904457092285, -2.30857515335083, -1.6178261041641235, -2.1765799522399902, 1.11572265625, -0.406005859375, 0.057861328125
230, 521188917, -6.806894779205322, -0.7923918962478638, 7.1376166343688965, -2.257636785507202, -1.5718849897384644, -2.162862539291382, 1.116943359375, -0.407470703125, 0.055908203125
231, 521205584, -6.8073625564575195, -0.7976651191711426, 7.130861759185791, -2.4589731693267822, -1.5647183656692505, -2.2127835750579834, 1.116455078125, -0.40869140625, 0.055419921875
232, 521222251, -6.80206823348999, -0.8117803335189819, 7.123106956481934, -2.398066282272339, -1.5001999139785767, -2.282744884490967, 1.115966796875, -0.4091796875, 0.055908203125
233, 521238918, -6.815830230712891, -0.817755401134491, 7.123422622680664, -2.3161821365356445, -1.5535895824432373, -2.311828136444092, 1.11474609375, -0.405517578125, 0.05517578125
234, 521255585, -6.797327995300293, -0.8069943785667419, 7.138096809387207, -2.421193838119507, -1.4793510437011719, -2.29364275932312, 1.116943359375, -0.406494140625, 0.0546875
235, 521272252, -6.798308849334717, -0.8215476870536804, 7.145927429199219, -2.428455352783203, -1.4538922309875488, -2.1912949085235596, 1.117919921875, -0.406005859375, 0.054443359375
236, 521288919, -6.819591522216797, -0.8169075846672058, 7.135351181030273, -2.5630886554718018, -1.362134575843811, -2.246387481689453, 1.11572265625, -0.406005859375, 0.057373046875
237, 521305586, -6.811741352081299, -0.8107990026473999, 7.135537624359131, -2.451174020767212, -1.2831964492797852, -2.256837844848633, 1.115234375, -0.407958984375, 0.057861328125
238, 521322253, -6.810756683349609, -0.8057234883308411, 7.126991271972656, -2.376641273498535, -1.4368982315063477, -2.1901164054870605, 1.115234375, -0.407470703125, 0.055908203125
239, 521338920, -6.8158674240112305, -0.816993236541748, 7.142263412475586, -2.4039695262908936, -1.5519248247146606, -2.173391103744507, 1.116455078125, -0.406982421875, 0.055419921875
240, 521355587, -6.814276695251465, -0.7911335825920105, 7.140187740325928, -2.3840298652648926, -1.4208132028579712, -2.280503511428833, 1.1162109375, -0.406494140625, 0.0546875
241, 521372254, -6.817826747894287, -0.8008477687835693, 7.141190052032471, -2.42718768119812, -1.6086570024490356, -2.2660837173461914, 1.116455078125, -0.408203125, 0.057373046875
242, 521388921, -6.817023754119873, -0.8246991038322449, 7.109881401062012, -2.3470325469970703, -1.6569879055023193, -2.2832822799682617, 1.115234375, -0.407958984375, 0.055908203125
243, 521405588, -6.817013263702393, -0.8152540326118469, 7.142002582550049, -2.3265552520751953, -1.7127597332000732, -2.2419564723968506, 1.11474609375, -0.407958984375, 0.055419921875
244, 521422255, -6.805843353271484, -0.8291770815849304, 7.133364677429199, -2.2213637828826904, -1.6046226024627686, -2.1626594066619873, 1.115234375, -0.407958984375, 0.055908203125
245, 521438922, -6.807270526885986, -0.8063390851020813, 7.128381252288818, -2.2538278102874756, -1.6374326944351196, -2.0617454051971436, 1.11376953125, -0.407470703125, 0.057861328125
246, 521455589, -6.8073601722717285, -0.8021738529205322, 7.1366658210754395, -2.299149751663208, -1.7267826795578003, -2.102508068084717, 1.115966796875, -0.408203125, 0.056884765625
247, 521472256, -6.801148891448975, -0.8013853430747986, 7.128737449645996, -2.2571446895599365, -1.783873200416565, -2.1260201930999756, 1.116455078125, -0.406494140625, 0.057373046875
248, 521488923, -6.7899065017700195, -0.8005993962287903, 7.126705169677734, -2.2754452228546143, -1.7061901092529297, -2.175811767578125, 1.115966796875, -0.407470703125, 0.055419921875
249, 521505590, -6.812591552734375, -0.7981548309326172, 7.136902809143066, -2.2926697731018066, -1.7399860620498657, -2.221376657485962, 1.11572265625, -0.407958984375, 0.054931640625
250, 521522257, -6.7997517585754395, -0.8135858774185181, 7.129967212677002, -2.360184669494629, -1.7836556434631348, -2.161327838897705, 1.116455078125, -0.406494140625, 0.055419921875
251, 521538924, -6.819761753082275, -0.8072322607040405, 7.1411871910095215, -2.3848884105682373, -1.6870061159133911, -2.2029483318328857, 1.117919921875, -0.407958984375, 0.056884765625
252, 521555591, -6.798863887786865, -0.7832735776901245, 7.139372825622559, -2.468705654144287, -1.6241141557693481, -2.206239938735962, 1.116943359375, -0.406005859375, 0.0537109375
253, 521572258, -6.806778907775879, -0.7978304624557495, 7.133195400238037, -2.4722659587860107, -1.6163535118103027, -2.364513397216797, 1.117431640625, -0.408203125, 0.055908203125
254, 521588925, -6.81382417678833, -0.8060805201530457, 7.156467437744141, -2.5584914684295654, -1.5756678581237793, -2.3472635746002197, 1.115966796875, -0.407470703125, 0.057861328125
255, 521605592, -6.806978225708008, -0.7963724732398987, 7.138878345489502, -2.4763894081115723, -1.5658067464828491, -2.369187593460083, 1.116455078125, -0.407958984375, 0.054931640625
256, 521622259, -6.819104194641113, -0.8062610030174255, 7.153312683105469, -2.51021146774292, -1.6144583225250244, -2.401703357696533, 1.11376953125, -0.406982421875, 0.0556640625
257, 521638926, -6.796536445617676, -0.7992215752601624, 7.134523868560791, -2.418696880340576, -1.6180564165115356, -2.426201343536377, 1.115966796875, -0.407958984375, 0.056884765625
258, 521655593, -6.821435928344727, -0.8026866912841797, 7.14566707611084, -2.5238239765167236, -1.536365032196045, -2.472355604171753, 1.115966796875, -0.407470703125, 0.055908203125
259, 521672260, -6.814734935760498, -0.8051740527153015, 7.13555383682251, -2.5961549282073975, -1.4885207414627075, -2.5372841358184814, 1.118408203125, -0.407958984375, 0.054931640625
260, 521688927, -6.793697834014893, -0.8159365653991699, 7.119044303894043, -2.6247899532318115, -1.4970881938934326, -2.5541629791259766, 1.117919921875, -0.406982421875, 0.055419921875
261, 521705594, -6.804327011108398, -0.8103907704353333, 7.12904691696167, -2.549654722213745, -1.5057324171066284, -2.4314393997192383, 1.11572265625, -0.407470703125, 0.056884765625
262, 521722261, -6.810720443725586, -0.8190762400627136, 7.138864517211914, -2.461547374725342, -1.6131647825241089, -2.3984501361846924, 1.11572265625, -0.406982421875, 0.05322265625
263, 521738928, -6.800905704498291, -0.8302805423736572, 7.116787433624268, -2.488619804382324, -1.5727992057800293, -2.3759877681732178, 1.117919921875, -0.405517578125, 0.055419921875
264, 521755595, -6.801797866821289, -0.8206174373626709, 7.1200127601623535, -2.4021894931793213, -1.5738364458084106, -2.371351957321167, 1.116455078125, -0.406494140625, 0.055419921875
265, 521772262, -6.804405212402344, -0.8089576363563538, 7.127195835113525, -2.453261375427246, -1.6072354316711426, -2.336057424545288, 1.116943359375, -0.407470703125, 0.055419921875
266, 521788929, -6.801458835601807, -0.8080117702484131, 7.1441569328308105, -2.400214195251465, -1.7072911262512207, -2.274066209793091, 1.115234375, -0.407470703125, 0.055419921875
267, 521805596, -6.817285060882568, -0.8179621696472168, 7.138522624969482, -2.3882946968078613, -1.6559507846832275, -2.2101967334747314, 1.1142578125, -0.406982421875, 0.055419921875
268, 521822263, -6.801846981048584, -0.8239858150482178, 7.145384311676025, -2.347391366958618, -1.7091739177703857, -2.2758421897888184, 1.116943359375, -0.406494140625, 0.0546875
269, 521838930, -6.817142009735107, -0.8143155574798584, 7.139183044433594, -2.4118967056274414, -1.6035215854644775, -2.2339015007019043, 1.115234375, -0.405029296875, 0.0546875
270, 521855597, -6.808304786682129, -0.8119962811470032, 7.134067535400391, -2.364718198776245, -1.6509051322937012, -2.2633814811706543, 1.11572265625, -0.406494140625, 0.05322265625
271, 521872264, -6.79571533203125, -0.8194016814231873, 7.135444641113281, -2.352680206298828, -1.7035391330718994, -2.2956151962280273, 1.11572265625, -0.406982421875, 0.055908203125
272, 521888931, -6.802931785583496, -0.8173045516014099, 7.149362564086914, -2.2890071868896484, -1.700683355331421, -2.1872222423553467, 1.11572265625, -0.407958984375, 0.05224609375
273, 521905598, -6.811123371124268, -0.8005065321922302, 7.114931583404541, -2.364269733428955, -1.7021175622940063, -2.2198269367218018, 1.1142578125, -0.406494140625, 0.05517578125
274, 521922265, -6.795934200286865, -0.8159991502761841, 7.143917560577393, -2.3272340297698975, -1.6711773872375488, -2.2416744232177734, 1.1142578125, -0.406494140625, 0.056396484375
275, 521938932, -6.792969226837158, -0.8042128682136536, 7.135151386260986, -2.400294065475464, -1.637624979019165, -2.2867915630340576, 1.1142578125, -0.407470703125, 0.05419921875
276, 521955599, -6.791671276092529, -0.8116073608398438, 7.142834186553955, -2.4283533096313477, -1.5219449996948242, -2.2254621982574463, 1.115234375, -0.407958984375, 0.05419921875
277, 521972266, -6.791309356689453, -0.8157011270523071, 7.147475242614746, -2.4663496017456055, -1.5206388235092163, -2.2994956970214844, 1.115234375, -0.405517578125, 0.055419921875
278, 521988933, -6.802864074707031, -0.8116567134857178, 7.139912128448486, -2.420105457305908, -1.6471397876739502, -2.2643802165985107, 1.116943359375, -0.407958984375, 0.054443359375
279, 522005600, -6.797785758972168, -0.8004233837127686, 7.157630443572998, -2.4431440830230713, -1.6011265516281128, -2.2765719890594482, 1.116943359375, -0.406494140625, 0.05322265625
280, 522022267, -6.791424751281738, -0.8202592134475708, 7.133787631988525, -2.389639139175415, -1.6299409866333008, -2.221799373626709, 1.116943359375, -0.407470703125, 0.054931640625
281, 522038934, -6.81032657623291, -0.797814130783081, 7.133296489715576, -2.4085030555725098, -1.4881362915039062, -2.2800683975219727, 1.116943359375, -0.407470703125, 0.05224609375
282, 522055601, -6.802876949310303, -0.8082122802734375, 7.132307529449463, -2.4291083812713623, -1.5469173192977905, -2.298611640930176, 1.115234375, -0.406005859375, 0.0546875
283, 522072268, -6.796449184417725, -0.8048551082611084, 7.116774082183838, -2.3157596588134766, -1.5408601760864258, -2.2771997451782227, 1.11572265625, -0.407470703125, 0.05419921875
284, 522088935, -6.805364608764648, -0.827109158039093, 7.142293453216553, -2.3317291736602783, -1.5505801439285278, -2.3202290534973145, 1.11572265625, -0.405517578125, 0.05322265625
285, 522105602, -6.813473224639893, -0.8115259408950806, 7.125436305999756, -2.249115228652954, -1.5699944496154785, -2.2285609245300293, 1.1162109375, -0.407470703125, 0.0537109375
286, 522122269, -6.79182243347168, -0.805392324924469, 7.139899730682373, -2.3847219944000244, -1.557969331741333, -2.206777572631836, 1.1142578125, -0.406494140625, 0.0537109375
287, 522138936, -6.798500061035156, -0.7967916131019592, 7.124853610992432, -2.3515658378601074, -1.5621569156646729, -2.21820068359375, 1.1162109375, -0.405517578125, 0.05419921875
288, 522155603, -6.79669189453125, -0.8117989897727966, 7.1407647132873535, -2.431605815887451, -1.494667649269104, -2.237525701522827, 1.115234375, -0.405029296875, 0.0546875
289, 522172270, -6.808344841003418, -0.8040964007377625, 7.119444370269775, -2.574486255645752, -1.4312760829925537, -2.3287580013275146, 1.117431640625, -0.406494140625, 0.056396484375
290, 522188937, -6.797532081604004, -0.7988021969795227, 7.128447532653809, -2.4707419872283936, -1.4776735305786133, -2.343395709991455, 1.11669921875, -0.405517578125, 0.0546875
291, 522205604, -6.812626361846924, -0.7995274662971497, 7.137930393218994, -2.4667975902557373, -1.5317292213439941, -2.3166942596435547, 1.1142578125, -0.406494140625, 0.0546875
292, 522222271, -6.797250747680664, -0.8203566670417786, 7.119043827056885, -2.3936989307403564, -1.5400021076202393, -2.266416549682617, 1.1142578125, -0.406494140625, 0.0537109375
293, 522238938, -6.80966329574585, -0.8027019500732422, 7.135077476501465, -2.5179593563079834, -1.518589973449707, -2.4289298057556152, 1.115234375, -0.407470703125, 0.055419921875
294, 522255605, -6.800806999206543, -0.8104512691497803, 7.141374588012695, -2.415930986404419, -1.6345770359039307, -2.4006526470184326, 1.115234375, -0.406005859375, 0.05517578125
295, 522272272, -6.803189277648926, -0.8191575407981873, 7.143375396728516, -2.3859124183654785, -1.6250361204147339, -2.368124485015869, 1.115234375, -0.406494140625, 0.05517578125
296, 522288939, -6.809099197387695, -0.822800874710083, 7.15404748916626, -2.390113115310669, -1.6234610080718994, -2.3658835887908936, 1.1162109375, -0.405517578125, 0.0537109375
297, 522305606, -6.803677082061768, -0.8077152967453003, 7.158282279968262, -2.4221420288085938, -1.6162511110305786, -2.3874239921569824, 1.115966796875, -0.407470703125, 0.055908203125
298, 522322273, -6.788347244262695, -0.8123877048492432, 7.152884006500244, -2.363168716430664, -1.6172372102737427, -2.430927038192749, 1.11572265625, -0.406982421875, 0.054931640625
299, 522338940, -6.814943313598633, -0.8207616806030273, 7.151723384857178, -2.389268159866333, -1.6823830604553223, -2.265738010406494, 1.1142578125, -0.406494140625, 0.05224609375
300, 522355607, -6.8006367683410645, -0.8059991002082825, 7.116246223449707, -2.372286558151245, -1.5730551481246948, -2.323033332824707, 1.115234375, -0.406005859375, 0.0537109375
301, 522372274, -6.807962417602539, -0.8074297308921814, 7.131441593170166, -2.366178035736084, -1.6095532178878784, -2.4161484241485596, 1.115234375, -0.406494140625, 0.0537109375
302, 522388941, -6.806660175323486, -0.8064458966255188, 7.13517427444458, -2.4370174407958984, -1.6253868341445923, -2.376344680786133, 1.116455078125, -0.406005859375, 0.055419921875
303, 522405608, -6.802698135375977, -0.8092659711837769, 7.1263604164123535, -2.431324005126953, -1.6047126054763794, -2.332395076751709, 1.115234375, -0.406494140625, 0.05517578125
304, 522422275, -6.79516077041626, -0.8029672503471375, 7.12326192855835, -2.4989545345306396, -1.6603561639785767, -2.367023468017578, 1.11572265625, -0.406982421875, 0.05419921875
305, 522438942, -6.795215129852295, -0.8132161498069763, 7.134596824645996, -2.4823834896087646, -1.626867651939392, -2.4899516105651855, 1.115234375, -0.404052734375, 0.05419921875
306, 522455609, -6.793449878692627, -0.8335968852043152, 7.1306047439575195, -2.4942164421081543, -1.6029455661773682, -2.4180185794830322, 1.11474609375, -0.407470703125, 0.05322265625
307, 522472276, -6.807244300842285, -0.8242535591125488, 7.152810096740723, -2.4701144695281982, -1.5948389768600464, -2.35534405708313, 1.11572265625, -0.405517578125, 0.05322265625
308, 522488943, -6.79038143157959, -0.8306108713150024, 7.13842248916626, -2.5138609409332275, -1.5474680662155151, -2.384734630584717, 1.1162109375, -0.404541015625, 0.0546875
309, 522505610, -6.794541358947754, -0.8210175633430481, 7.126168727874756, -2.4672844409942627, -1.5292320251464844, -2.3844401836395264, 1.11279296875, -0.405517578125, 0.0546875
310, 522522277, -6.787240028381348, -0.8202299475669861, 7.14429235458374, -2.352705955505371, -1.6072611808776855, -2.310060977935791, 1.11572265625, -0.406982421875, 0.05419921875
311, 522538944, -6.795846462249756, -0.8289393186569214, 7.1301140785217285, -2.258784055709839, -1.6788486242294312, -2.2758166790008545, 1.11474609375, -0.406494140625, 0.052734375
312, 522555611, -6.813083171844482, -0.8268870115280151, 7.142207145690918, -2.289954662322998, -1.6613166332244873, -2.2218377590179443, 1.11474609375, -0.405517578125, 0.0546875
313, 522572278, -6.788703918457031, -0.8060559630393982, 7.147141933441162, -2.2820277214050293, -1.7146166563034058, -2.2362961769104004, 1.115966796875, -0.407958984375, 0.052734375
314, 522588945, -6.803884506225586, -0.8144859671592712, 7.15507698059082, -2.3986806869506836, -1.567407488822937, -2.245490789413452, 1.115234375, -0.406494140625, 0.05517578125
315, 522605612, -6.8037519454956055, -0.8155364990234375, 7.147930145263672, -2.4183127880096436, -1.5335988998413086, -2.29886794090271, 1.1142578125, -0.407470703125, 0.055419921875
316, 522622279, -6.788308620452881, -0.8248564600944519, 7.143178462982178, -2.4319257736206055, -1.5654098987579346, -2.3214199542999268, 1.11376953125, -0.403564453125, 0.05419921875
317, 522638946, -6.8062968254089355, -0.8149622082710266, 7.137414932250977, -2.389434337615967, -1.5840941667556763, -2.326465368270874, 1.11328125, -0.406005859375, 0.05419921875
318, 522655613, -6.7860565185546875, -0.8219083547592163, 7.130295753479004, -2.413266897201538, -1.6636346578598022, -2.373772382736206, 1.11376953125, -0.406005859375, 0.051025390625
319, 522672280, -6.797267436981201, -0.8212212324142456, 7.164801120758057, -2.2452991008758545, -1.6456031799316406, -2.2641754150390625, 1.117919921875, -0.405029296875, 0.05322265625
320, 522688947, -6.8079729080200195, -0.8067247271537781, 7.139290809631348, -2.320805072784424, -1.5622978210449219, -2.247796058654785, 1.115234375, -0.404541015625, 0.052734375
321, 522705614, -6.78508186340332, -0.8147057890892029, 7.149685859680176, -2.411461591720581, -1.5464822053909302, -2.2411625385284424, 1.1142578125, -0.406005859375, 0.0556640625
322, 522722281, -6.798824310302734, -0.8012542724609375, 7.177417755126953, -2.472163438796997, -1.461422324180603, -2.3589937686920166, 1.1142578125, -0.407470703125, 0.055419921875
323, 522738948, -6.7962446212768555, -0.8221273422241211, 7.172863483428955, -2.4736874103546143, -1.4269092082977295, -2.3911375999450684, 1.11572265625, -0.406982421875, 0.054931640625
324, 522755615, -6.793040752410889, -0.8222264647483826, 7.148038864135742, -2.4578588008880615, -1.5633991956710815, -2.3544347286224365, 1.115234375, -0.406494140625, 0.05322265625
325, 522772282, -6.810052871704102, -0.8166268467903137, 7.1394782066345215, -2.475083112716675, -1.5612090826034546, -2.3765382766723633, 1.115234375, -0.405029296875, 0.05419921875
326, 522788949, -6.799903392791748, -0.8152473568916321, 7.134912967681885, -2.4785282611846924, -1.606940746307373, -2.3875904083251953, 1.11181640625, -0.406982421875, 0.05517578125
327, 522805616, -6.79867696762085, -0.8133760094642639, 7.145564079284668, -2.4529669284820557, -1.541525959968567, -2.411346197128296, 1.1142578125, -0.405029296875, 0.05419921875
328, 522822283, -6.786421298980713, -0.8254104852676392, 7.138851165771484, -2.5186636447906494, -1.5922905206680298, -2.4430932998657227, 1.11572265625, -0.406494140625, 0.052734375
329, 522838950, -6.796159744262695, -0.8200756907463074, 7.11774206161499, -2.4861481189727783, -1.5936607122421265, -2.395210027694702, 1.11572265625, -0.405517578125, 0.052734375
330, 522855617, -6.792890548706055, -0.8109831809997559, 7.155895233154297, -2.5211222171783447, -1.4937711954116821, -2.289442539215088, 1.116455078125, -0.406005859375, 0.055419921875
331, 522872284, -6.782499313354492, -0.8346356153488159, 7.154109001159668, -2.4729957580566406, -1.5334193706512451, -2.3593647480010986, 1.115234375, -0.407958984375, 0.05419921875
332, 522888951, -6.796814918518066, -0.8239691853523254, 7.146101474761963, -2.497673749923706, -1.590177297592163, -2.344266653060913, 1.1142578125, -0.406005859375, 0.05517578125
333, 522905618, -6.79604959487915, -0.8305413722991943, 7.135595798492432, -2.532801628112793, -1.4557234048843384, -2.4074528217315674, 1.116455078125, -0.406494140625, 0.05322265625
334, 522922285, -6.7970757484436035, -0.8213615417480469, 7.149916648864746, -2.4665415287017822, -1.4396387338638306, -2.404148817062378, 1.1142578125, -0.404541015625, 0.052734375
335, 522938952, -6.790253639221191, -0.8265198469161987, 7.152301788330078, -2.532827138900757, -1.5105088949203491, -2.397656202316284, 1.11474609375, -0.405517578125, 0.0546875
336, 522955619, -6.790421485900879, -0.8403481245040894, 7.140524387359619, -2.522569417953491, -1.526440143585205, -2.356214761734009, 1.1162109375, -0.405029296875, 0.0546875
337, 522972286, -6.775223255157471, -0.811295211315155, 7.1408915519714355, -2.5245161056518555, -1.5488770008087158, -2.443106174468994, 1.115234375, -0.406005859375, 0.05322265625
338, 522988953, -6.788140296936035, -0.8301606178283691, 7.131820201873779, -2.534365653991699, -1.5019028186798096, -2.5536510944366455, 1.11572265625, -0.406005859375, 0.05419921875
339, 523005620, -6.797682285308838, -0.8435604572296143, 7.1494832038879395, -2.516012668609619, -1.4843714237213135, -2.4717538356781006, 1.11474609375, -0.405517578125, 0.05419921875
340, 523022287, -6.806622505187988, -0.8280848860740662, 7.127926826477051, -2.4834461212158203, -1.4607436656951904, -2.4307479858398438, 1.11474609375, -0.406005859375, 0.05517578125
341, 523038954, -6.791564464569092, -0.8381338119506836, 7.140191078186035, -2.4615087509155273, -1.536633849143982, -2.346072196960449, 1.1142578125, -0.404541015625, 0.0537109375
342, 523055621, -6.797691822052002, -0.8263863921165466, 7.153393745422363, -2.390305280685425, -1.5599415302276611, -2.2717955112457275, 1.1142578125, -0.406494140625, 0.0546875
343, 523072288, -6.793821811676025, -0.8223922848701477, 7.13909912109375, -2.3412694931030273, -1.6983139514923096, -2.2931435108184814, 1.1162109375, -0.405029296875, 0.052734375
344, 523088955, -6.790036678314209, -0.8314722180366516, 7.135562419891357, -2.3858742713928223, -1.7160125970840454, -2.3882691860198975, 1.11572265625, -0.406494140625, 0.05419921875
345, 523105622, -6.79931116104126, -0.8181728720664978, 7.13779354095459, -2.3637194633483887, -1.7083927392959595, -2.3351099491119385, 1.115234375, -0.405029296875, 0.052734375
346, 523122289, -6.798974514007568, -0.8325872421264648, 7.127880096435547, -2.350259780883789, -1.6935502290725708, -2.4662468433380127, 1.1142578125, -0.404052734375, 0.0556640625
347, 523138956, -6.781264305114746, -0.8277981877326965, 7.169551849365234, -2.3113160133361816, -1.7116199731826782, -2.3860151767730713, 1.11669921875, -0.404541015625, 0.05322265625
348, 523155623, -6.805095195770264, -0.8241144418716431, 7.133565425872803, -2.3806748390197754, -1.6592419147491455, -2.351860761642456, 1.11279296875, -0.404052734375, 0.05419921875
349, 523172290, -6.794333457946777, -0.8260776400566101, 7.15008544921875, -2.425279140472412, -1.6200671195983887, -2.3819808959960938, 1.1162109375, -0.40283203125, 0.05517578125
350, 523188957, -6.796571731567383, -0.8170783519744873, 7.140274524688721, -2.52286434173584, -1.589242696762085, -2.3724536895751953, 1.11474609375, -0.405029296875, 0.05517578125
351, 523205624, -6.798705577850342, -0.8240423798561096, 7.169382095336914, -2.4083495140075684, -1.5436134338378906, -2.330512523651123, 1.11474609375, -0.405517578125, 0.0556640625
352, 523222291, -6.801480770111084, -0.8309445381164551, 7.1324944496154785, -2.5149624347686768, -1.5626055002212524, -2.4045846462249756, 1.11376953125, -0.403564453125, 0.0537109375
353, 523238958, -6.784817695617676, -0.8219291567802429, 7.155370235443115, -2.493781089782715, -1.5944292545318604, -2.399782180786133, 1.11572265625, -0.405517578125, 0.0537109375
354, 523255625, -6.788300514221191, -0.8340083956718445, 7.148545742034912, -2.552625894546509, -1.5720947980880737, -2.486980438232422, 1.11474609375, -0.403564453125, 0.05419921875
355, 523272292, -6.780632019042969, -0.851416826248169, 7.1472907066345215, -2.4684369564056396, -1.559134840965271, -2.4446685314178467, 1.11572265625, -0.406494140625, 0.0537109375
356, 523288959, -6.785080909729004, -0.8315606713294983, 7.119938373565674, -2.5335445404052734, -1.4824632406234741, -2.519162893295288, 1.11572265625, -0.406005859375, 0.0537109375
357, 523305626, -6.777721405029297, -0.8382936120033264, 7.154562950134277, -2.5847954750061035, -1.4218252897262573, -2.5933115482330322, 1.11279296875, -0.405517578125, 0.052734375
358, 523322293, -6.784966945648193, -0.8491416573524475, 7.148538112640381, -2.6892952919006348, -1.2460963726043701, -2.5855894088745117, 1.11572265625, -0.405029296875, 0.05322265625
359, 523338960, -6.800567150115967, -0.8369579911231995, 7.153267860412598, -2.553586721420288, -1.3224862813949585, -2.55499529838562, 1.11572265625, -0.403076171875, 0.05419921875
360, 523355627, -6.782107353210449, -0.8504113554954529, 7.141861438751221, -2.5075342655181885, -1.3844560384750366, -2.476274013519287, 1.115234375, -0.403564453125, 0.05419921875
361, 523372294, -6.800638675689697, -0.8372581601142883, 7.1301093101501465, -2.478630542755127, -1.3849555253982544, -2.410705804824829, 1.1162109375, -0.404541015625, 0.05322265625
362, 523388961, -6.787822246551514, -0.8419451713562012, 7.152715682983398, -2.4828054904937744, -1.4094668626785278, -2.3746178150177, 1.1162109375, -0.406005859375, 0.052734375
363, 523405628, -6.790907382965088, -0.8412537574768066, 7.1413493156433105, -2.5008625984191895, -1.497100830078125, -2.397899627685547, 1.1171875, -0.403564453125, 0.052734375
364, 523422295, -6.815895080566406, -0.843896746635437, 7.147344589233398, -2.443810224533081, -1.4559156894683838, -2.394057512283325, 1.115234375, -0.40234375, 0.0537109375
365, 523438962, -6.792228698730469, -0.8420145511627197, 7.148059844970703, -2.446204900741577, -1.5219835042953491, -2.3521170616149902, 1.11474609375, -0.402587890625, 0.05126953125
366, 523455629, -6.788103103637695, -0.8452630639076233, 7.13265323638916, -2.501413106918335, -1.6020103693008423, -2.437932014465332, 1.11474609375, -0.404541015625, 0.05224609375
367, 523472296, -6.7941179275512695, -0.8338683843612671, 7.152608394622803, -2.517869472503662, -1.4591301679611206, -2.4854822158813477, 1.1171875, -0.404052734375, 0.05322265625
368, 523488963, -6.806210041046143, -0.82948899269104, 7.157108783721924, -2.5177416801452637, -1.4284589290618896, -2.4883127212524414, 1.1162109375, -0.404052734375, 0.055908203125
369, 523505630, -6.804568767547607, -0.838371753692627, 7.141789436340332, -2.5910706520080566, -1.3798972368240356, -2.4871597290039062, 1.116943359375, -0.406982421875, 0.0537109375
370, 523522297, -6.785983562469482, -0.8512492179870605, 7.1629838943481445, -2.513695001602173, -1.554857611656189, -2.4500982761383057, 1.11376953125, -0.404052734375, 0.05419921875
371, 523538964, -6.789503574371338, -0.848103404045105, 7.12973690032959, -2.4127418994903564, -1.5630918741226196, -2.4459359645843506, 1.11279296875, -0.403076171875, 0.052001953125
372, 523555631, -6.782317161560059, -0.8502014875411987, 7.140357494354248, -2.505690336227417, -1.5249544382095337, -2.360133171081543, 1.1162109375, -0.40185546875, 0.05419921875
373, 523572298, -6.796699047088623, -0.8503586649894714, 7.1463189125061035, -2.486877918243408, -1.4725764989852905, -2.324634313583374, 1.115234375, -0.403564453125, 0.05517578125
374, 523588965, -6.799503326416016, -0.8486506342887878, 7.148186206817627, -2.5310230255126953, -1.4966778755187988, -2.282850980758667, 1.11474609375, -0.403564453125, 0.05322265625
375, 523605632, -6.779714584350586, -0.8491785526275635, 7.139358043670654, -2.55741548538208, -1.4835004806518555, -2.294731378555298, 1.11376953125, -0.404052734375, 0.05419921875
376, 523622299, -6.792174816131592, -0.8489694595336914, 7.133774280548096, -2.43880295753479, -1.432479739189148, -2.3588268756866455, 1.115234375, -0.403564453125, 0.05517578125
377, 523638966, -6.796289920806885, -0.8638492822647095, 7.124950408935547, -2.5166397094726562, -1.474753499031067, -2.349247932434082, 1.1162109375, -0.402587890625, 0.05322265625
378, 523655633, -6.793736457824707, -0.837210476398468, 7.130613803863525, -2.4586141109466553, -1.5561763048171997, -2.2338626384735107, 1.11572265625, -0.403076171875, 0.0537109375
379, 523672300, -6.787842750549316, -0.8378192186355591, 7.151594638824463, -2.417057752609253, -1.5401557683944702, -2.3677148818969727, 1.11474609375, -0.404052734375, 0.05322265625
380, 523688967, -6.792924404144287, -0.837571382522583, 7.144866943359375, -2.4079012870788574, -1.5828906297683716, -2.3171169757843018, 1.1162109375, -0.403564453125, 0.0537109375
381, 523705634, -6.795398235321045, -0.8388163447380066, 7.146503448486328, -2.4341416358947754, -1.5827240943908691, -2.324775218963623, 1.1162109375, -0.404541015625, 0.05517578125
382, 523722301, -6.793504238128662, -0.8406816720962524, 7.15278959274292, -2.4499573707580566, -1.5245320796966553, -2.329641580581665, 1.1142578125, -0.402587890625, 0.05419921875
383, 523738968, -6.786102771759033, -0.8542926907539368, 7.1530632972717285, -2.574256181716919, -1.5147866010665894, -2.394134521484375, 1.11572265625, -0.402587890625, 0.05322265625
384, 523755635, -6.780653953552246, -0.843427836894989, 7.1366095542907715, -2.544109344482422, -1.426012635231018, -2.382352352142334, 1.11474609375, -0.404541015625, 0.0546875
385, 523772302, -6.784001350402832, -0.8476427793502808, 7.151773929595947, -2.544788122177124, -1.4402276277542114, -2.404148817062378, 1.117431640625, -0.405029296875, 0.054931640625
386, 523788969, -6.786330223083496, -0.842936098575592, 7.15444278717041, -2.473879337310791, -1.5093435049057007, -2.2808876037597656, 1.11376953125, -0.404052734375, 0.05419921875
387, 523805636, -6.798762798309326, -0.8378177285194397, 7.132955551147461, -2.4679884910583496, -1.5651665925979614, -2.2226574420928955, 1.11328125, -0.404541015625, 0.05322265625
388, 523822303, -6.779618740081787, -0.849590539932251, 7.147013187408447, -2.4458844661712646, -1.4804267883300781, -2.278454542160034, 1.115234375, -0.403564453125, 0.0537109375
389, 523838970, -6.787190914154053, -0.8296905755996704, 7.137938499450684, -2.591287851333618, -1.3885154724121094, -2.3362109661102295, 1.1162109375, -0.403076171875, 0.055908203125
390, 523855637, -6.79605770111084, -0.8338305354118347, 7.1438069343566895, -2.4846112728118896, -1.335945725440979, -2.2280232906341553, 1.11669921875, -0.403564453125, 0.05322265625
391, 523872304, -6.792298316955566, -0.8466731905937195, 7.1423726081848145, -2.521352529525757, -1.3129581212997437, -2.3312549591064453, 1.11572265625, -0.403076171875, 0.052734375
392, 523888971, -6.79500675201416, -0.8602864742279053, 7.145900726318359, -2.515167236328125, -1.3858904838562012, -2.299713134765625, 1.11474609375, -0.40185546875, 0.0546875
393, 523905638, -6.792798042297363, -0.8341003656387329, 7.135367393493652, -2.5308034420013428, -1.3522224426269531, -2.3102526664733887, 1.11376953125, -0.403564453125, 0.05517578125
394, 523922305, -6.7929582595825195, -0.8553497791290283, 7.134485244750977, -2.4587807655334473, -1.353733777999878, -2.2565431594848633, 1.1162109375, -0.403564453125, 0.056884765625
395, 523938972, -6.809085845947266, -0.8318929672241211, 7.143033504486084, -2.463813543319702, -1.4306741952896118, -2.3032350540161133, 1.1162109375, -0.4013671875, 0.050048828125
396, 523955639, -6.798647403717041, -0.8391870856285095, 7.141578197479248, -2.5159871578216553, -1.343936800956726, -2.240201950073242, 1.115234375, -0.404541015625, 0.05322265625
397, 523972306, -6.797179222106934, -0.8690904378890991, 7.1432061195373535, -2.463698625564575, -1.4242967367172241, -2.287816047668457, 1.11669921875, -0.405029296875, 0.05419921875
398, 523988973, -6.800392150878906, -0.8614365458488464, 7.139375686645508, -2.5054726600646973, -1.5718257427215576, -2.2013602256774902, 1.1142578125, -0.403564453125, 0.05322265625
399, 524005640, -6.801916599273682, -0.8520733714103699, 7.1597394943237305, -2.4212582111358643, -1.5373382568359375, -2.168921947479248, 1.11474609375, -0.404541015625, 0.0546875
400, 524022307, -6.79612922668457, -0.8557031750679016, 7.134390354156494, -2.419696092605591, -1.5205748081207275, -2.146677255630493, 1.11376953125, -0.403564453125, 0.05615234375
401, 524038974, -6.800601482391357, -0.8675658106803894, 7.111600875854492, -2.449662685394287, -1.6023818254470825, -2.113009214401245, 1.1142578125, -0.403076171875, 0.05615234375
402, 524055641, -6.799749851226807, -0.8220558762550354, 7.145261287689209, -2.2549550533294678, -1.6162896156311035, -2.053408622741699, 1.1162109375, -0.40234375, 0.05517578125
403, 524072308, -6.801053047180176, -0.8492215275764465, 7.119129180908203, -2.216574192047119, -1.6817938089370728, -2.052537679672241, 1.11474609375, -0.406982421875, 0.055419921875
404, 524088975, -6.803402423858643, -0.8483064770698547, 7.145959854125977, -2.203320026397705, -1.5720692873001099, -2.0030412673950195, 1.115234375, -0.403076171875, 0.056396484375
405, 524105642, -6.789004802703857, -0.8425900936126709, 7.149947643280029, -2.193138599395752, -1.6206817626953125, -1.9151252508163452, 1.11474609375, -0.404052734375, 0.052734375
406, 524122309, -6.799648761749268, -0.8466638326644897, 7.151095867156982, -2.1825478076934814, -1.5852082967758179, -1.8773595094680786, 1.11572265625, -0.403076171875, 0.0556640625
407, 524138976, -6.795032501220703, -0.831093430519104, 7.132974624633789, -2.2224009037017822, -1.603931188583374, -1.9018580913543701, 1.11474609375, -0.404541015625, 0.05517578125
408, 524155643, -6.795619010925293, -0.8524226546287537, 7.136353492736816, -2.1254825592041016, -1.587487816810608, -1.992719292640686, 1.115234375, -0.402587890625, 0.05322265625
409, 524172310, -6.787576198577881, -0.8418484926223755, 7.137212753295898, -2.084540843963623, -1.74376380443573, -1.9014228582382202, 1.117431640625, -0.403564453125, 0.05419921875
410, 524188977, -6.78923225402832, -0.8381209969520569, 7.1289215087890625, -1.9682432413101196, -1.8822795152664185, -1.7975833415985107, 1.116943359375, -0.405517578125, 0.054931640625
411, 524205644, -6.784526348114014, -0.8428889513015747, 7.1450276374816895, -1.8888721466064453, -1.8663588762283325, -1.780850887298584, 1.1142578125, -0.405029296875, 0.0556640625
412, 524222311, -6.792119979858398, -0.8492481708526611, 7.131222248077393, -1.712670087814331, -1.988749384880066, -1.6795270442962646, 1.11669921875, -0.40283203125, 0.05517578125
413, 524238978, -6.798680782318115, -0.8159367442131042, 7.138324737548828, -1.8958263397216797, -1.991297721862793, -1.7701704502105713, 1.11474609375, -0.405517578125, 0.052734375
414, 524255645, -6.7821173667907715, -0.8292532563209534, 7.121761322021484, -1.9419547319412231, -1.873248815536499, -1.8298861980438232, 1.1142578125, -0.405517578125, 0.052734375
415, 524272312, -6.780562400817871, -0.8208390474319458, 7.129363059997559, -2.062180995941162, -1.9011155366897583, -1.8882578611373901, 1.118408203125, -0.405029296875, 0.0537109375
416, 524288979, -6.790261745452881, -0.8320581316947937, 7.156333923339844, -2.027808427810669, -1.8965563774108887, -1.837544560432434, 1.115234375, -0.406494140625, 0.05517578125
417, 524305646, -6.776172637939453, -0.8084230422973633, 7.142110347747803, -1.9874813556671143, -1.7706314325332642, -1.843166708946228, 1.115234375, -0.405517578125, 0.0546875
418, 524322313, -6.793850421905518, -0.8188357353210449, 7.149044036865234, -2.118042230606079, -1.7762022018432617, -1.9016915559768677, 1.1123046875, -0.405029296875, 0.05224609375
419, 524338980, -6.791910648345947, -0.8321278095245361, 7.1405816078186035, -2.0769975185394287, -1.7375526428222656, -1.9275859594345093, 1.11474609375, -0.404052734375, 0.0517578125
420, 524355647, -6.78995418548584, -0.811926007270813, 7.138145923614502, -2.1551673412323, -1.7113252878189087, -1.9406228065490723, 1.11376953125, -0.406005859375, 0.05419921875
421, 524372314, -6.791989326477051, -0.8052507042884827, 7.158973217010498, -2.206700563430786, -1.7047555446624756, -1.990017056465149, 1.1142578125, -0.406494140625, 0.052734375
422, 524388981, -6.776400089263916, -0.8049275875091553, 7.15951681137085, -2.163017988204956, -1.6703577041625977, -2.0371057987213135, 1.11474609375, -0.406005859375, 0.052734375
423, 524405648, -6.786660671234131, -0.8137140870094299, 7.149705410003662, -2.181459426879883, -1.7249513864517212, -2.152017593383789, 1.11376953125, -0.405029296875, 0.05517578125
424, 524422315, -6.778589725494385, -0.8127601146697998, 7.151456832885742, -2.301851987838745, -1.6957786083221436, -2.156205177307129, 1.1142578125, -0.405029296875, 0.0517578125
425, 524438982, -6.7810564041137695, -0.8131108283996582, 7.149750709533691, -2.2922470569610596, -1.7342742681503296, -2.236423969268799, 1.1142578125, -0.404541015625, 0.0537109375
426, 524455649, -6.7831010818481445, -0.8161581158638, 7.159438133239746, -2.449496030807495, -1.6000252962112427, -2.3343029022216797, 1.11328125, -0.404541015625, 0.051513671875
427, 524472316, -6.791494846343994, -0.8219399452209473, 7.148787975311279, -2.4817941188812256, -1.55066978931427, -2.4378299713134766, 1.11474609375, -0.406005859375, 0.0546875
428, 524488983, -6.785982608795166, -0.8166618347167969, 7.161128520965576, -2.484316825866699, -1.441072940826416, -2.334623098373413, 1.115234375, -0.405517578125, 0.052734375
429, 524505650, -6.7837114334106445, -0.8248424530029297, 7.137086868286133, -2.458294153213501, -1.4601929187774658, -2.30629563331604, 1.115234375, -0.406005859375, 0.0537109375
430, 524522317, -6.78562593460083, -0.8334175944328308, 7.150022029876709, -2.417083263397217, -1.3812544345855713, -2.260730504989624, 1.115478515625, -0.4091796875, 0.05322265625
431, 524538984, -6.782467842102051, -0.8205016255378723, 7.152287006378174, -2.455002784729004, -1.5393487215042114, -2.2652251720428467, 1.1162109375, -0.404541015625, 0.05419921875
432, 524555651, -6.775851726531982, -0.8211337924003601, 7.135058879852295, -2.4032649993896484, -1.554831624031067, -2.2374613285064697, 1.11376953125, -0.406982421875, 0.05322265625
433, 524572318, -6.791193008422852, -0.8220682144165039, 7.138742923736572, -2.4161741733551025, -1.5478395223617554, -2.162838935852051, 1.1162109375, -0.406982421875, 0.05419921875
434, 524588985, -6.776429653167725, -0.8023555278778076, 7.143587589263916, -2.3464434146881104, -1.4723460674285889, -2.1763620376586914, 1.117919921875, -0.406494140625, 0.054443359375
435, 524605652, -6.78627347946167, -0.8248335123062134, 7.162917137145996, -2.474865436553955, -1.4478217363357544, -2.209568977355957, 1.11572265625, -0.406005859375, 0.05322265625
436, 524622319, -6.788939476013184, -0.8244289755821228, 7.154411315917969, -2.3575334548950195, -1.4757779836654663, -2.151172161102295, 1.11376953125, -0.406982421875, 0.052734375
437, 524638986, -6.798300743103027, -0.8328143954277039, 7.144455432891846, -2.4530179500579834, -1.434157371520996, -2.150160312652588, 1.11376953125, -0.405517578125, 0.05224609375
438, 524655653, -6.800216197967529, -0.8249971270561218, 7.142767906188965, -2.37967586517334, -1.4368469715118408, -2.2433013916015625, 1.115234375, -0.404541015625, 0.05322265625
439, 524672320, -6.782652854919434, -0.8268104791641235, 7.149848937988281, -2.4105136394500732, -1.5219578742980957, -2.1831753253936768, 1.1162109375, -0.405517578125, 0.055419921875
440, 524688987, -6.78090763092041, -0.8168972730636597, 7.1491498947143555, -2.412396192550659, -1.57000732421875, -2.1231136322021484, 1.115234375, -0.406494140625, 0.052734375
441, 524705654, -6.771979808807373, -0.8091039061546326, 7.156027793884277, -2.3568036556243896, -1.4810543060302734, -2.2161900997161865, 1.11669921875, -0.405029296875, 0.052734375
442, 524722321, -6.7678446769714355, -0.8221688866615295, 7.141432285308838, -2.455848217010498, -1.4445178508758545, -2.1388397216796875, 1.115234375, -0.405029296875, 0.05322265625
443, 524738988, -6.7817182540893555, -0.8216381669044495, 7.141926288604736, -2.4162378311157227, -1.4619472026824951, -2.1133291721343994, 1.1162109375, -0.404052734375, 0.05322265625
444, 524755655, -6.803621292114258, -0.8125633001327515, 7.132175922393799, -2.3392720222473145, -1.3748257160186768, -2.0892794132232666, 1.11669921875, -0.405517578125, 0.052734375
445, 524772322, -6.785434246063232, -0.8325681090354919, 7.146026611328125, -2.3619778156280518, -1.4930284023284912, -2.1251883506774902, 1.11474609375, -0.403076171875, 0.05419921875
446, 524788989, -6.779983043670654, -0.821474552154541, 7.1453094482421875, -2.3624634742736816, -1.437759518623352, -2.08549165725708, 1.1142578125, -0.406005859375, 0.0517578125
447, 524805656, -6.788254737854004, -0.8202921152114868, 7.146029472351074, -2.375885486602783, -1.4570040702819824, -2.1279544830322266, 1.11474609375, -0.403564453125, 0.05419921875
448, 524822323, -6.790218353271484, -0.8120019435882568, 7.135319709777832, -2.305143117904663, -1.494244933128357, -2.0367987155914307, 1.11474609375, -0.406982421875, 0.05322265625
449, 524838990, -6.791641712188721, -0.817031741142273, 7.148818016052246, -2.405019521713257, -1.4597700834274292, -2.0622317790985107, 1.116455078125, -0.40869140625, 0.052734375
450, 524855657, -6.7964653968811035, -0.8256357908248901, 7.128317356109619, -2.425279378890991, -1.44868004322052, -2.000275135040283, 1.1162109375, -0.406005859375, 0.05322265625
451, 524872324, -6.794026851654053, -0.8125048279762268, 7.16717004776001, -2.3113155364990234, -1.497228741645813, -2.0400638580322266, 1.116943359375, -0.405517578125, 0.05126953125
452, 524888991, -6.792718410491943, -0.835742712020874, 7.14061164855957, -2.350733518600464, -1.4077379703521729, -2.080941915512085, 1.115234375, -0.406005859375, 0.05322265625
453, 524905658, -6.782495498657227, -0.8021368384361267, 7.149003982543945, -2.475736141204834, -1.4056888818740845, -2.0934925079345703, 1.1142578125, -0.405517578125, 0.05322265625
454, 524922325, -6.782639503479004, -0.8058791160583496, 7.14160680770874, -2.5208911895751953, -1.4212870597839355, -2.1949315071105957, 1.11279296875, -0.404541015625, 0.05224609375
455, 524938992, -6.798471450805664, -0.8037750124931335, 7.1492085456848145, -2.5019123554229736, -1.449243426322937, -2.174044370651245, 1.11474609375, -0.406982421875, 0.055419921875
456, 524955659, -6.791857719421387, -0.7954605221748352, 7.156368255615234, -2.680894136428833, -1.328735589981079, -2.349248170852661, 1.115234375, -0.405517578125, 0.05224609375
457, 524972326, -6.798713207244873, -0.7924196720123291, 7.128730773925781, -2.7654550075531006, -1.1357569694519043, -2.601149320602417, 1.117431640625, -0.407470703125, 0.052734375
458, 524988993, -6.8046088218688965, -0.822284460067749, 7.143345832824707, -2.6984775066375732, -1.0649378299713135, -2.5806972980499268, 1.11572265625, -0.406005859375, 0.0546875
459, 525005660, -6.807448387145996, -0.8273192048072815, 7.125532627105713, -2.650709867477417, -1.2289488315582275, -2.458857774734497, 1.11572265625, -0.407470703125, 0.054931640625
460, 525022327, -6.801801681518555, -0.8289560079574585, 7.13356876373291, -2.5660080909729004, -1.3498915433883667, -2.3447017669677734, 1.11474609375, -0.405029296875, 0.05419921875
461, 525038994, -6.7953667640686035, -0.808060348033905, 7.155559062957764, -2.445219039916992, -1.397966742515564, -2.3430113792419434, 1.11376953125, -0.405517578125, 0.05322265625
462, 525055661, -6.796498775482178, -0.8150290846824646, 7.138068199157715, -2.4426193237304688, -1.4117977619171143, -2.315605878829956, 1.11328125, -0.406982421875, 0.0537109375
463, 525072328, -6.795475006103516, -0.8190892338752747, 7.120485782623291, -2.4374711513519287, -1.5421149730682373, -2.279210329055786, 1.115234375, -0.406494140625, 0.05419921875
464, 525088995, -6.789576053619385, -0.8208460807800293, 7.1331939697265625, -2.3376452922821045, -1.6264448165893555, -2.2252824306488037, 1.115234375, -0.405029296875, 0.0537109375
465, 525105662, -6.796967506408691, -0.8214189410209656, 7.140547275543213, -2.348736047744751, -1.6686546802520752, -2.152376413345337, 1.11474609375, -0.404541015625, 0.0556640625
466, 525122329, -6.804448127746582, -0.8042508959770203, 7.16375207901001, -2.2098124027252197, -1.632732629776001, -2.2444663047790527, 1.11376953125, -0.405029296875, 0.05322265625
467, 525138996, -6.792622089385986, -0.8130298852920532, 7.1472015380859375, -2.2472329139709473, -1.4650847911834717, -2.277020215988159, 1.116943359375, -0.404541015625, 0.055419921875
468, 525155663, -6.794186115264893, -0.8161215782165527, 7.143634796142578, -2.4672200679779053, -1.524583339691162, -2.243621349334717, 1.1162109375, -0.403564453125, 0.0517578125
469, 525172330, -6.789809226989746, -0.8154088258743286, 7.127540111541748, -2.370365619659424, -1.5368003845214844, -2.4528770446777344, 1.11572265625, -0.404541015625, 0.05322265625
470, 525188997, -6.795578479766846, -0.8205296993255615, 7.152617454528809, -2.389498472213745, -1.623691439628601, -2.286663293838501, 1.115234375, -0.404541015625, 0.0556640625
471, 525205664, -6.788110256195068, -0.8200280070304871, 7.146914482116699, -2.3967087268829346, -1.6864938735961914, -2.310508966445923, 1.11474609375, -0.405029296875, 0.052734375
472, 525222331, -6.804647445678711, -0.8130397796630859, 7.164969444274902, -2.2756752967834473, -1.6840605735778809, -2.366062879562378, 1.1123046875, -0.407470703125, 0.05419921875
473, 525238998, -6.783690452575684, -0.8194721937179565, 7.1514410972595215, -2.3906383514404297, -1.5726968050003052, -2.272563934326172, 1.115234375, -0.406005859375, 0.05224609375
474, 525255665, -6.795660018920898, -0.8262959122657776, 7.1470561027526855, -2.3502345085144043, -1.5041059255599976, -2.3117640018463135, 1.115234375, -0.405517578125, 0.05126953125
475, 525272332, -6.795552730560303, -0.844499409198761, 7.150853633880615, -2.3795864582061768, -1.5138643980026245, -2.2844350337982178, 1.115234375, -0.404052734375, 0.05126953125
476, 525288999, -6.796817779541016, -0.8394452929496765, 7.131640434265137, -2.3867194652557373, -1.522739052772522, -2.194150447845459, 1.115234375, -0.405029296875, 0.052734375
477, 525305666, -6.802581787109375, -0.8254209160804749, 7.129269123077393, -2.2764313220977783, -1.5868220329284668, -2.1691653728485107, 1.11572265625, -0.406494140625, 0.05322265625
478, 525322333, -6.78818941116333, -0.8205147385597229, 7.161080360412598, -2.3050148487091064, -1.6370232105255127, -2.1511852741241455, 1.11572265625, -0.406005859375, 0.0546875
479, 525339000, -6.789585113525391, -0.8204051852226257, 7.1449384689331055, -2.231929063796997, -1.5136209726333618, -2.027155637741089, 1.115234375, -0.404541015625, 0.05419921875
480, 525355667, -6.807015419006348, -0.8057664632797241, 7.141928672790527, -2.30142879486084, -1.47588050365448, -2.1462671756744385, 1.115966796875, -0.407470703125, 0.05419921875
481, 525372334, -6.784831523895264, -0.8333741426467896, 7.17391300201416, -2.2856385707855225, -1.5099966526031494, -2.1365599632263184, 1.117919921875, -0.405517578125, 0.052734375
482, 525389001, -6.784829139709473, -0.8185115456581116, 7.147505283355713, -2.339233875274658, -1.4163485765457153, -2.152541399002075, 1.1162109375, -0.406494140625, 0.05419921875
483, 525405668, -6.796787738800049, -0.8123241066932678, 7.141210079193115, -2.445603370666504, -1.384059190750122, -2.181459426879883, 1.11572265625, -0.406494140625, 0.05517578125
484, 525422335, -6.799404621124268, -0.8250624537467957, 7.147449493408203, -2.3510921001434326, -1.3013428449630737, -2.1406452655792236, 1.115234375, -0.405029296875, 0.0546875
485, 525439002, -6.792820930480957, -0.8419632315635681, 7.135955333709717, -2.3349688053131104, -1.4543275833129883, -2.139134168624878, 1.11474609375, -0.406005859375, 0.0537109375
486, 525455669, -6.801441669464111, -0.8190624713897705, 7.158489227294922, -2.3887555599212646, -1.45742666721344, -2.0825555324554443, 1.117919921875, -0.406005859375, 0.0537109375
487, 525472336, -6.795898914337158, -0.8192141056060791, 7.1466803550720215, -2.3483901023864746, -1.4252442121505737, -2.094388723373413, 1.115234375, -0.406494140625, 0.05419921875
488, 525489003, -6.7876152992248535, -0.8045219779014587, 7.136692523956299, -2.37555193901062, -1.5160284042358398, -2.0857443809509277, 1.116455078125, -0.406005859375, 0.054931640625
489, 525505670, -6.7821149826049805, -0.811456561088562, 7.136765480041504, -2.3243911266326904, -1.4789159297943115, -2.1944196224212646, 1.11376953125, -0.407470703125, 0.05419921875
490, 525522337, -6.780856132507324, -0.8214665055274963, 7.148627758026123, -2.3511176109313965, -1.5213173627853394, -2.2273826599121094, 1.11572265625, -0.406494140625, 0.05517578125
491, 525539004, -6.791696548461914, -0.8113477230072021, 7.1368865966796875, -2.310598373413086, -1.5128653049468994, -2.2071359157562256, 1.1142578125, -0.406005859375, 0.052734375
492, 525555671, -6.795495986938477, -0.8069416880607605, 7.127826690673828, -2.380047082901001, -1.4467717409133911, -2.198030710220337, 1.115234375, -0.40869140625, 0.0537109375
493, 525572338, -6.780176639556885, -0.8121607303619385, 7.154587745666504, -2.393378973007202, -1.4842432737350464, -2.180050849914551, 1.115966796875, -0.407958984375, 0.0537109375
494, 525589005, -6.799154281616211, -0.80808424949646, 7.155586242675781, -2.4058010578155518, -1.5188075304031372, -2.2503957748413086, 1.1142578125, -0.406005859375, 0.0537109375
495, 525605672, -6.797667980194092, -0.8018432855606079, 7.153914451599121, -2.497199773788452, -1.4369109869003296, -2.198965549468994, 1.11474609375, -0.406982421875, 0.0546875
496, 525622339, -6.79106330871582, -0.8042091727256775, 7.144442558288574, -2.695685625076294, -1.1744320392608643, -2.332420587539673, 1.115234375, -0.403564453125, 0.05419921875
497, 525639006, -6.779651641845703, -0.8180158734321594, 7.139843463897705, -2.6251609325408936, -1.1253197193145752, -2.2858569622039795, 1.11572265625, -0.406982421875, 0.0537109375
498, 525655673, -6.787229061126709, -0.8203235268592834, 7.155284881591797, -2.65049147605896, -0.8692053556442261, -2.1821506023406982, 1.1162109375, -0.406005859375, 0.055419921875
499, 525672340, -6.783352375030518, -0.8493077158927917, 7.130770206451416, -2.5261037349700928, -0.842004656791687, -2.0509753227233887, 1.115234375, -0.405029296875, 0.055419921875
500, 525689007, -6.799466133117676, -0.8244255781173706, 7.123624324798584, -2.3065388202667236, -1.0421295166015625, -1.8267362117767334, 1.115234375, -0.406982421875, 0.05322265625
501, 525705674, -6.80177116394043, -0.8362301588058472, 7.131235122680664, -2.13173246383667, -1.3199504613876343, -1.744673252105713, 1.115234375, -0.406982421875, 0.05224609375
502, 525722341, -6.807177543640137, -0.8282819986343384, 7.13066291809082, -2.006972551345825, -1.508408784866333, -1.5709164142608643, 1.11669921875, -0.406005859375, 0.05322265625
503, 525739008, -6.805732727050781, -0.8284494876861572, 7.150218963623047, -2.0119032859802246, -1.6218986511230469, -1.5926873683929443, 1.116455078125, -0.406982421875, 0.0546875
504, 525755675, -6.804877758026123, -0.798610270023346, 7.133490562438965, -1.947077751159668, -1.734633207321167, -1.760719656944275, 1.115966796875, -0.408203125, 0.0537109375
505, 525772342, -6.8001604080200195, -0.7943947315216064, 7.1669392585754395, -2.1219353675842285, -1.7044994831085205, -1.7507176399230957, 1.11572265625, -0.408203125, 0.0546875
506, 525789009, -6.798900127410889, -0.7834582924842834, 7.145357131958008, -2.338311195373535, -1.6956630945205688, -1.9913617372512817, 1.11572265625, -0.407470703125, 0.055419921875
507, 525805676, -6.813600063323975, -0.7941876649856567, 7.165421485900879, -2.412421703338623, -1.6358577013015747, -2.2381532192230225, 1.115234375, -0.407470703125, 0.0546875
508, 525822343, -6.8086628913879395, -0.7874439358711243, 7.1529059410095215, -2.6243538856506348, -1.4344775676727295, -2.352513551712036, 1.115234375, -0.406982421875, 0.0546875
509, 525839010, -6.791192531585693, -0.8279792070388794, 7.1296515464782715, -2.651042938232422, -1.474190354347229, -2.3864123821258545, 1.116455078125, -0.407470703125, 0.05419921875
510, 525855677, -6.788698196411133, -0.8172257542610168, 7.142307281494141, -2.588881015777588, -1.569879412651062, -2.3685989379882812, 1.117919921875, -0.406494140625, 0.0517578125
511, 525872344, -6.790175914764404, -0.7895976305007935, 7.150211334228516, -2.614800453186035, -1.4272934198379517, -2.351271629333496, 1.118408203125, -0.407958984375, 0.055908203125
512, 525889011, -6.8014020919799805, -0.805357038974762, 7.156216621398926, -2.6862728595733643, -1.1763144731521606, -2.4035983085632324, 1.11474609375, -0.406005859375, 0.055419921875
513, 525905678, -6.797049045562744, -0.8082557916641235, 7.1624979972839355, -2.8023111820220947, -1.1130768060684204, -2.4085800647735596, 1.11572265625, -0.407958984375, 0.054931640625
514, 525922345, -6.80682373046875, -0.7981878519058228, 7.14324426651001, -2.9487392902374268, -0.9686852693557739, -2.5393075942993164, 1.11572265625, -0.405029296875, 0.055419921875
515, 525939012, -6.793501853942871, -0.7875502109527588, 7.134118556976318, -3.126887798309326, -0.5177221894264221, -2.652066707611084, 1.11474609375, -0.404052734375, 0.05517578125
516, 525955679, -6.79827356338501, -0.7752548456192017, 7.144770622253418, -3.487975835800171, 0.1812034547328949, -2.8148229122161865, 1.115234375, -0.407470703125, 0.055419921875
517, 525972346, -6.797661781311035, -0.751969575881958, 7.157336235046387, -3.9691109657287598, 1.173413872718811, -3.086035966873169, 1.11376953125, -0.406005859375, 0.0546875
518, 525989013, -6.809804439544678, -0.7931177616119385, 7.160410404205322, -4.5760040283203125, 2.3348543643951416, -3.392717123031616, 1.118408203125, -0.404541015625, 0.056396484375
519, 526005680, -6.823797225952148, -0.8385254740715027, 7.148692607879639, -5.049102783203125, 3.5782997608184814, -3.488379716873169, 1.11669921875, -0.40283203125, 0.056884765625
520, 526022347, -6.86092472076416, -0.8117682337760925, 7.0733232498168945, -5.151636123657227, 3.4348745346069336, -3.7858517169952393, 1.1171875, -0.404052734375, 0.058837890625
521, 526039014, -6.839336395263672, -0.8682371973991394, 7.051758289337158, -4.660231590270996, 2.304086685180664, -3.5781843662261963, 1.117431640625, -0.40283203125, 0.06103515625
522, 526055681, -6.86543083190918, -0.8902227282524109, 7.064546585083008, -4.105024337768555, 1.3619489669799805, -3.267655611038208, 1.119384765625, -0.403076171875, 0.0595703125
523, 526072348, -6.860614776611328, -0.9052202701568604, 7.048218250274658, -3.7526707649230957, 0.7028957605361938, -2.9021239280700684, 1.119384765625, -0.40234375, 0.0625
524, 526089015, -6.862565994262695, -0.9069045186042786, 7.052496910095215, -3.4647839069366455, -0.05540027096867561, -2.8191003799438477, 1.117919921875, -0.40185546875, 0.060546875
525, 526105682, -6.844038963317871, -0.8835689425468445, 7.070303440093994, -3.0697338581085205, -0.5410299301147461, -2.585461378097534, 1.119384765625, -0.40234375, 0.064208984375
526, 526122349, -6.874404430389404, -0.8881385326385498, 7.069607734680176, -2.656587600708008, -1.260733962059021, -2.2383580207824707, 1.118896484375, -0.40087890625, 0.06201171875
527, 526139016, -6.868403911590576, -0.9155157804489136, 7.032748699188232, -2.4777212142944336, -2.66719126701355, -2.053972005844116, 1.1171875, -0.4013671875, 0.0634765625
528, 526155683, -6.854057312011719, -0.919768750667572, 7.035501956939697, -2.830190658569336, -4.385790824890137, -2.2743823528289795, 1.119384765625, -0.40185546875, 0.0625
529, 526172350, -6.8465166091918945, -0.7711370587348938, 7.061799049377441, -3.0788776874542236, -6.755427837371826, -3.2040083408355713, 1.118408203125, -0.40087890625, 0.06103515625
530, 526189017, -6.7836103439331055, -0.6824842691421509, 7.038606643676758, -3.8309571743011475, -8.963884353637695, -5.374839782714844, 1.1171875, -0.40087890625, 0.059814453125
531, 526205684, -6.797602653503418, -0.3898486793041229, 7.143300533294678, -7.807333946228027, -8.112048149108887, -9.621444702148438, 1.11767578125, -0.39892578125, 0.056884765625
532, 526222351, -6.7330403327941895, -0.5951668620109558, 7.2364959716796875, -11.979546546936035, -6.19071102142334, -12.948770523071289, 1.1142578125, -0.397216796875, 0.0546875
533, 526239018, -6.641549587249756, -0.8236265778541565, 7.330345153808594, -13.745893478393555, -1.5510302782058716, -13.804431915283203, 1.114501953125, -0.39208984375, 0.05419921875
534, 526255685, -6.737163543701172, -1.1123614311218262, 7.131349563598633, -13.319936752319336, 3.2703676223754883, -12.030657768249512, 1.113525390625, -0.38916015625, 0.058837890625
535, 526272352, -6.800963401794434, -1.3655569553375244, 7.052012920379639, -10.646129608154297, 4.909785270690918, -9.312566757202148, 1.117431640625, -0.383544921875, 0.058349609375
536, 526289019, -6.808351039886475, -1.2907264232635498, 7.0161824226379395, -8.45173454284668, 4.7008867263793945, -7.63363790512085, 1.115478515625, -0.382080078125, 0.060791015625
537, 526305686, -6.794090270996094, -1.3026549816131592, 7.016041278839111, -7.418937683105469, 3.3555657863616943, -7.145074367523193, 1.114990234375, -0.37890625, 0.063232421875
538, 526322353, -6.868144512176514, -1.2364604473114014, 7.000817775726318, -8.023680686950684, 3.4339025020599365, -7.624852657318115, 1.115966796875, -0.376953125, 0.06787109375
539, 526339020, -6.9047532081604, -1.219003438949585, 7.0827178955078125, -8.790681838989258, 4.058354377746582, -7.742903232574463, 1.1171875, -0.371826171875, 0.06982421875
540, 526355687, -6.906109809875488, -1.3725754022598267, 6.985048294067383, -8.681404113769531, 5.007317066192627, -6.929442405700684, 1.1162109375, -0.36669921875, 0.071044921875
541, 526372354, -6.88921594619751, -1.345653772354126, 6.987237453460693, -7.891698837280273, 4.575403690338135, -5.738719940185547, 1.114501953125, -0.364013671875, 0.074462890625
542, 526389021, -6.858989715576172, -1.369727611541748, 6.994009017944336, -6.9319634437561035, 4.759538173675537, -4.734227180480957, 1.114013671875, -0.361572265625, 0.076904296875
543, 526405688, -6.818206310272217, -1.3628205060958862, 7.0873236656188965, -6.677335739135742, 6.745548248291016, -5.183281898498535, 1.11572265625, -0.361572265625, 0.07861328125
544, 526422355, -6.862675189971924, -1.3938623666763306, 7.010421276092529, -6.0765910148620605, 10.090263366699219, -5.449041366577148, 1.1162109375, -0.35986328125, 0.08056640625
545, 526439022, -6.881877899169922, -1.6008318662643433, 6.886331081390381, -3.498222827911377, 11.728323936462402, -3.11299467086792, 1.11669921875, -0.35791015625, 0.085693359375
546, 526455689, -6.9538116455078125, -1.6993502378463745, 6.794862270355225, 0.8392197489738464, 11.46188735961914, 1.8592333793640137, 1.11962890625, -0.36083984375, 0.087890625
547, 526472356, -6.892051696777344, -1.794327735900879, 6.902087211608887, 3.6211068630218506, 12.103194236755371, 6.038768291473389, 1.121826171875, -0.362060546875, 0.089599609375
548, 526489023, -7.12844181060791, -1.3942190408706665, 6.700041770935059, 5.1799492835998535, 12.026652336120605, 9.769659042358398, 1.122314453125, -0.366455078125, 0.09716796875
549, 526505690, -7.31281042098999, -0.1319524049758911, 6.908658981323242, 1.791282057762146, 3.367205858230591, 6.69083833694458, 1.122314453125, -0.3701171875, 0.098876953125
550, 526522357, -7.051896572113037, -1.4896398782730103, 7.399536609649658, -7.67715311050415, 6.2022905349731445, 1.590466022491455, 1.12353515625, -0.369140625, 0.099853515625
551, 526539024, -7.114169120788574, -1.4881007671356201, 7.297565460205078, -15.140600204467773, 13.027606010437012, 1.1913701295852661, 1.12646484375, -0.367431640625, 0.105712890625
552, 526555691, -7.061753273010254, -0.627738356590271, 6.771595478057861, -13.079111099243164, 12.003068923950195, 1.1930533647537231, 1.12744140625, -0.3681640625, 0.1103515625
553, 526572358, -7.063742637634277, -0.4562322795391083, 6.879364967346191, -9.435293197631836, 12.564552307128906, -0.967456579208374, 1.129638671875, -0.3681640625, 0.116943359375
554, 526589025, -7.1716413497924805, -0.6227867603302002, 6.725212574005127, -8.6598482131958, 15.32890510559082, -4.08653450012207, 1.131103515625, -0.36865234375, 0.12158203125
555, 526605692, -7.359264373779297, -0.7799118161201477, 6.216694355010986, -7.627315044403076, 13.096661567687988, -5.860894680023193, 1.131103515625, -0.366943359375, 0.12744140625
556, 526622359, -7.329009056091309, -1.0306122303009033, 6.343564510345459, -4.898059844970703, 8.114791870117188, -5.434683799743652, 1.133544921875, -0.365966796875, 0.12890625
557, 526639026, -7.2390336990356445, -1.5459814071655273, 6.022457122802734, -1.1575274467468262, 3.0673446655273438, -0.9734746217727661, 1.1337890625, -0.366455078125, 0.12841796875
558, 526655693, -7.356288909912109, -1.082937479019165, 6.218334197998047, 3.0990025997161865, -5.098823547363281, 3.8414764404296875, 1.133544921875, -0.365966796875, 0.12841796875
559, 526672360, -7.263433933258057, -0.8798395395278931, 6.329632759094238, 5.405749797821045, -13.271639823913574, 4.475329399108887, 1.1337890625, -0.3701171875, 0.125244140625
560, 526689027, -7.235107421875, -0.9788894057273865, 6.407571315765381, 7.675825595855713, -20.627864837646484, 4.853814125061035, 1.1328125, -0.373046875, 0.119140625
561, 526705694, -7.0399675369262695, -1.4776115417480469, 6.139514923095703, 15.266526222229004, -27.763710021972656, 10.12909984588623, 1.127685546875, -0.37890625, 0.1123046875
562, 526722361, -7.217494964599609, -1.6670253276824951, 7.047904014587402, 18.646709442138672, -30.375524520874023, 13.974007606506348, 1.126220703125, -0.38134765625, 0.103271484375
563, 526739028, -7.0309739112854, -0.913004994392395, 7.6024041175842285, 10.043562889099121, -22.811504364013672, 7.294814586639404, 1.125732421875, -0.388427734375, 0.094482421875
564, 526755695, -6.942387580871582, 0.14273475110530853, 7.664790630340576, -0.15153759717941284, -10.078189849853516, -0.8169557452201843, 1.121826171875, -0.387451171875, 0.0908203125
565, 526772362, -7.015803337097168, -0.023870494216680527, 7.276976108551025, -8.697564125061035, -0.41376054286956787, -9.713838577270508, 1.126220703125, -0.385498046875, 0.0927734375
566, 526789029, -6.942392826080322, -0.8343420624732971, 7.077526092529297, -12.646980285644531, 4.723404884338379, -14.623540878295898, 1.125732421875, -0.3818359375, 0.0927734375
567, 526805696, -7.071290493011475, -1.4363150596618652, 6.78494930267334, -11.129807472229004, 6.52309513092041, -13.051581382751465, 1.125, -0.3779296875, 0.095458984375
568, 526822363, -7.125736236572266, -1.687578797340393, 6.697660446166992, -8.909318923950195, 3.986881732940674, -9.788899421691895, 1.127197265625, -0.374755859375, 0.098388671875
569, 526839030, -7.154597759246826, -1.3260173797607422, 6.756537437438965, -6.928711414337158, 1.3082523345947266, -7.618987083435059, 1.127197265625, -0.375732421875, 0.097412109375
570, 526855697, -7.133054256439209, -1.4913657903671265, 6.800774574279785, -5.624050617218018, -1.1469112634658813, -6.304042339324951, 1.127685546875, -0.375732421875, 0.097412109375
571, 526872364, -7.051277160644531, -1.52064049243927, 6.728602409362793, -4.005019664764404, -3.640897274017334, -3.6578779220581055, 1.130859375, -0.377685546875, 0.096923828125
572, 526889031, -7.003337860107422, -1.1447679996490479, 6.834486484527588, -3.257500648498535, -4.3138322830200195, -2.3410396575927734, 1.129150390625, -0.3798828125, 0.0927734375
573, 526905698, -6.975313186645508, -0.8170067071914673, 7.034369468688965, -4.006569862365723, -2.1390833854675293, -2.8801867961883545, 1.127197265625, -0.3828125, 0.0927734375
574, 526922365, -6.998470306396484, -1.041131615638733, 6.975302696228027, -5.360507488250732, 2.2001760005950928, -4.333362102508545, 1.12939453125, -0.38330078125, 0.08984375
575, 526939032, -6.962940692901611, -1.1094942092895508, 6.848382472991943, -5.613394737243652, 4.505780220031738, -4.240580081939697, 1.13037109375, -0.383544921875, 0.0888671875
576, 526955699, -7.267548084259033, -1.9484889507293701, 6.529721260070801, -2.8444955348968506, 3.639878749847412, -2.524759292602539, 1.1318359375, -0.384033203125, 0.08837890625
577, 526972366, -7.0799760818481445, -0.6828057169914246, 6.736322402954102, -1.7483868598937988, -3.389366865158081, -1.7000941038131714, 1.1318359375, -0.38232421875, 0.093994140625
578, 526989033, -7.122739791870117, -1.2364341020584106, 6.8963212966918945, -4.206298351287842, -3.64139723777771, -5.505591869354248, 1.13134765625, -0.38134765625, 0.0908203125
579, 527005700, -7.031391143798828, -1.2695659399032593, 6.8471198081970215, -5.515772342681885, -0.64713054895401, -5.355654239654541, 1.13037109375, -0.38037109375, 0.093017578125
580, 527022367, -7.118945598602295, -1.4950933456420898, 6.714254856109619, -4.3292765617370605, -0.26210758090019226, -3.700049638748169, 1.130859375, -0.37841796875, 0.093017578125
581, 527039034, -7.150109767913818, -1.17581307888031, 6.737185001373291, -2.136624336242676, -3.126875162124634, -2.3609402179718018, 1.1318359375, -0.378173828125, 0.093994140625
582, 527055701, -7.138532638549805, -0.9143547415733337, 6.810014724731445, -1.5285789966583252, -4.778318405151367, -2.845878839492798, 1.130615234375, -0.376708984375, 0.0927734375
583, 527072368, -7.033352851867676, -0.6658315658569336, 7.013599872589111, -2.4651718139648438, -5.021345615386963, -4.287285327911377, 1.13134765625, -0.377197265625, 0.09033203125
584, 527089035, -6.98396635055542, -1.1766149997711182, 6.921092987060547, -3.453436851501465, -2.519866943359375, -4.369756698608398, 1.130859375, -0.377685546875, 0.091796875
585, 527105702, -6.972963809967041, -1.3933134078979492, 6.767025470733643, -1.0833404064178467, -2.0817489624023438, -1.5523601770401, 1.128662109375, -0.380859375, 0.08935546875
586, 527122369, -7.020317077636719, -1.4293652772903442, 6.7403764724731445, 1.7317450046539307, -3.874445676803589, 1.3634343147277832, 1.13037109375, -0.37939453125, 0.0908203125
587, 527139036, -7.077423095703125, -1.2763934135437012, 6.737051486968994, 3.305671453475952, -6.093056678771973, 2.522947072982788, 1.12939453125, -0.3818359375, 0.0888671875
588, 527155703, -7.059726715087891, -0.9108128547668457, 6.940957069396973, 1.6036818027496338, -6.226794242858887, 0.3513486683368683, 1.128173828125, -0.380859375, 0.086669921875
589, 527172370, -7.031473636627197, -0.9128420352935791, 6.987528324127197, -1.235095500946045, -4.16461181640625, -2.2000155448913574, 1.128662109375, -0.38232421875, 0.087646484375
590, 527189037, -7.0467987060546875, -1.1096543073654175, 6.895350456237793, -3.3554723262786865, -2.196746587753296, -3.6090362071990967, 1.128662109375, -0.38134765625, 0.085693359375
591, 527205704, -6.996331214904785, -1.1604417562484741, 6.874444007873535, -4.065004825592041, -1.4862412214279175, -4.179058074951172, 1.127685546875, -0.383056640625, 0.086669921875
592, 527222371, -6.971410274505615, -1.2318992614746094, 6.883979320526123, -3.816228151321411, -1.0247769355773926, -3.763261318206787, 1.128662109375, -0.384033203125, 0.087158203125
593, 527239038, -6.966533184051514, -1.1843063831329346, 6.876657009124756, -3.754027843475342, -0.16512510180473328, -3.3326735496520996, 1.128173828125, -0.380859375, 0.085205078125
594, 527255705, -7.0275092124938965, -1.146871566772461, 6.8897809982299805, -4.389171600341797, 0.5420991778373718, -3.692570209503174, 1.128173828125, -0.3818359375, 0.084716796875
595, 527272372, -7.052437782287598, -1.095857858657837, 6.848482131958008, -4.68092679977417, 0.39508235454559326, -4.249173164367676, 1.129638671875, -0.377197265625, 0.0888671875
596, 527289039, -7.051429271697998, -1.1409924030303955, 6.852247714996338, -4.4866414070129395, -0.38837823271751404, -4.5909743309021, 1.129150390625, -0.380859375, 0.087890625
597, 527305706, -7.048243999481201, -1.2340142726898193, 6.786409854888916, -3.8976001739501953, -1.063913345336914, -4.040378570556641, 1.129638671875, -0.37841796875, 0.087158203125
598, 527322373, -7.046625137329102, -1.2495160102844238, 6.8113298416137695, -2.900510311126709, -2.1376233100891113, -3.350602388381958, 1.128173828125, -0.377685546875, 0.087158203125
599, 527339040, -7.087700366973877, -1.2021268606185913, 6.81391716003418, -2.249896287918091, -3.358529567718506, -2.89294171333313, 1.130126953125, -0.377685546875, 0.086181640625
600, 527355707, -6.988914966583252, -1.2442985773086548, 6.854998588562012, -2.27445912361145, -4.040429592132568, -2.7957417964935303, 1.129638671875, -0.37841796875, 0.086181640625
601, 527372374, -7.003243923187256, -1.1882480382919312, 6.899015426635742, -2.04473876953125, -3.1590449810028076, -2.3356220722198486, 1.129150390625, -0.377197265625, 0.086181640625
602, 527389041, -7.025972366333008, -1.1602981090545654, 6.88595724105835, -2.294065237045288, -2.6914210319519043, -2.46651554107666, 1.127197265625, -0.377685546875, 0.0830078125
603, 527405708, -7.0099968910217285, -1.1885069608688354, 6.885852813720703, -2.127288579940796, -2.494715690612793, -2.416468858718872, 1.127197265625, -0.37841796875, 0.085205078125
604, 527422375, -7.011641979217529, -1.2041285037994385, 6.884707927703857, -1.817502737045288, -2.49600887298584, -2.074756383895874, 1.128662109375, -0.377685546875, 0.087158203125
605, 527439042, -7.033723831176758, -1.1772119998931885, 6.8865861892700195, -1.5557924509048462, -2.547516345977783, -1.7864348888397217, 1.130126953125, -0.3779296875, 0.083251953125
606, 527455709, -7.033000946044922, -1.1900627613067627, 6.889030933380127, -1.2772284746170044, -2.4589219093322754, -1.4720771312713623, 1.128173828125, -0.37890625, 0.085205078125
607, 527472376, -7.017637729644775, -1.2118773460388184, 6.849603652954102, -0.6674926280975342, -2.7877888679504395, -0.9945029020309448, 1.126220703125, -0.37841796875, 0.084716796875
608, 527489043, -6.983603000640869, -1.2198237180709839, 6.890045642852783, -0.0696665346622467, -3.403453826904297, -0.16425423324108124, 1.127685546875, -0.37890625, 0.083984375
609, 527505710, -7.006112575531006, -1.1402959823608398, 6.929030418395996, 0.2916582226753235, -3.330521821975708, 0.41403570771217346, 1.127197265625, -0.3798828125, 0.084716796875
610, 527522377, -7.008549213409424, -1.183985710144043, 6.890852928161621, 0.5256686806678772, -3.6859495639801025, 0.36497461795806885, 1.127685546875, -0.38232421875, 0.08056640625
611, 527539044, -6.994356155395508, -1.1788668632507324, 6.892635822296143, 0.9304004907608032, -3.948120355606079, 0.5786869525909424, 1.128662109375, -0.380859375, 0.08251953125
612, 527555711, -7.004876613616943, -1.1360927820205688, 6.900202751159668, 1.0958713293075562, -3.9554715156555176, 0.5166529417037964, 1.127197265625, -0.384521484375, 0.08203125
613, 527572378, -7.021945953369141, -1.1142215728759766, 6.882627964019775, 1.2664390802383423, -4.084623336791992, 0.7221179604530334, 1.128173828125, -0.385009765625, 0.08203125
614, 527589045, -7.0032572746276855, -1.1205689907073975, 6.9103875160217285, 1.719642996788025, -4.534459590911865, 1.0960123538970947, 1.125244140625, -0.386962890625, 0.08056640625
615, 527605712, -6.9858832359313965, -1.0701239109039307, 6.947093486785889, 1.604910969734192, -4.546433448791504, 0.9033663868904114, 1.125244140625, -0.385498046875, 0.08056640625
616, 527622379, -6.9770026206970215, -1.033212661743164, 6.951895713806152, 0.8223147988319397, -4.084303379058838, 0.15597493946552277, 1.127197265625, -0.387939453125, 0.077880859375
617, 527639046, -6.9390740394592285, -1.0571417808532715, 6.966739177703857, 0.2457730770111084, -3.6396162509918213, -0.3213241398334503, 1.12744140625, -0.39013671875, 0.0791015625
618, 527655713, -6.924962520599365, -1.1245125532150269, 6.9387640953063965, -0.2275816649198532, -3.2457566261291504, -0.6023339033126831, 1.126708984375, -0.390625, 0.075927734375
619, 527672380, -6.9545159339904785, -1.0685909986495972, 6.913013935089111, -0.49424824118614197, -3.141819715499878, -0.7461875677108765, 1.1279296875, -0.3916015625, 0.076904296875
620, 527689047, -6.949954032897949, -1.028432011604309, 6.9272966384887695, -0.8031246066093445, -3.1904971599578857, -1.1217849254608154, 1.125732421875, -0.39111328125, 0.075927734375
621, 527705714, -6.951176166534424, -1.0547337532043457, 6.926166534423828, -1.0093965530395508, -3.4176692962646484, -1.2491058111190796, 1.1259765625, -0.393310546875, 0.074951171875
622, 527722381, -6.950263977050781, -1.0445832014083862, 6.943643569946289, -0.9145656228065491, -3.6151819229125977, -1.2431893348693848, 1.124755859375, -0.39306640625, 0.075439453125
623, 527739048, -6.951562404632568, -0.9877975583076477, 6.97653865814209, -0.7560229301452637, -3.541788339614868, -1.094405174255371, 1.125732421875, -0.39208984375, 0.073974609375
624, 527755715, -6.927308559417725, -1.0286227464675903, 6.987220764160156, -0.4889720678329468, -3.4841341972351074, -0.7470583915710449, 1.1259765625, -0.393798828125, 0.06982421875
625, 527772382, -6.939417839050293, -0.9872662425041199, 6.974498748779297, -0.39214324951171875, -2.939236640930176, -0.530746340751648, 1.125732421875, -0.394287109375, 0.07177734375
626, 527789049, -6.95397424697876, -0.9908227920532227, 6.982385158538818, -0.5222756266593933, -2.698315382003784, -0.4534328281879425, 1.123779296875, -0.393798828125, 0.07080078125
627, 527805716, -6.936782360076904, -0.9959697723388672, 6.976349830627441, -0.6475403308868408, -2.7994425296783447, -0.5338967442512512, 1.125244140625, -0.39306640625, 0.07177734375
628, 527822383, -6.919271945953369, -0.9819028973579407, 6.989657402038574, -0.5729689598083496, -2.7660436630249023, -0.46292397379875183, 1.122314453125, -0.394775390625, 0.07177734375
629, 527839050, -6.926085948944092, -0.9433969259262085, 6.972860813140869, -0.7522833943367004, -2.615107536315918, -0.5721876621246338, 1.124267578125, -0.396240234375, 0.06982421875
630, 527855717, -6.923138618469238, -0.9949807524681091, 6.982558727264404, -0.9589908123016357, -2.741647481918335, -0.7509515881538391, 1.12451171875, -0.398193359375, 0.07177734375
631, 527872384, -6.941329479217529, -0.9744516015052795, 6.951692581176758, -1.0287597179412842, -2.9165947437286377, -0.9163839817047119, 1.126953125, -0.396240234375, 0.06982421875
632, 527889051, -6.928663730621338, -1.0074299573898315, 6.975203037261963, -1.2237876653671265, -3.213792085647583, -0.98736971616745, 1.125, -0.39892578125, 0.0712890625
633, 527905718, -6.9168782234191895, -0.9605018496513367, 6.980037689208984, -1.2207653522491455, -3.4031982421875, -0.9469271898269653, 1.122802734375, -0.397705078125, 0.0693359375
634, 527922385, -6.894419193267822, -0.9851580858230591, 7.023865699768066, -0.9172804355621338, -3.2879154682159424, -0.7776400446891785, 1.122802734375, -0.39892578125, 0.07080078125
635, 527939052, -6.906244277954102, -0.9290721416473389, 7.017318248748779, -0.9533175826072693, -2.79067063331604, -0.8745201826095581, 1.123291015625, -0.400390625, 0.06884765625
636, 527955719, -6.916515827178955, -0.9025442004203796, 7.004452228546143, -1.5302306413650513, -2.4060568809509277, -1.3588048219680786, 1.12451171875, -0.39892578125, 0.0693359375
637, 527972386, -6.913457870483398, -0.8933998942375183, 7.007535934448242, -1.895890474319458, -2.202871322631836, -1.8105745315551758, 1.1240234375, -0.39892578125, 0.06884765625
638, 527989053, -6.922719478607178, -0.9534162282943726, 7.002213001251221, -2.1614561080932617, -1.9242054224014282, -2.192972183227539, 1.125, -0.39892578125, 0.067138671875
639, 528005720, -6.924147605895996, -0.8967438340187073, 6.994335174560547, -2.5775980949401855, -1.9811679124832153, -2.711219549179077, 1.122802734375, -0.39990234375, 0.068359375
640, 528022387, -6.919636249542236, -0.9365856647491455, 7.008655548095703, -3.1535253524780273, -1.8442680835723877, -3.369171142578125, 1.123291015625, -0.397216796875, 0.068359375
641, 528039054, -6.909740924835205, -0.9674724340438843, 6.9834723472595215, -3.3330836296081543, -1.6255614757537842, -3.7779250144958496, 1.122802734375, -0.39892578125, 0.065673828125
642, 528055721, -6.916605472564697, -0.9639630317687988, 7.027767658233643, -3.2386879920959473, -1.6140614748001099, -3.5947303771972656, 1.12451171875, -0.39892578125, 0.0673828125
643, 528072388, -6.909611225128174, -0.9951515197753906, 7.022572994232178, -2.9003312587738037, -1.7882659435272217, -3.1345086097717285, 1.125, -0.400390625, 0.066650390625
644, 528089055, -6.9234843254089355, -0.9880948066711426, 6.991194725036621, -2.6299116611480713, -1.7384874820709229, -2.76322603225708, 1.125, -0.3984375, 0.067138671875
645, 528105722, -6.911462783813477, -0.969279408454895, 7.036128520965576, -2.2835001945495605, -2.0006721019744873, -2.3452272415161133, 1.123291015625, -0.39892578125, 0.06787109375
646, 528122389, -6.915647506713867, -0.963283896446228, 7.010113716125488, -1.988147497177124, -2.1550400257110596, -2.199977159500122, 1.123779296875, -0.3984375, 0.067626953125
647, 528139056, -6.914112567901611, -0.9606271982192993, 7.029891014099121, -2.1094367504119873, -2.275214672088623, -2.207123041152954, 1.120849609375, -0.397705078125, 0.067138671875
648, 528155723, -6.894461631774902, -0.9436355233192444, 7.020356178283691, -2.1096925735473633, -1.9629188776016235, -2.2261791229248047, 1.12451171875, -0.398193359375, 0.065673828125
649, 528172390, -6.915863513946533, -0.958554208278656, 7.006921291351318, -2.2206978797912598, -1.9099518060684204, -2.2472457885742188, 1.123779296875, -0.398193359375, 0.065673828125
650, 528189057, -6.9152092933654785, -0.9542673230171204, 7.038023948669434, -1.959499716758728, -2.001338243484497, -2.1786677837371826, 1.121337890625, -0.39794921875, 0.067138671875
651, 528205724, -6.903880596160889, -0.996913492679596, 7.0035014152526855, -1.755955457687378, -2.1744542121887207, -2.077369213104248, 1.121826171875, -0.397216796875, 0.066650390625
652, 528222391, -6.900908946990967, -0.9655654430389404, 7.023791790008545, -1.716217279434204, -2.1086039543151855, -1.9194283485412598, 1.124267578125, -0.398193359375, 0.068359375
653, 528239058, -6.894964218139648, -0.9545177817344666, 7.0131611824035645, -1.9056488275527954, -1.971268653869629, -2.0083556175231934, 1.123779296875, -0.39892578125, 0.067626953125
654, 528255725, -6.891082763671875, -0.9539856314659119, 7.015897274017334, -1.8937901258468628, -1.9837673902511597, -1.8904988765716553, 1.124755859375, -0.396728515625, 0.066162109375
655, 528272392, -6.898797035217285, -0.9784037470817566, 7.006642818450928, -1.7549693584442139, -2.1091160774230957, -1.7225821018218994, 1.124755859375, -0.397705078125, 0.064697265625
656, 528289059, -6.907968044281006, -0.9761096835136414, 6.9849019050598145, -1.6520317792892456, -2.373413324356079, -1.679142951965332, 1.123779296875, -0.39892578125, 0.0625
