sep=,
DeviceTag:,B,,,,,,,,,,,,,,,,,
FirmwareVersion:,2.2.1,,,,,,,,,,,,,,,,,
AppVersion:,2023.6.1,,,,,,,,,,,,,,,,,
SyncStatus:,Synced,,,,,,,,,,,,,,,,,
OutputRate:,60Hz,,,,,,,,,,,,,,,,,
FilterProfile:,General,,,,,,,,,,,,,,,,,
Measurement Mode:,Inertial Mode - Rate quantities (with mag),,,,,,,,,,,,,,,,,
StartTime:,2023-12-07 12:34:38.692 +0200,,,,,,,,,,,,,,,,,
 2023,,,,,,,,,,,,,,,,,,,

PacketCounter,SampleTimeFine,Acc_X,Acc_Y,Acc_Z,Gyr_X,Gyr_Y,Gyr_Z,Mag_X,Mag_Y,Mag_Z
1, 517388841, -6.293422222137451, 1.8201980590820312, 7.1083784103393555, -0.19208243489265442, -0.7666008472442627, -1.3605464696884155, 0.6044921875, 0.1708984375, -0.700439453125
2, 517405508, -6.2963056564331055, 1.8372668027877808, 7.111302375793457, -0.1945028454065323, -0.800473690032959, -1.3703691959381104, 0.60400390625, 0.17236328125, -0.6982421875
3, 517422175, -6.295269966125488, 1.8287615776062012, 7.089750289916992, -0.1673789918422699, -0.7465717792510986, -1.387196660041809, 0.603515625, 0.1708984375, -0.703369140625
4, 517438842, -6.291614055633545, 1.8294661045074463, 7.109357833862305, -0.14745229482650757, -0.6053945422172546, -1.3594834804534912, 0.60546875, 0.17138671875, -0.700439453125
5, 517455509, -6.304285526275635, 1.8199375867843628, 7.118893623352051, -0.23120582103729248, -0.6618705987930298, -1.4427121877670288, 0.603515625, 0.1708984375, -0.701904296875
6, 517472176, -6.304443359375, 1.8254737854003906, 7.075089454650879, -0.19497667253017426, -0.8215529918670654, -1.422145128250122, 0.60546875, 0.17138671875, -0.699951171875
7, 517488843, -6.299343585968018, 1.8221088647842407, 7.098721027374268, -0.20136703550815582, -0.6957305669784546, -1.3730710744857788, 0.60498046875, 0.1708984375, -0.701416015625
8, 517505510, -6.293427467346191, 1.8235359191894531, 7.0933098793029785, -0.1689157336950302, -0.7261199355125427, -1.3406453132629395, 0.603515625, 0.1708984375, -0.697265625
9, 517522177, -6.288297176361084, 1.818938970565796, 7.095790386199951, -0.1283068060874939, -0.8265601992607117, -1.2652928829193115, 0.60498046875, 0.17138671875, -0.699951171875
10, 517538844, -6.305895805358887, 1.827216386795044, 7.082642078399658, -0.05153274908661842, -0.8069536089897156, -1.2843616008758545, 0.60595703125, 0.1708984375, -0.69921875
11, 517555511, -6.311245918273926, 1.8281481266021729, 7.096003532409668, -0.0950615257024765, -0.8101552724838257, -1.2730791568756104, 0.60400390625, 0.1708984375, -0.701416015625
12, 517572178, -6.2968010902404785, 1.83663010597229, 7.098016262054443, -0.027034206315875053, -0.8293776512145996, -1.3494690656661987, 0.60498046875, 0.17138671875, -0.699951171875
13, 517588845, -6.296224117279053, 1.833963394165039, 7.093499660491943, -0.1445196568965912, -0.7656531929969788, -1.266291856765747, 0.60546875, 0.1708984375, -0.699951171875
14, 517605512, -6.298940658569336, 1.8258274793624878, 7.096058368682861, -0.15723636746406555, -0.8029197454452515, -1.370740532875061, 0.60205078125, 0.1708984375, -0.6982421875
15, 517622179, -6.303033351898193, 1.8300483226776123, 7.103271007537842, -0.12075106054544449, -0.87589031457901, -1.1871103048324585, 0.603515625, 0.17041015625, -0.701416015625
16, 517638846, -6.30143928527832, 1.8098546266555786, 7.113014221191406, -0.02921128459274769, -0.8559637069702148, -1.1497541666030884, 0.601318359375, 0.17236328125, -0.699951171875
17, 517655513, -6.305393218994141, 1.8313226699829102, 7.097779750823975, 0.0941971093416214, -0.6590147018432617, -1.0909090042114258, 0.60546875, 0.17138671875, -0.700927734375
18, 517672180, -6.30167293548584, 1.8501315116882324, 7.122399806976318, 0.039590831845998764, -0.8102193474769592, -1.0902429819107056, 0.6044921875, 0.17138671875, -0.701416015625
19, 517688847, -6.287892818450928, 1.848469853401184, 7.092584133148193, 0.21881569921970367, -0.6550832390785217, -1.1782225370407104, 0.603515625, 0.1708984375, -0.699951171875
20, 517705514, -6.284493923187256, 1.839991807937622, 7.110110282897949, 0.3997950553894043, -0.5610589981079102, -1.1114503145217896, 0.60595703125, 0.171875, -0.69775390625
21, 517722181, -6.301089763641357, 1.8238675594329834, 7.103392601013184, 0.29387372732162476, -0.38982531428337097, -1.226041555404663, 0.603515625, 0.17236328125, -0.701904296875
22, 517738848, -6.298659801483154, 1.8674272298812866, 7.110260009765625, 0.37187719345092773, -0.5321678519248962, -1.1484606266021729, 0.603271484375, 0.173095703125, -0.701416015625
23, 517755515, -6.3055853843688965, 1.8530024290084839, 7.102325439453125, 0.661371111869812, -0.36449432373046875, -1.1983669996261597, 0.60302734375, 0.17138671875, -0.699951171875
24, 517772182, -6.305202484130859, 1.8090040683746338, 7.118514060974121, 0.926296055316925, -0.17082388699054718, -1.1627908945083618, 0.60498046875, 0.16796875, -0.699951171875
25, 517788849, -6.300234794616699, 1.8553786277770996, 7.109334468841553, 0.822174072265625, -0.5096415281295776, -0.9285244345664978, 0.603515625, 0.17138671875, -0.69873046875
26, 517805516, -6.295365810394287, 1.838728427886963, 7.100532054901123, 0.39302048087120056, -0.5671676397323608, -1.1208757162094116, 0.6044921875, 0.1689453125, -0.699951171875
27, 517822183, -6.309217929840088, 1.8534420728683472, 7.090887546539307, 0.38584890961647034, -0.44413700699806213, -1.0938159227371216, 0.603515625, 0.1689453125, -0.697265625
28, 517838850, -6.294745445251465, 1.858776569366455, 7.085931777954102, 0.37463051080703735, -0.47914958000183105, -0.9543547034263611, 0.60400390625, 0.169921875, -0.6953125
29, 517855517, -6.307205677032471, 1.85175621509552, 7.083387851715088, 0.2829883098602295, -0.6168050169944763, -1.0268900394439697, 0.6044921875, 0.17138671875, -0.699462890625
30, 517872184, -6.297822952270508, 1.8624238967895508, 7.10167932510376, 0.09492706507444382, -0.7838638424873352, -1.1327087879180908, 0.603515625, 0.16845703125, -0.700439453125
31, 517888851, -6.298827171325684, 1.8617883920669556, 7.110889434814453, -0.16865962743759155, -0.8888758420944214, -1.2810190916061401, 0.60546875, 0.1689453125, -0.69970703125
32, 517905518, -6.303585529327393, 1.8375630378723145, 7.110849857330322, -0.1710672229528427, -0.8535304069519043, -1.2692502737045288, 0.603515625, 0.16796875, -0.701904296875
33, 517922185, -6.312438011169434, 1.8381315469741821, 7.087514400482178, -0.16867244243621826, -0.9273974299430847, -1.306311845779419, 0.60205078125, 0.16845703125, -0.699951171875
34, 517938852, -6.304469585418701, 1.8395270109176636, 7.0986857414245605, -0.23280665278434753, -0.667262077331543, -1.3098206520080566, 0.60498046875, 0.16796875, -0.69677734375
35, 517955519, -6.307319164276123, 1.8521183729171753, 7.079890251159668, -0.14797736704349518, -0.6482574343681335, -1.2532421350479126, 0.607421875, 0.16845703125, -0.700927734375
36, 517972186, -6.304515838623047, 1.863581895828247, 7.090286731719971, -0.06700281798839569, -0.670194685459137, -1.4012194871902466, 0.60498046875, 0.1689453125, -0.699951171875
37, 517988853, -6.30263614654541, 1.8607157468795776, 7.086283206939697, -0.09237220138311386, -0.7034271359443665, -1.474433422088623, 0.60400390625, 0.16943359375, -0.699462890625
38, 518005520, -6.311152935028076, 1.8381061553955078, 7.069061756134033, -0.09612447023391724, -0.8326817750930786, -1.479171872138977, 0.60400390625, 0.17138671875, -0.699462890625
39, 518022187, -6.305676460266113, 1.8514405488967896, 7.101879596710205, -0.11957287788391113, -0.7142614126205444, -1.348854422569275, 0.6044921875, 0.1689453125, -0.69873046875
40, 518038854, -6.310504913330078, 1.8362696170806885, 7.098881721496582, 0.023659732192754745, -0.6364243626594543, -1.242215871810913, 0.60498046875, 0.1689453125, -0.699951171875
41, 518055521, -6.312107563018799, 1.8556479215621948, 7.076019287109375, 0.010917413979768753, -0.6128222942352295, -1.2338277101516724, 0.60498046875, 0.1708984375, -0.69873046875
42, 518072188, -6.297014236450195, 1.8641209602355957, 7.105200290679932, 0.11628805100917816, -0.6671980023384094, -1.1638537645339966, 0.60546875, 0.16943359375, -0.699462890625
43, 518088855, -6.313514709472656, 1.8653404712677002, 7.107178211212158, -0.034897301346063614, -0.6115415692329407, -1.308424711227417, 0.6044921875, 0.1689453125, -0.69921875
44, 518105522, -6.310732841491699, 1.869112491607666, 7.071537494659424, -0.10658726096153259, -0.7298082709312439, -1.3173637390136719, 0.60400390625, 0.17041015625, -0.700927734375
45, 518122189, -6.298635482788086, 1.8624728918075562, 7.089360237121582, -0.1849236935377121, -0.7637707591056824, -1.2921608686447144, 0.6044921875, 0.16943359375, -0.69775390625
46, 518138856, -6.301891803741455, 1.8542330265045166, 7.082859992980957, -0.20599015057086945, -0.8331555724143982, -1.4184314012527466, 0.6064453125, 0.16845703125, -0.69677734375
47, 518155523, -6.306494235992432, 1.8473881483078003, 7.072135925292969, -0.24273155629634857, -0.7801628112792969, -1.3925496339797974, 0.60400390625, 0.16943359375, -0.6982421875
48, 518172190, -6.299787998199463, 1.8592939376831055, 7.094766139984131, -0.3216186761856079, -0.8988393545150757, -1.3105889558792114, 0.6044921875, 0.1689453125, -0.69921875
49, 518188857, -6.308679103851318, 1.8687918186187744, 7.078399658203125, -0.3182378113269806, -0.8380603790283203, -1.3858649730682373, 0.60498046875, 0.17041015625, -0.69580078125
50, 518205524, -6.307251930236816, 1.8470536470413208, 7.102673053741455, -0.3360770344734192, -0.8941137790679932, -1.3592787981033325, 0.60302734375, 0.1689453125, -0.697265625
51, 518222191, -6.315165042877197, 1.8452017307281494, 7.082668781280518, -0.3813346326351166, -0.9197904467582703, -1.3458704948425293, 0.60498046875, 0.169921875, -0.6982421875
52, 518238858, -6.311055660247803, 1.8529467582702637, 7.080903053283691, -0.38889044523239136, -0.9794297218322754, -1.28866446018219, 0.60498046875, 0.16943359375, -0.699462890625
53, 518255525, -6.302902698516846, 1.8604156970977783, 7.088339328765869, -0.31166815757751465, -0.9181639552116394, -1.3667447566986084, 0.60546875, 0.17236328125, -0.69775390625
54, 518272192, -6.313190937042236, 1.8523060083389282, 7.097925186157227, -0.20170001685619354, -0.8944979906082153, -1.3492515087127686, 0.6044921875, 0.17041015625, -0.699951171875
55, 518288859, -6.297420024871826, 1.8600943088531494, 7.057982444763184, -0.20040656626224518, -0.9461074471473694, -1.2677901983261108, 0.60302734375, 0.16943359375, -0.697265625
56, 518305526, -6.314859390258789, 1.8728529214859009, 7.119956970214844, -0.21804092824459076, -0.9002480506896973, -1.3369061946868896, 0.6025390625, 0.169921875, -0.699462890625
57, 518322193, -6.299906253814697, 1.8633301258087158, 7.08115291595459, -0.2705725431442261, -0.8620210289955139, -1.2759222984313965, 0.60595703125, 0.16943359375, -0.69775390625
58, 518338860, -6.303475856781006, 1.860451102256775, 7.09498929977417, -0.2372632473707199, -0.8332322835922241, -1.3506728410720825, 0.60546875, 0.171875, -0.69873046875
59, 518355527, -6.29669713973999, 1.8372597694396973, 7.077250003814697, -0.28861674666404724, -0.796887993812561, -1.4603337049484253, 0.60400390625, 0.169921875, -0.69775390625
60, 518372194, -6.31620979309082, 1.8489114046096802, 7.0952372550964355, -0.3434407114982605, -0.8186203837394714, -1.422029972076416, 0.6044921875, 0.169921875, -0.700439453125
61, 518388861, -6.296825408935547, 1.8439629077911377, 7.084720134735107, -0.29422590136528015, -0.8056987524032593, -1.4235923290252686, 0.6064453125, 0.169921875, -0.69775390625
62, 518405528, -6.313620567321777, 1.841515064239502, 7.092020034790039, -0.2452159821987152, -0.7843760848045349, -1.4242711067199707, 0.6064453125, 0.169921875, -0.697265625
63, 518422195, -6.290275573730469, 1.8441756963729858, 7.084205150604248, -0.290819376707077, -0.8091563582420349, -1.364759922027588, 0.60595703125, 0.17041015625, -0.6982421875
64, 518438862, -6.297507286071777, 1.8542509078979492, 7.1100029945373535, -0.3902478516101837, -0.8924487233161926, -1.317991018295288, 0.60400390625, 0.17041015625, -0.69921875
65, 518455529, -6.29709005355835, 1.8513740301132202, 7.0871453285217285, -0.27432483434677124, -0.9654834270477295, -1.3295422792434692, 0.60498046875, 0.17041015625, -0.701416015625
66, 518472196, -6.2937517166137695, 1.8562932014465332, 7.084633827209473, -0.349139541387558, -0.9639084339141846, -1.3500967025756836, 0.603515625, 0.169921875, -0.699462890625
67, 518488863, -6.30368185043335, 1.8449013233184814, 7.100547790527344, -0.3333492577075958, -0.8881075382232666, -1.3495458364486694, 0.603271484375, 0.1728515625, -0.699951171875
68, 518505530, -6.30422830581665, 1.8453826904296875, 7.1050801277160645, -0.3353599011898041, -0.9001584053039551, -1.3847507238388062, 0.603515625, 0.17041015625, -0.69921875
69, 518522197, -6.307391166687012, 1.8683303594589233, 7.1022515296936035, -0.3181481659412384, -0.8187099695205688, -1.3938943147659302, 0.603515625, 0.16943359375, -0.700439453125
70, 518538864, -6.299598217010498, 1.854905128479004, 7.104848384857178, -0.3250123858451843, -0.7851829528808594, -1.4942834377288818, 0.60400390625, 0.1689453125, -0.6982421875
71, 518555531, -6.305028915405273, 1.8389949798583984, 7.100661277770996, -0.3066096305847168, -0.6763160824775696, -1.4626259803771973, 0.603515625, 0.169921875, -0.701416015625
72, 518572198, -6.287430286407471, 1.8576745986938477, 7.090866565704346, -0.28605544567108154, -0.703337550163269, -1.4603079557418823, 0.60595703125, 0.1689453125, -0.699951171875
73, 518588865, -6.305689334869385, 1.846714735031128, 7.088212013244629, -0.40543627738952637, -0.5770029425621033, -1.5783443450927734, 0.603515625, 0.1728515625, -0.69873046875
74, 518605532, -6.298043727874756, 1.8541443347930908, 7.078794002532959, -0.42062458395957947, -0.7165536880493164, -1.532087802886963, 0.60400390625, 0.1708984375, -0.69873046875
75, 518622199, -6.2944135665893555, 1.838942050933838, 7.083593368530273, -0.41701313853263855, -0.7907919883728027, -1.5953766107559204, 0.6044921875, 0.1708984375, -0.700439453125
76, 518638866, -6.29625129699707, 1.8334083557128906, 7.091805934906006, -0.3716018795967102, -0.7614911794662476, -1.6122939586639404, 0.60595703125, 0.17138671875, -0.6982421875
77, 518655533, -6.306339263916016, 1.844136118888855, 7.100346088409424, -0.293688029050827, -0.6391649842262268, -1.5428194999694824, 0.60400390625, 0.169921875, -0.69921875
78, 518672200, -6.321018218994141, 1.832058072090149, 7.078477382659912, -0.3762889802455902, -0.7676510810852051, -1.3713678121566772, 0.60498046875, 0.17041015625, -0.699951171875
79, 518688867, -6.310036659240723, 1.8385964632034302, 7.1097259521484375, -0.2801773250102997, -0.7261711955070496, -1.3623523712158203, 0.60546875, 0.16943359375, -0.699462890625
80, 518705534, -6.306301116943359, 1.8414193391799927, 7.08814001083374, -0.2682673931121826, -0.7598775625228882, -1.36844801902771, 0.603515625, 0.17138671875, -0.69873046875
81, 518722201, -6.2925028800964355, 1.861133098602295, 7.100534915924072, -0.35033053159713745, -0.7517584562301636, -1.4280489683151245, 0.6044921875, 0.17138671875, -0.69921875
82, 518738868, -6.296820640563965, 1.8615440130233765, 7.094874858856201, -0.3201971650123596, -0.8326177000999451, -1.4432116746902466, 0.60546875, 0.1689453125, -0.6982421875
83, 518755535, -6.304807186126709, 1.8483854532241821, 7.096574783325195, -0.23995257914066315, -0.8436311483383179, -1.4994698762893677, 0.6044921875, 0.17236328125, -0.69775390625
84, 518772202, -6.295618057250977, 1.8359591960906982, 7.087791919708252, -0.31316646933555603, -0.8200545310974121, -1.4857797622680664, 0.60205078125, 0.171875, -0.69775390625
85, 518788869, -6.298884868621826, 1.8349155187606812, 7.0927534103393555, -0.2259168028831482, -0.7332147359848022, -1.4813872575759888, 0.6044921875, 0.17041015625, -0.699951171875
86, 518805536, -6.306588172912598, 1.8433258533477783, 7.086230754852295, -0.2977476716041565, -0.7206389904022217, -1.5233155488967896, 0.6044921875, 0.171875, -0.6982421875
87, 518822203, -6.312290668487549, 1.8308912515640259, 7.083354949951172, -0.3130576014518738, -0.6710847020149231, -1.5041121244430542, 0.60400390625, 0.17138671875, -0.698974609375
88, 518838870, -6.301759243011475, 1.8336241245269775, 7.087944030761719, -0.3418143093585968, -0.7173221707344055, -1.520702838897705, 0.60546875, 0.171875, -0.69921875
89, 518855537, -6.30295991897583, 1.8301341533660889, 7.113584518432617, -0.2660262882709503, -0.6832571029663086, -1.5387084484100342, 0.60546875, 0.17041015625, -0.699951171875
90, 518872204, -6.3129658699035645, 1.8271666765213013, 7.0884575843811035, -0.23836460709571838, -0.7210871577262878, -1.5106114149093628, 0.6064453125, 0.1708984375, -0.69921875
91, 518888871, -6.304488182067871, 1.830000877380371, 7.085564136505127, -0.31164249777793884, -0.6649953126907349, -1.4610764980316162, 0.60595703125, 0.169921875, -0.69873046875
92, 518905538, -6.30118465423584, 1.8337544202804565, 7.092515468597412, -0.1908401995897293, -0.6803885102272034, -1.5024152994155884, 0.603515625, 0.171875, -0.699462890625
93, 518922205, -6.315915584564209, 1.818777084350586, 7.091225624084473, -0.14247065782546997, -0.6174710392951965, -1.416318416595459, 0.60498046875, 0.1708984375, -0.699951171875
94, 518938872, -6.315048694610596, 1.8284133672714233, 7.105247497558594, -0.2177719920873642, -0.5576141476631165, -1.4003232717514038, 0.60546875, 0.16943359375, -0.697265625
95, 518955539, -6.31831693649292, 1.8282339572906494, 7.1005401611328125, -0.18770265579223633, -0.6756501793861389, -1.4418668746948242, 0.6044921875, 0.172607421875, -0.6982421875
96, 518972206, -6.30980920791626, 1.8446112871170044, 7.1064372062683105, -0.179314523935318, -0.6227343678474426, -1.4677356481552124, 0.6044921875, 0.17138671875, -0.701416015625
97, 518988873, -6.320074081420898, 1.8260263204574585, 7.094851493835449, -0.22044846415519714, -0.7054249048233032, -1.4093514680862427, 0.60498046875, 0.17236328125, -0.69873046875
98, 519005540, -6.308289051055908, 1.828890085220337, 7.096830368041992, -0.2466246634721756, -0.7437416315078735, -1.4619344472885132, 0.60205078125, 0.1708984375, -0.699462890625
99, 519022207, -6.318745136260986, 1.8331046104431152, 7.093376159667969, -0.2620179057121277, -0.7716977596282959, -1.3117287158966064, 0.603515625, 0.17138671875, -0.6982421875
100, 519038874, -6.30734395980835, 1.8098769187927246, 7.084874629974365, -0.14069055020809174, -0.7920087575912476, -1.4068927764892578, 0.60595703125, 0.171875, -0.699462890625
101, 519055541, -6.3146820068359375, 1.8196381330490112, 7.0907697677612305, -0.12241590768098831, -0.8089514970779419, -1.2705692052841187, 0.60498046875, 0.1708984375, -0.700439453125
102, 519072208, -6.313259601593018, 1.8263028860092163, 7.096225261688232, -0.14186877012252808, -0.6901086568832397, -1.2033231258392334, 0.60595703125, 0.17138671875, -0.69921875
103, 519088875, -6.318507671356201, 1.8442462682724, 7.076125621795654, -8.964445441961288E-4, -0.8191453814506531, -1.2537801265716553, 0.6044921875, 0.171875, -0.699951171875
104, 519105542, -6.315659523010254, 1.8396910429000854, 7.080272197723389, -0.1467863768339157, -0.771877110004425, -1.312433123588562, 0.603515625, 0.171875, -0.697265625
105, 519122209, -6.307727813720703, 1.8405314683914185, 7.0802903175354, -0.2144039273262024, -0.8273158669471741, -1.3018038272857666, 0.60498046875, 0.17138671875, -0.69775390625
106, 519138876, -6.311864376068115, 1.8301124572753906, 7.098316669464111, -0.12356846034526825, -0.7364419102668762, -1.3802298307418823, 0.60595703125, 0.171875, -0.697265625
107, 519155543, -6.304107189178467, 1.8214243650436401, 7.109745502471924, 0.0016840350581333041, -0.6882389187812805, -1.3039169311523438, 0.6064453125, 0.1708984375, -0.6982421875
108, 519172210, -6.312944412231445, 1.8294731378555298, 7.097954273223877, 0.15877312421798706, -0.5030590891838074, -1.122182011604309, 0.603515625, 0.1708984375, -0.699462890625
109, 519188877, -6.308980464935303, 1.8445398807525635, 7.094958305358887, 0.32846370339393616, -0.3886471390724182, -1.0178872346878052, 0.60693359375, 0.17138671875, -0.699462890625
110, 519205544, -6.308798313140869, 1.8288167715072632, 7.065685749053955, 0.674401581287384, -0.13440263271331787, -0.6481165289878845, 0.60302734375, 0.171875, -0.69677734375
111, 519222211, -6.309491157531738, 1.8490246534347534, 7.088498115539551, 0.5052809119224548, -0.258957177400589, -0.8861225247383118, 0.6025390625, 0.1708984375, -0.69677734375
112, 519238878, -6.30495023727417, 1.8618247509002686, 7.085976600646973, 0.36128634214401245, -0.37417587637901306, -0.9905071258544922, 0.6044921875, 0.17041015625, -0.6982421875
113, 519255545, -6.313902378082275, 1.8520922660827637, 7.092080116271973, 0.09928122162818909, -0.5355103611946106, -1.1584111452102661, 0.60595703125, 0.172607421875, -0.698974609375
114, 519272212, -6.315550804138184, 1.8401458263397217, 7.072447299957275, -0.0144071439281106, -0.6913507580757141, -1.1769036054611206, 0.60498046875, 0.1689453125, -0.69775390625
115, 519288879, -6.31622838973999, 1.8386257886886597, 7.0833024978637695, -0.07550624758005142, -0.7221500873565674, -1.2917636632919312, 0.60400390625, 0.16845703125, -0.69921875
116, 519305546, -6.32864236831665, 1.8478080034255981, 7.077720642089844, -0.16275590658187866, -0.8466918468475342, -1.3615200519561768, 0.60595703125, 0.1689453125, -0.69580078125
117, 519322213, -6.319161891937256, 1.850645899772644, 7.079405307769775, -0.18218311667442322, -0.900619387626648, -1.3593555688858032, 0.6044921875, 0.171875, -0.69677734375
118, 519338880, -6.321439743041992, 1.8452692031860352, 7.092720985412598, -0.2110358476638794, -0.8929228186607361, -1.322050929069519, 0.6064453125, 0.1689453125, -0.6962890625
119, 519355547, -6.310873508453369, 1.8645503520965576, 7.103985786437988, -0.25095322728157043, -0.8926153182983398, -1.3997083902359009, 0.60595703125, 0.16796875, -0.69873046875
120, 519372214, -6.316853046417236, 1.8571194410324097, 7.092490196228027, -0.32379579544067383, -0.7139412760734558, -1.4854342937469482, 0.60595703125, 0.1689453125, -0.69775390625
121, 519388881, -6.336663722991943, 1.8391436338424683, 7.075965881347656, -0.19589874148368835, -0.6870990991592407, -1.4664039611816406, 0.60498046875, 0.17041015625, -0.69775390625
122, 519405548, -6.314749717712402, 1.8397908210754395, 7.099782466888428, -0.24360238015651703, -0.7172580361366272, -1.4297137260437012, 0.60595703125, 0.169921875, -0.699462890625
123, 519422215, -6.312624454498291, 1.8378846645355225, 7.048372745513916, -0.24967257678508759, -0.8222828507423401, -1.461447834968567, 0.60400390625, 0.169921875, -0.69921875
124, 519438882, -6.310215950012207, 1.8478271961212158, 7.066954612731934, -0.15919573605060577, -0.67900550365448, -1.361852765083313, 0.60595703125, 0.16943359375, -0.69970703125
125, 519455549, -6.3083906173706055, 1.828652024269104, 7.104301929473877, -0.07606972008943558, -0.7362114191055298, -1.3203731775283813, 0.60498046875, 0.17041015625, -0.6982421875
126, 519472216, -6.305219650268555, 1.8553745746612549, 7.068282604217529, -0.19934365153312683, -0.7106243371963501, -1.3010355234146118, 0.60498046875, 0.169921875, -0.6962890625
127, 519488883, -6.311605930328369, 1.8550100326538086, 7.087080001831055, -0.18804845213890076, -0.7715826034545898, -1.4077508449554443, 0.60595703125, 0.17041015625, -0.6982421875
128, 519505550, -6.319592475891113, 1.8380281925201416, 7.090254306793213, -0.19967658817768097, -0.7476603388786316, -1.288690209388733, 0.6064453125, 0.169921875, -0.69775390625
129, 519522217, -6.329506874084473, 1.848345398902893, 7.088143825531006, -0.09416508674621582, -0.7790998816490173, -1.2850531339645386, 0.603515625, 0.1708984375, -0.69775390625
130, 519538884, -6.315793037414551, 1.857377290725708, 7.085581302642822, -0.15162718296051025, -0.8283275365829468, -1.2844769954681396, 0.60546875, 0.1708984375, -0.69921875
131, 519555551, -6.316376686096191, 1.8491040468215942, 7.084313869476318, -0.2282603681087494, -0.9382956624031067, -1.2716193199157715, 0.6064453125, 0.16943359375, -0.6982421875
132, 519572218, -6.315495491027832, 1.8515886068344116, 7.072198867797852, -0.23566247522830963, -0.9110950827598572, -1.3396466970443726, 0.60498046875, 0.1689453125, -0.69873046875
133, 519588885, -6.316707134246826, 1.849884033203125, 7.0908942222595215, -0.2989514470100403, -0.948374330997467, -1.383662223815918, 0.60546875, 0.17138671875, -0.69921875
134, 519605552, -6.302894592285156, 1.8529921770095825, 7.091057300567627, -0.36477604508399963, -0.905972421169281, -1.4177781343460083, 0.60302734375, 0.17138671875, -0.69580078125
135, 519622219, -6.313906192779541, 1.8518162965774536, 7.072051525115967, -0.27424803376197815, -0.7939041256904602, -1.4237844944000244, 0.6044921875, 0.169921875, -0.6962890625
136, 519638886, -6.323887348175049, 1.8336310386657715, 7.091518878936768, -0.24211683869361877, -0.7553696632385254, -1.3801531791687012, 0.60498046875, 0.17041015625, -0.6982421875
137, 519655553, -6.3180742263793945, 1.8251776695251465, 7.08234977722168, -0.23129548132419586, -0.6958585381507874, -1.3174020051956177, 0.60546875, 0.1689453125, -0.697265625
138, 519672220, -6.327276229858398, 1.8468017578125, 7.097886085510254, -0.22210052609443665, -0.8101425170898438, -1.355705738067627, 0.603515625, 0.17138671875, -0.697265625
139, 519688887, -6.31661319732666, 1.8540340662002563, 7.096557140350342, -0.2220492660999298, -0.9228895306587219, -1.3047364950180054, 0.60400390625, 0.17236328125, -0.699951171875
140, 519705554, -6.316991329193115, 1.8436591625213623, 7.08383321762085, -0.30771100521087646, -0.9413436055183411, -1.383482813835144, 0.6044921875, 0.16943359375, -0.69677734375
141, 519722221, -6.314313888549805, 1.8584976196289062, 7.08742618560791, -0.26297837495803833, -0.8872880339622498, -1.3576266765594482, 0.60498046875, 0.17138671875, -0.69921875
142, 519738888, -6.305285453796387, 1.8333982229232788, 7.095085144042969, -0.217861607670784, -0.7614911794662476, -1.32778799533844, 0.60595703125, 0.16943359375, -0.69970703125
143, 519755555, -6.307373046875, 1.8591463565826416, 7.099078178405762, -0.17802107334136963, -0.782929003238678, -1.3924599885940552, 0.6064453125, 0.16943359375, -0.69873046875
144, 519772222, -6.319961071014404, 1.8488171100616455, 7.060397624969482, -0.33816444873809814, -0.791445255279541, -1.416715145111084, 0.60595703125, 0.17138671875, -0.697265625
145, 519788889, -6.313736438751221, 1.8512535095214844, 7.074134349822998, -0.2967487573623657, -0.8035215735435486, -1.3433221578598022, 0.60498046875, 0.17041015625, -0.69873046875
146, 519805556, -6.313871383666992, 1.840578317642212, 7.074592590332031, -0.26609036326408386, -0.7751172184944153, -1.409697413444519, 0.6025390625, 0.169921875, -0.6982421875
147, 519822223, -6.315562725067139, 1.8496017456054688, 7.075544357299805, -0.30015525221824646, -0.7171940207481384, -1.4377690553665161, 0.603515625, 0.171875, -0.699462890625
148, 519838890, -6.321192741394043, 1.8354426622390747, 7.088341236114502, -0.24935244023799896, -0.6695031523704529, -1.429508924484253, 0.60595703125, 0.172607421875, -0.6962890625
149, 519855557, -6.316578388214111, 1.843057632446289, 7.084962368011475, -0.3960363566875458, -0.7081142663955688, -1.501685380935669, 0.60546875, 0.17041015625, -0.69873046875
150, 519872224, -6.301421642303467, 1.8452118635177612, 7.094759941101074, -0.26422062516212463, -0.7653075456619263, -1.438370943069458, 0.60546875, 0.171875, -0.69873046875
151, 519888891, -6.3178606033325195, 1.8364672660827637, 7.098367691040039, -0.2716098725795746, -0.7032862901687622, -1.4237713813781738, 0.6044921875, 0.1708984375, -0.6982421875
152, 519905558, -6.323040008544922, 1.8206430673599243, 7.111382007598877, -0.33585935831069946, -0.6741518378257751, -1.449691653251648, 0.60302734375, 0.17041015625, -0.6982421875
153, 519922225, -6.309696674346924, 1.8384089469909668, 7.095556735992432, -0.3357440233230591, -0.8131646513938904, -1.6026759147644043, 0.6044921875, 0.169921875, -0.697265625
154, 519938892, -6.319718360900879, 1.8502041101455688, 7.074457168579102, -0.3545309901237488, -0.8110901713371277, -1.6748144626617432, 0.60498046875, 0.17041015625, -0.6982421875
155, 519955559, -6.312325954437256, 1.8357220888137817, 7.101840972900391, -0.3339384198188782, -0.7239813804626465, -1.4444795846939087, 0.60498046875, 0.17138671875, -0.699951171875
156, 519972226, -6.325117111206055, 1.8305165767669678, 7.103805065155029, -0.17590802907943726, -0.6057531833648682, -1.4140642881393433, 0.6044921875, 0.17236328125, -0.6982421875
157, 519988893, -6.318833351135254, 1.8469722270965576, 7.102593898773193, -0.15286940336227417, -0.5171716213226318, -1.386658787727356, 0.60400390625, 0.169921875, -0.6982421875
158, 520005560, -6.311751365661621, 1.855500340461731, 7.086183071136475, -0.2018536925315857, -0.6526116132736206, -1.4180599451065063, 0.603515625, 0.171875, -0.69775390625
159, 520022227, -6.3136515617370605, 1.8446602821350098, 7.084661483764648, -0.24702169001102448, -0.6867021322250366, -1.457695722579956, 0.6044921875, 0.17041015625, -0.6982421875
160, 520038894, -6.297652244567871, 1.8452715873718262, 7.086420059204102, -0.3649297058582306, -0.7820324301719666, -1.442225456237793, 0.603515625, 0.17138671875, -0.69580078125
161, 520055561, -6.3289337158203125, 1.8516939878463745, 7.099813938140869, -0.3779410123825073, -0.837522566318512, -1.5318572521209717, 0.60595703125, 0.1708984375, -0.697265625
162, 520072228, -6.290986061096191, 1.851629376411438, 7.076267242431641, -0.4460707902908325, -0.7825576663017273, -1.5392849445343018, 0.6083984375, 0.172607421875, -0.700439453125
163, 520088895, -6.318511009216309, 1.8518056869506836, 7.081823348999023, -0.2970432937145233, -0.7683682441711426, -1.5412700176239014, 0.60595703125, 0.17041015625, -0.6962890625
164, 520105562, -6.3135223388671875, 1.8375359773635864, 7.083749771118164, -0.15924696624279022, -0.6848452091217041, -1.442494511604309, 0.60595703125, 0.17041015625, -0.697265625
165, 520122229, -6.295689105987549, 1.8291831016540527, 7.078702926635742, -0.1697353571653366, -0.6773022413253784, -1.5247751474380493, 0.6025390625, 0.171875, -0.697265625
166, 520138896, -6.307697296142578, 1.8416937589645386, 7.089165210723877, -0.09676477313041687, -0.7582767009735107, -1.3779246807098389, 0.603515625, 0.17138671875, -0.6962890625
167, 520155563, -6.317886829376221, 1.8402056694030762, 7.08618688583374, -0.026227403432130814, -0.5647728443145752, -1.4170482158660889, 0.603515625, 0.171875, -0.69677734375
168, 520172230, -6.318020820617676, 1.849353313446045, 7.074706077575684, 0.07704940438270569, -0.5024315714836121, -1.3394033908843994, 0.6064453125, 0.171875, -0.69921875
169, 520188897, -6.312206745147705, 1.8353626728057861, 7.099649429321289, 0.08979812264442444, -0.5660278797149658, -1.2862825393676758, 0.60546875, 0.17236328125, -0.698974609375
170, 520205564, -6.3266072273254395, 1.8201326131820679, 7.059954643249512, 0.025311749428510666, -0.5930364727973938, -1.2439063787460327, 0.6044921875, 0.1708984375, -0.697265625
171, 520222231, -6.313832759857178, 1.8240634202957153, 7.082893371582031, 0.05580367520451546, -0.7669211030006409, -1.1138707399368286, 0.60302734375, 0.173583984375, -0.69677734375
172, 520238898, -6.338080883026123, 1.8319692611694336, 7.096253871917725, 0.18540392816066742, -0.7205107808113098, -1.0201537609100342, 0.6064453125, 0.1708984375, -0.6982421875
173, 520255565, -6.332034111022949, 1.8446093797683716, 7.067842483520508, 0.11847154051065445, -0.6899164319038391, -1.0804716348648071, 0.60595703125, 0.1708984375, -0.699951171875
174, 520272232, -6.326277256011963, 1.8369314670562744, 7.073256015777588, 0.05119338259100914, -0.9412410855293274, -1.0747088193893433, 0.60595703125, 0.1708984375, -0.69873046875
175, 520288899, -6.326757431030273, 1.833920955657959, 7.12002420425415, -0.01964494027197361, -0.8831258416175842, -1.1597685813903809, 0.60546875, 0.17041015625, -0.697265625
176, 520305566, -6.326911449432373, 1.8444314002990723, 7.098588943481445, 0.08520705252885818, -0.8832539916038513, -1.0414636135101318, 0.6044921875, 0.1708984375, -0.69677734375
177, 520322233, -6.321727275848389, 1.8536754846572876, 7.049121379852295, 0.1121387928724289, -0.9269365072250366, -1.0078212022781372, 0.60400390625, 0.169921875, -0.69873046875
178, 520338900, -6.319732189178467, 1.8628766536712646, 7.072415351867676, 0.03220156580209732, -1.0657316446304321, -0.9964492917060852, 0.6064453125, 0.1708984375, -0.69775390625
179, 520355567, -6.326566219329834, 1.8463869094848633, 7.085593223571777, -0.1386159360408783, -1.116444706916809, -1.132222056388855, 0.6044921875, 0.17041015625, -0.699951171875
180, 520372234, -6.318347930908203, 1.846491813659668, 7.084631443023682, -0.12268483638763428, -0.9677886366844177, -1.1986743211746216, 0.6044921875, 0.17041015625, -0.6982421875
181, 520388901, -6.304426193237305, 1.8538516759872437, 7.109474182128906, -0.07355967164039612, -0.9294207692146301, -1.2314841747283936, 0.60546875, 0.1708984375, -0.6982421875
182, 520405568, -6.314916133880615, 1.8421037197113037, 7.080890655517578, -0.0379452146589756, -0.8683217167854309, -1.160447359085083, 0.60400390625, 0.16943359375, -0.69677734375
183, 520422235, -6.308972358703613, 1.8771913051605225, 7.1014533042907715, 0.1255214363336563, -0.6977027058601379, -1.0912162065505981, 0.60498046875, 0.1708984375, -0.6982421875
184, 520438902, -6.322299003601074, 1.8624788522720337, 7.077408313751221, 0.09884580969810486, -0.7079861760139465, -1.191835641860962, 0.6064453125, 0.16943359375, -0.6982421875
185, 520455569, -6.315988063812256, 1.8582377433776855, 7.0692596435546875, -0.045039933174848557, -0.7294625043869019, -1.314610242843628, 0.60498046875, 0.171875, -0.69873046875
186, 520472236, -6.318207740783691, 1.8597286939620972, 7.066350936889648, -0.17871259152889252, -0.8365875482559204, -1.3640811443328857, 0.60498046875, 0.16943359375, -0.69775390625
187, 520488903, -6.322083950042725, 1.8492647409439087, 7.076430797576904, -0.30502164363861084, -0.7233666777610779, -1.448218822479248, 0.6044921875, 0.16943359375, -0.69921875
188, 520505570, -6.325572490692139, 1.8437819480895996, 7.067777633666992, -0.2637723982334137, -0.7708141803741455, -1.5073713064193726, 0.60546875, 0.16845703125, -0.697265625
189, 520522237, -6.324462890625, 1.8396165370941162, 7.086212158203125, -0.2672429084777832, -0.7492226958274841, -1.587615966796875, 0.60302734375, 0.1708984375, -0.69580078125
190, 520538904, -6.31824254989624, 1.8682008981704712, 7.101052284240723, -0.278896689414978, -0.765371561050415, -1.4902366399765015, 0.6044921875, 0.17041015625, -0.69775390625
191, 520555571, -6.3242974281311035, 1.8463997840881348, 7.06664514541626, -0.2792936861515045, -0.7455088496208191, -1.520164966583252, 0.60400390625, 0.169921875, -0.69921875
192, 520572238, -6.310513496398926, 1.8442084789276123, 7.097887992858887, -0.23283223807811737, -0.5416701436042786, -1.50985586643219, 0.60302734375, 0.16943359375, -0.69580078125
193, 520588905, -6.334632873535156, 1.8426953554153442, 7.087648391723633, -0.2468423992395401, -0.5809088945388794, -1.602356195449829, 0.60595703125, 0.17138671875, -0.69921875
194, 520605572, -6.330562114715576, 1.8649495840072632, 7.082881927490234, -0.3178407847881317, -0.48870307207107544, -1.643477201461792, 0.6044921875, 0.17138671875, -0.699951171875
195, 520622239, -6.317791938781738, 1.856584906578064, 7.073300838470459, -0.32289931178092957, -0.34889623522758484, -1.6934349536895752, 0.60400390625, 0.17138671875, -0.697265625
196, 520638906, -6.314967632293701, 1.850291132926941, 7.099696159362793, -0.41963839530944824, -0.3546077609062195, -1.7610137462615967, 0.60546875, 0.17041015625, -0.699951171875
197, 520655573, -6.330362796783447, 1.8631166219711304, 7.083114147186279, -0.4778432846069336, -0.3599608838558197, -1.831730604171753, 0.60546875, 0.1708984375, -0.6982421875
198, 520672240, -6.332839012145996, 1.842636227607727, 7.111622333526611, -0.4646911919116974, -0.4125693440437317, -1.8070143461227417, 0.60595703125, 0.17138671875, -0.699951171875
199, 520688907, -6.335741996765137, 1.8231009244918823, 7.0754289627075195, -0.47911110520362854, -0.5244327187538147, -1.7352473735809326, 0.60546875, 0.169921875, -0.69677734375
200, 520705574, -6.333050727844238, 1.8351324796676636, 7.08505916595459, -0.5231649875640869, -0.5562694072723389, -1.725399374961853, 0.60546875, 0.1708984375, -0.69580078125
201, 520722241, -6.323479652404785, 1.8313835859298706, 7.060135841369629, -0.40794622898101807, -0.6559155583381653, -1.7121062278747559, 0.60302734375, 0.17236328125, -0.697265625
202, 520738908, -6.339511394500732, 1.8455462455749512, 7.069793224334717, -0.48566797375679016, -0.6536232233047485, -1.6364338397979736, 0.6064453125, 0.17041015625, -0.697265625
203, 520755575, -6.347440719604492, 1.8122292757034302, 7.062854290008545, -0.3643662631511688, -0.7171043753623962, -1.4659301042556763, 0.607177734375, 0.16943359375, -0.69677734375
204, 520772242, -6.33295202255249, 1.839935302734375, 7.095191955566406, -0.3545950651168823, -0.7910099029541016, -1.4553521871566772, 0.6064453125, 0.17041015625, -0.69677734375
205, 520788909, -6.339870929718018, 1.819426417350769, 7.084816932678223, -0.4284876883029938, -0.8880820274353027, -1.3854678869247437, 0.60498046875, 0.17236328125, -0.69775390625
206, 520805576, -6.3192877769470215, 1.8242993354797363, 7.0851359367370605, -0.35768136382102966, -1.077244520187378, -1.3567688465118408, 0.60498046875, 0.169921875, -0.699462890625
207, 520822243, -6.318755149841309, 1.8268556594848633, 7.093748092651367, -0.2903711795806885, -1.0092939138412476, -1.2972062826156616, 0.6064453125, 0.17138671875, -0.697265625
208, 520838910, -6.324366569519043, 1.826293706893921, 7.109652996063232, -0.22923363745212555, -0.9382699131965637, -1.2956182956695557, 0.60595703125, 0.17138671875, -0.69873046875
209, 520855577, -6.317788600921631, 1.8353526592254639, 7.096058368682861, -0.22284330427646637, -0.8632633090019226, -1.2930828332901, 0.60546875, 0.1708984375, -0.69873046875
210, 520872244, -6.321585655212402, 1.828932285308838, 7.1003851890563965, -0.2791016101837158, -1.0288877487182617, -1.278176188468933, 0.60498046875, 0.17138671875, -0.69873046875
211, 520888911, -6.3153510093688965, 1.8346647024154663, 7.080348968505859, -0.2995661497116089, -1.0123804807662964, -1.2454560995101929, 0.60595703125, 0.17138671875, -0.69677734375
212, 520905578, -6.328577041625977, 1.82099449634552, 7.088555335998535, -0.32392382621765137, -0.9592724442481995, -1.3143413066864014, 0.603515625, 0.17138671875, -0.69677734375
213, 520922245, -6.319669246673584, 1.8350416421890259, 7.079868793487549, -0.32592159509658813, -0.9378474354743958, -1.2505145072937012, 0.60546875, 0.171875, -0.69873046875
214, 520938912, -6.32169771194458, 1.832311987876892, 7.072473526000977, -0.27791061997413635, -1.0899869203567505, -1.2666760683059692, 0.6064453125, 0.1708984375, -0.69921875
215, 520955579, -6.320569038391113, 1.8352161645889282, 7.086738109588623, -0.1350557804107666, -0.963485836982727, -1.2794697284698486, 0.60693359375, 0.173095703125, -0.69775390625
216, 520972246, -6.320469379425049, 1.8237369060516357, 7.088442802429199, -0.2597896456718445, -0.9095710515975952, -1.2042579650878906, 0.60595703125, 0.172607421875, -0.6982421875
217, 520988913, -6.3241400718688965, 1.836525797843933, 7.096468448638916, -0.21606872975826263, -0.867438018321991, -1.2785604000091553, 0.603515625, 0.17138671875, -0.697265625
218, 521005580, -6.320925235748291, 1.838333010673523, 7.087569236755371, -0.26555246114730835, -0.8592420220375061, -1.2716448307037354, 0.60595703125, 0.17236328125, -0.69775390625
219, 521022247, -6.324307918548584, 1.8188343048095703, 7.089606761932373, -0.22655713558197021, -0.7925466299057007, -1.246595859527588, 0.60498046875, 0.172607421875, -0.6982421875
220, 521038914, -6.324103355407715, 1.838366985321045, 7.08173942565918, -0.17845647037029266, -0.8257278203964233, -1.279469609260559, 0.60498046875, 0.1708984375, -0.697265625
221, 521055581, -6.31862735748291, 1.8524508476257324, 7.089822292327881, -0.15458545088768005, -0.8270852565765381, -1.3058634996414185, 0.60498046875, 0.17138671875, -0.69873046875
222, 521072248, -6.308838844299316, 1.8435744047164917, 7.095736026763916, -0.0748787373304367, -0.9011700749397278, -1.2438936233520508, 0.60595703125, 0.1708984375, -0.69921875
223, 521088915, -6.31668758392334, 1.8505704402923584, 7.098942756652832, -0.1491299420595169, -0.8190940618515015, -1.3666551113128662, 0.60400390625, 0.171875, -0.69775390625
224, 521105582, -6.310370922088623, 1.819921851158142, 7.080036640167236, -0.05036737397313118, -0.844169020652771, -1.3288124799728394, 0.6044921875, 0.171875, -0.69873046875
225, 521122249, -6.332592010498047, 1.8452115058898926, 7.066056728363037, -0.1787126064300537, -0.9063180685043335, -1.356871247291565, 0.60546875, 0.171875, -0.69921875
226, 521138916, -6.318150520324707, 1.830460548400879, 7.1073994636535645, -0.11880449950695038, -0.7692774534225464, -1.2756532430648804, 0.60693359375, 0.17138671875, -0.69873046875
227, 521155583, -6.330483436584473, 1.8345389366149902, 7.088917255401611, -0.19214008748531342, -0.7458354234695435, -1.321506381034851, 0.6044921875, 0.171875, -0.699462890625
228, 521172250, -6.332185745239258, 1.8367891311645508, 7.062261581420898, -0.24036239087581635, -0.854619026184082, -1.4007329940795898, 0.6064453125, 0.16943359375, -0.6982421875
229, 521188917, -6.325533390045166, 1.8200637102127075, 7.079601287841797, -0.3303782343864441, -1.032665729522705, -1.3470231294631958, 0.6064453125, 0.172119140625, -0.69677734375
230, 521205584, -6.332393646240234, 1.8454254865646362, 7.0699286460876465, -0.3177126944065094, -0.9868314862251282, -1.3134574890136719, 0.60595703125, 0.172607421875, -0.697265625
231, 521222251, -6.31919002532959, 1.8329808712005615, 7.069910049438477, -0.1879972219467163, -1.0067713260650635, -1.2304086685180664, 0.60546875, 0.1708984375, -0.699462890625
232, 521238918, -6.312392711639404, 1.8238366842269897, 7.062269687652588, -0.1680833399295807, -1.1049702167510986, -1.221354365348816, 0.60595703125, 0.17236328125, -0.69921875
233, 521255585, -6.300722122192383, 1.8255432844161987, 7.083520412445068, -0.17908400297164917, -0.9455568790435791, -1.295964241027832, 0.6064453125, 0.17138671875, -0.69921875
234, 521272252, -6.3177266120910645, 1.8338369131088257, 7.095262050628662, -0.1894187182188034, -0.8999791145324707, -1.2370805740356445, 0.60302734375, 0.171875, -0.697265625
235, 521288919, -6.303321838378906, 1.8187735080718994, 7.094369411468506, -0.14541609585285187, -0.7376841902732849, -1.2323678731918335, 0.607421875, 0.172119140625, -0.6982421875
236, 521305586, -6.3099775314331055, 1.8314101696014404, 7.093165874481201, -0.02520289644598961, -0.7514509558677673, -1.1774287223815918, 0.60498046875, 0.17138671875, -0.699951171875
237, 521322253, -6.329290390014648, 1.8399571180343628, 7.073470592498779, -0.13947394490242004, -0.8024330735206604, -1.2108532190322876, 0.60546875, 0.17236328125, -0.6982421875
238, 521338920, -6.326652526855469, 1.8409968614578247, 7.059279441833496, -0.17129772901535034, -0.9036800265312195, -1.217615008354187, 0.60693359375, 0.172607421875, -0.6982421875
239, 521355587, -6.309396266937256, 1.8430050611495972, 7.097926616668701, -0.19904910027980804, -0.9880610704421997, -1.2441753149032593, 0.6064453125, 0.1708984375, -0.69775390625
240, 521372254, -6.317718505859375, 1.8391059637069702, 7.096412658691406, -0.11827945709228516, -1.019065260887146, -1.1323246955871582, 0.60546875, 0.1708984375, -0.6982421875
241, 521388921, -6.304572105407715, 1.8386152982711792, 7.097398281097412, -0.13771948218345642, -0.8987880349159241, -1.1943329572677612, 0.6044921875, 0.17041015625, -0.69873046875
242, 521405588, -6.316044330596924, 1.8441927433013916, 7.079414367675781, -0.16933836042881012, -0.8775678873062134, -1.2525122165679932, 0.60400390625, 0.17138671875, -0.69775390625
243, 521422255, -6.323625087738037, 1.8453459739685059, 7.099839210510254, -0.19616767764091492, -0.8115255832672119, -1.2900092601776123, 0.60546875, 0.17236328125, -0.699462890625
244, 521438922, -6.311012268066406, 1.8461579084396362, 7.087930202484131, -0.19100667536258698, -0.7901004552841187, -1.3604185581207275, 0.6044921875, 0.172607421875, -0.697265625
245, 521455589, -6.317835807800293, 1.8314476013183594, 7.085354804992676, -0.3403671681880951, -0.8711262941360474, -1.385326862335205, 0.60546875, 0.17236328125, -0.698974609375
246, 521472256, -6.328352928161621, 1.825868844985962, 7.070461750030518, -0.3200947344303131, -0.9445579648017883, -1.378321886062622, 0.60498046875, 0.17236328125, -0.69580078125
247, 521488923, -6.322722911834717, 1.834041714668274, 7.095898628234863, -0.24604839086532593, -0.8596005439758301, -1.4191868305206299, 0.60498046875, 0.17236328125, -0.69873046875
248, 521505590, -6.324735641479492, 1.8450449705123901, 7.0905842781066895, -0.18484684824943542, -0.907701313495636, -1.2997419834136963, 0.60302734375, 0.1708984375, -0.700439453125
249, 521522257, -6.313391208648682, 1.833981990814209, 7.091451644897461, -0.20933260023593903, -0.8989288806915283, -1.3593171834945679, 0.60693359375, 0.1708984375, -0.69775390625
250, 521538924, -6.3083624839782715, 1.8364046812057495, 7.064840793609619, -0.24828949570655823, -0.8250362277030945, -1.360546588897705, 0.60546875, 0.17041015625, -0.69873046875
251, 521555591, -6.3141093254089355, 1.8357174396514893, 7.084383487701416, -0.2307320088148117, -0.8248056769371033, -1.4241044521331787, 0.6044921875, 0.1708984375, -0.6982421875
252, 521572258, -6.311654090881348, 1.8449686765670776, 7.097236156463623, -0.2781667113304138, -0.8270852565765381, -1.3906415700912476, 0.60400390625, 0.173095703125, -0.6982421875
253, 521588925, -6.294685363769531, 1.8425971269607544, 7.107231140136719, -0.31653454899787903, -0.7747842073440552, -1.4317115545272827, 0.6044921875, 0.17041015625, -0.69873046875
254, 521605592, -6.314310073852539, 1.8340996503829956, 7.113798141479492, -0.20810319483280182, -0.6668522357940674, -1.4467461109161377, 0.603515625, 0.171875, -0.6962890625
255, 521622259, -6.313836097717285, 1.8235249519348145, 7.113348007202148, -0.2400934249162674, -0.7136210203170776, -1.4002206325531006, 0.60400390625, 0.1708984375, -0.69580078125
256, 521638926, -6.322837829589844, 1.8327088356018066, 7.086884498596191, -0.1456594318151474, -0.6865227818489075, -1.3726228475570679, 0.6064453125, 0.171875, -0.69775390625
257, 521655593, -6.312330722808838, 1.8423303365707397, 7.0814104080200195, -0.21998746693134308, -0.7172195911407471, -1.4357837438583374, 0.6064453125, 0.1708984375, -0.69873046875
258, 521672260, -6.334034442901611, 1.843665599822998, 7.08359432220459, -0.3251916468143463, -0.7722485661506653, -1.2690324783325195, 0.60546875, 0.17041015625, -0.69677734375
259, 521688927, -6.311140060424805, 1.8367915153503418, 7.077678203582764, -0.3142550587654114, -0.7432037591934204, -1.487521767616272, 0.6044921875, 0.1708984375, -0.69775390625
260, 521705594, -6.317664623260498, 1.8270690441131592, 7.075801372528076, -0.31890368461608887, -0.7376073002815247, -1.457413673400879, 0.60546875, 0.172607421875, -0.69873046875
261, 521722261, -6.315754413604736, 1.8247073888778687, 7.08475923538208, -0.30952945351600647, -0.7350203990936279, -1.4724740982055664, 0.6064453125, 0.17138671875, -0.69873046875
262, 521738928, -6.3270583152771, 1.8353919982910156, 7.090838432312012, -0.19076338410377502, -0.6577341556549072, -1.3646702766418457, 0.60498046875, 0.17041015625, -0.699951171875
263, 521755595, -6.316482067108154, 1.8376344442367554, 7.054369926452637, -0.2728264629840851, -0.7306790947914124, -1.3613661527633667, 0.6044921875, 0.169921875, -0.69677734375
264, 521772262, -6.322500228881836, 1.8246574401855469, 7.0616841316223145, -0.2260192632675171, -0.761926531791687, -1.41543447971344, 0.60595703125, 0.17138671875, -0.6982421875
265, 521788929, -6.313780307769775, 1.8215359449386597, 7.092636585235596, -0.19005903601646423, -0.7513741254806519, -1.3928056955337524, 0.6064453125, 0.173583984375, -0.697265625
266, 521805596, -6.307662010192871, 1.8216156959533691, 7.067952632904053, -0.2127775102853775, -0.8078758716583252, -1.3617504835128784, 0.60498046875, 0.17138671875, -0.699462890625
267, 521822263, -6.322990417480469, 1.8344814777374268, 7.091652870178223, -0.1592341512441635, -0.8011652231216431, -1.3100767135620117, 0.60400390625, 0.171875, -0.698974609375
268, 521838930, -6.308181285858154, 1.8400286436080933, 7.0790276527404785, -0.147477924823761, -0.8227311968803406, -1.3504806756973267, 0.603515625, 0.17236328125, -0.697265625
269, 521855597, -6.320929527282715, 1.8179267644882202, 7.093624591827393, -0.1734107881784439, -0.7087290287017822, -1.3518767356872559, 0.60693359375, 0.17041015625, -0.69677734375
270, 521872264, -6.320011138916016, 1.83421790599823, 7.089511871337891, -0.21874527633190155, -0.8062238097190857, -1.2397955656051636, 0.60400390625, 0.1728515625, -0.698974609375
271, 521888931, -6.3104753494262695, 1.8391213417053223, 7.0684404373168945, -0.17917364835739136, -0.8821910619735718, -1.3423616886138916, 0.60546875, 0.169921875, -0.69775390625
272, 521905598, -6.3211774826049805, 1.8486990928649902, 7.075484275817871, -0.15664726495742798, -0.8586145043373108, -1.3060683012008667, 0.60546875, 0.172607421875, -0.697265625
273, 521922265, -6.315103054046631, 1.826762080192566, 7.082144737243652, -0.2054138481616974, -0.7072561979293823, -1.2960410118103027, 0.60546875, 0.17236328125, -0.700927734375
274, 521938932, -6.322937965393066, 1.8206120729446411, 7.0775465965271, -0.1505642682313919, -0.7241478562355042, -1.3168002367019653, 0.60498046875, 0.17041015625, -0.6982421875
275, 521955599, -6.319277763366699, 1.8318790197372437, 7.102741241455078, -0.06284075975418091, -0.7228800058364868, -1.322742223739624, 0.60546875, 0.169921875, -0.69921875
276, 521972266, -6.307844638824463, 1.8408972024917603, 7.08920955657959, -0.1529974639415741, -0.7094206213951111, -1.2450717687606812, 0.60498046875, 0.17236328125, -0.700927734375
277, 521988933, -6.319560527801514, 1.8322818279266357, 7.10001802444458, -0.1365669071674347, -0.808003842830658, -1.3713679313659668, 0.6044921875, 0.17236328125, -0.6982421875
278, 522005600, -6.313807010650635, 1.8514286279678345, 7.094278335571289, -0.20646396279335022, -0.7898315787315369, -1.3557955026626587, 0.60546875, 0.173583984375, -0.69775390625
279, 522022267, -6.309514999389648, 1.8275418281555176, 7.0791850090026855, -0.2788710594177246, -0.8103858232498169, -1.388246774673462, 0.60498046875, 0.1708984375, -0.69873046875
280, 522038934, -6.314144134521484, 1.8365614414215088, 7.087286949157715, -0.18725445866584778, -0.8176342248916626, -1.3030717372894287, 0.60400390625, 0.1708984375, -0.697265625
281, 522055601, -6.312934398651123, 1.8358129262924194, 7.107177734375, -0.1425987184047699, -0.8318492770195007, -1.2633849382400513, 0.60400390625, 0.171875, -0.697265625
282, 522072268, -6.3149518966674805, 1.8306387662887573, 7.085854530334473, -0.1798267364501953, -0.827034056186676, -1.3947393894195557, 0.60546875, 0.171875, -0.69775390625
283, 522088935, -6.320882320404053, 1.8495042324066162, 7.084210395812988, -0.2232658863067627, -0.8146246075630188, -1.3612123727798462, 0.60595703125, 0.1708984375, -0.699951171875
284, 522105602, -6.330716609954834, 1.836451768875122, 7.111396312713623, -0.21421179175376892, -0.7533975839614868, -1.3024954795837402, 0.6044921875, 0.17236328125, -0.69873046875
285, 522122269, -6.314825534820557, 1.8243489265441895, 7.101938724517822, -0.22385500371456146, -0.8001022934913635, -1.3184521198272705, 0.60400390625, 0.17236328125, -0.697265625
286, 522138936, -6.315979957580566, 1.8235355615615845, 7.078316688537598, -0.2421424835920334, -0.902553141117096, -1.337930679321289, 0.60400390625, 0.171875, -0.699951171875
287, 522155603, -6.314503192901611, 1.8282872438430786, 7.079102993011475, -0.2671148180961609, -0.8048406839370728, -1.3314120769500732, 0.60498046875, 0.173583984375, -0.698974609375
288, 522172270, -6.326478004455566, 1.830098271369934, 7.092236042022705, -0.2725319564342499, -0.7123916149139404, -1.4251290559768677, 0.6044921875, 0.1728515625, -0.698974609375
289, 522188937, -6.312901973724365, 1.8279403448104858, 7.076870918273926, -0.22117848694324493, -0.859190821647644, -1.3962891101837158, 0.603515625, 0.171875, -0.697265625
290, 522205604, -6.324626922607422, 1.8366758823394775, 7.08987283706665, -0.20862826704978943, -0.7354943156242371, -1.419750452041626, 0.603515625, 0.1728515625, -0.6982421875
291, 522222271, -6.316237926483154, 1.823124885559082, 7.1005706787109375, -0.3073139786720276, -0.8747504949569702, -1.373032808303833, 0.60302734375, 0.1728515625, -0.69873046875
292, 522238938, -6.315232753753662, 1.8284682035446167, 7.100855350494385, -0.3181225061416626, -0.932187020778656, -1.4180854558944702, 0.60595703125, 0.1708984375, -0.697265625
293, 522255605, -6.330228805541992, 1.8283945322036743, 7.073429107666016, -0.30544427037239075, -0.8690133690834045, -1.4269860982894897, 0.60595703125, 0.169921875, -0.69921875
294, 522272272, -6.328469753265381, 1.8289382457733154, 7.073648452758789, -0.31471604108810425, -0.8741486072540283, -1.3339990377426147, 0.60595703125, 0.17236328125, -0.697265625
295, 522288939, -6.308203220367432, 1.8313418626785278, 7.083824157714844, -0.42991554737091064, -0.9861465692520142, -1.350628137588501, 0.60400390625, 0.173095703125, -0.69677734375
296, 522305606, -6.312685489654541, 1.8088010549545288, 7.107731342315674, -0.6420078277587891, -1.0591105222702026, -1.5139793157577515, 0.60546875, 0.171875, -0.69873046875
297, 522322273, -6.316012382507324, 1.8584905862808228, 7.0836873054504395, -0.7386062741279602, -1.1734201908111572, -1.5672025680541992, 0.60400390625, 0.17138671875, -0.699462890625
298, 522338940, -6.322230815887451, 1.8157600164413452, 7.080763339996338, -0.3693607449531555, -0.8834972977638245, -1.437243938446045, 0.6044921875, 0.17236328125, -0.700927734375
299, 522355607, -6.311672687530518, 1.8104276657104492, 7.099423885345459, -0.28248244524002075, -0.8250362873077393, -1.2899067401885986, 0.60546875, 0.17041015625, -0.69921875
300, 522372274, -6.306094646453857, 1.8440203666687012, 7.084105491638184, -0.3311978578567505, -0.8905921578407288, -1.4054714441299438, 0.6064453125, 0.172607421875, -0.69775390625
301, 522388941, -6.3109917640686035, 1.834542155265808, 7.0963640213012695, -0.39683037996292114, -1.0203715562820435, -1.4142053127288818, 0.60595703125, 0.172607421875, -0.698974609375
302, 522405608, -6.31803560256958, 1.8140408992767334, 7.078848838806152, -0.267972856760025, -1.0370326042175293, -1.3085784912109375, 0.603515625, 0.173095703125, -0.6982421875
303, 522422275, -6.3050456047058105, 1.8203332424163818, 7.105299472808838, -0.25128617882728577, -1.0521184206008911, -1.237964153289795, 0.60498046875, 0.172607421875, -0.697265625
304, 522438942, -6.311646938323975, 1.8423062562942505, 7.099396228790283, -0.1464790403842926, -1.0470727682113647, -1.3081942796707153, 0.60400390625, 0.171875, -0.69873046875
305, 522455609, -6.308417797088623, 1.8499740362167358, 7.100961685180664, -0.26667943596839905, -1.0458688735961914, -1.2185626029968262, 0.60400390625, 0.173095703125, -0.700927734375
306, 522472276, -6.288804054260254, 1.834958553314209, 7.100365161895752, -0.21795128285884857, -0.9464405179023743, -1.3482909202575684, 0.6044921875, 0.173583984375, -0.699462890625
307, 522488943, -6.306168079376221, 1.8217359781265259, 7.100863933563232, -0.17245671153068542, -0.8772542476654053, -1.3751779794692993, 0.603515625, 0.17236328125, -0.700927734375
308, 522505610, -6.312625885009766, 1.828400731086731, 7.104647636413574, -0.2451135367155075, -0.8685010075569153, -1.3837645053863525, 0.60595703125, 0.17138671875, -0.69873046875
309, 522522277, -6.316044330596924, 1.8221124410629272, 7.094564437866211, -0.18916258215904236, -0.7635913491249084, -1.3176069259643555, 0.60302734375, 0.1728515625, -0.69873046875
310, 522538944, -6.315261363983154, 1.835390329360962, 7.0918426513671875, -0.16173137724399567, -0.7537177205085754, -1.2771772146224976, 0.60693359375, 0.1708984375, -0.697265625
311, 522555611, -6.310997486114502, 1.812781572341919, 7.100647926330566, -0.19377286732196808, -0.7111878395080566, -1.316851258277893, 0.60546875, 0.17236328125, -0.698974609375
312, 522572278, -6.311933994293213, 1.8298029899597168, 7.125757694244385, -0.16461282968521118, -0.6728968620300293, -1.2941842079162598, 0.6064453125, 0.173583984375, -0.699951171875
313, 522588945, -6.303586959838867, 1.820130705833435, 7.088476181030273, -0.22814510762691498, -0.7010451555252075, -1.3424639701843262, 0.603515625, 0.171875, -0.6982421875
314, 522605612, -6.326229572296143, 1.8134222030639648, 7.071353435516357, -0.1777777522802353, -0.760287344455719, -1.2917509078979492, 0.6044921875, 0.17138671875, -0.69921875
315, 522622279, -6.305530548095703, 1.8321446180343628, 7.121336460113525, -0.16719971597194672, -0.8128702640533447, -1.3277496099472046, 0.60595703125, 0.171875, -0.699951171875
316, 522638946, -6.318473815917969, 1.8304964303970337, 7.079807281494141, -0.16926153004169464, -0.8314522504806519, -1.3641324043273926, 0.60546875, 0.17236328125, -0.699462890625
317, 522655613, -6.308793544769287, 1.8204668760299683, 7.1032395362854, -0.201456680893898, -0.8466917872428894, -1.3359841108322144, 0.6044921875, 0.1728515625, -0.698974609375
318, 522672280, -6.313936233520508, 1.8234001398086548, 7.071948528289795, -0.1589139997959137, -0.7318572998046875, -1.264614224433899, 0.60546875, 0.173583984375, -0.6982421875
319, 522688947, -6.309099197387695, 1.834584355354309, 7.08432149887085, -0.26341381669044495, -0.7355327010154724, -1.3718290328979492, 0.6044921875, 0.1728515625, -0.69873046875
320, 522705614, -6.2991790771484375, 1.825424075126648, 7.123988628387451, -0.2080903947353363, -0.7814435362815857, -1.3967503309249878, 0.6044921875, 0.174560546875, -0.698974609375
321, 522722281, -6.321350574493408, 1.8194875717163086, 7.106512069702148, -0.2695096433162689, -0.7655636072158813, -1.4663912057876587, 0.603271484375, 0.173095703125, -0.699462890625
322, 522738948, -6.314791202545166, 1.8286556005477905, 7.1037116050720215, -0.25606295466423035, -0.8624180555343628, -1.4518173933029175, 0.60546875, 0.17138671875, -0.700927734375
323, 522755615, -6.328156471252441, 1.8306713104248047, 7.089910507202148, -0.3298787474632263, -0.8722788691520691, -1.3715344667434692, 0.60498046875, 0.17138671875, -0.699951171875
324, 522772282, -6.318938732147217, 1.8080453872680664, 7.100194931030273, -0.1995229423046112, -0.775040328502655, -1.4068928956985474, 0.60302734375, 0.169921875, -0.699951171875
325, 522788949, -6.314367771148682, 1.8412326574325562, 7.108798027038574, -0.23721201717853546, -0.8785411715507507, -1.365425944328308, 0.6025390625, 0.17236328125, -0.698974609375
326, 522805616, -6.309948921203613, 1.8334487676620483, 7.099084377288818, -0.21866841614246368, -0.8523265719413757, -1.355833888053894, 0.60595703125, 0.173095703125, -0.700439453125
327, 522822283, -6.327272891998291, 1.8219562768936157, 7.08573579788208, -0.23176932334899902, -0.8023946285247803, -1.4090441465377808, 0.60546875, 0.173583984375, -0.700439453125
328, 522838950, -6.31566047668457, 1.8280941247940063, 7.089321136474609, -0.30922213196754456, -0.8128575086593628, -1.4085705280303955, 0.60498046875, 0.171875, -0.700927734375
329, 522855617, -6.300992965698242, 1.827601432800293, 7.084290504455566, -0.2950967252254486, -0.846525251865387, -1.3598295450210571, 0.60498046875, 0.17138671875, -0.700927734375
330, 522872284, -6.31427001953125, 1.8238989114761353, 7.108648300170898, -0.3010004460811615, -0.8686802983283997, -1.399067997932434, 0.60498046875, 0.173583984375, -0.700439453125
331, 522888951, -6.316300392150879, 1.8276029825210571, 7.084848880767822, -0.3144983947277069, -0.8398661017417908, -1.419737696647644, 0.602294921875, 0.17236328125, -0.699951171875
332, 522905618, -6.317693710327148, 1.8343582153320312, 7.112510681152344, -0.305264949798584, -0.9510891437530518, -1.3861207962036133, 0.6044921875, 0.172607421875, -0.6982421875
333, 522922285, -6.305965900421143, 1.8336213827133179, 7.083210468292236, -0.2764250636100769, -0.7653331756591797, -1.5288349390029907, 0.602783203125, 0.173583984375, -0.699951171875
334, 522938952, -6.30941104888916, 1.8241244554519653, 7.098595142364502, -0.2921255826950073, -0.7940064668655396, -1.4483596086502075, 0.60302734375, 0.1708984375, -0.699462890625
335, 522955619, -6.317134380340576, 1.8268635272979736, 7.087073802947998, -0.33033978939056396, -0.8425168991088867, -1.4219785928726196, 0.60498046875, 0.172607421875, -0.701416015625
336, 522972286, -6.306837558746338, 1.819229006767273, 7.096210479736328, -0.35152149200439453, -0.7726584076881409, -1.4670058488845825, 0.6044921875, 0.174072265625, -0.69775390625
337, 522988953, -6.30831241607666, 1.813122034072876, 7.106614589691162, -0.392425000667572, -0.8675662279129028, -1.3963277339935303, 0.603271484375, 0.173095703125, -0.699951171875
338, 523005620, -6.310568332672119, 1.8307011127471924, 7.102853775024414, -0.49802613258361816, -0.9566599130630493, -1.4993418455123901, 0.6044921875, 0.17236328125, -0.697265625
339, 523022287, -6.310704708099365, 1.8189972639083862, 7.10339879989624, -0.3902222514152527, -1.0142884254455566, -1.4886869192123413, 0.603271484375, 0.173095703125, -0.700927734375
340, 523038954, -6.312895774841309, 1.807130217552185, 7.098865032196045, -0.2506842613220215, -0.913912296295166, -1.4305588006973267, 0.603759765625, 0.1728515625, -0.701416015625
341, 523055621, -6.316275596618652, 1.8120700120925903, 7.0853118896484375, -0.47432154417037964, -1.0073473453521729, -1.4939374923706055, 0.60498046875, 0.173095703125, -0.700439453125
342, 523072288, -6.297931671142578, 1.800735592842102, 7.100355625152588, -0.329865962266922, -1.0109845399856567, -1.413705825805664, 0.603759765625, 0.174560546875, -0.701904296875
343, 523088955, -6.306833744049072, 1.8227967023849487, 7.104833126068115, -0.31725171208381653, -1.0280938148498535, -1.3206549882888794, 0.60546875, 0.173583984375, -0.699462890625
344, 523105622, -6.308866500854492, 1.8164207935333252, 7.108443737030029, -0.36604392528533936, -1.047892451286316, -1.4427123069763184, 0.6044921875, 0.17236328125, -0.69677734375
345, 523122289, -6.315622806549072, 1.817190170288086, 7.0880842208862305, -0.3887367844581604, -1.076514720916748, -1.397813081741333, 0.603515625, 0.17236328125, -0.699951171875
346, 523138956, -6.3068718910217285, 1.8068859577178955, 7.101036071777344, -0.36348265409469604, -0.9541755318641663, -1.3610845804214478, 0.6044921875, 0.171875, -0.700927734375
347, 523155623, -6.311593055725098, 1.8042246103286743, 7.07511043548584, -0.3264979422092438, -0.9479004740715027, -1.3481502532958984, 0.60498046875, 0.171875, -0.699462890625
348, 523172290, -6.308389663696289, 1.8046082258224487, 7.107420921325684, -0.2250203788280487, -0.9600280523300171, -1.3203858137130737, 0.60546875, 0.174072265625, -0.701904296875
349, 523188957, -6.308794021606445, 1.801727056503296, 7.105413913726807, -0.3642638027667999, -0.9054346680641174, -1.3447179794311523, 0.6025390625, 0.171875, -0.69775390625
350, 523205624, -6.320957183837891, 1.8097409009933472, 7.093698501586914, -0.29840075969696045, -0.8755316734313965, -1.3290940523147583, 0.60498046875, 0.171875, -0.700439453125
351, 523222291, -6.2905731201171875, 1.8105695247650146, 7.100861072540283, -0.3042404353618622, -0.9223388433456421, -1.3697926998138428, 0.602783203125, 0.173583984375, -0.699462890625
352, 523238958, -6.296827793121338, 1.8003286123275757, 7.10589075088501, -0.33010929822921753, -0.919098973274231, -1.3451277017593384, 0.60498046875, 0.174072265625, -0.700439453125
353, 523255625, -6.30225133895874, 1.83719801902771, 7.114505767822266, -0.30523937940597534, -0.9585554003715515, -1.450985074043274, 0.60400390625, 0.17138671875, -0.700439453125
354, 523272292, -6.322594165802002, 1.8129574060440063, 7.096139430999756, -0.31106624007225037, -0.8361266255378723, -1.4775071144104004, 0.60498046875, 0.173095703125, -0.699951171875
355, 523288959, -6.300364017486572, 1.809860348701477, 7.119061470031738, -0.31540757417678833, -0.866208553314209, -1.3383018970489502, 0.60498046875, 0.172607421875, -0.700439453125
356, 523305626, -6.311157703399658, 1.8393527269363403, 7.103870391845703, -0.28615787625312805, -0.7871678471565247, -1.4115285873413086, 0.60546875, 0.173095703125, -0.699462890625
357, 523322293, -6.303366661071777, 1.804616093635559, 7.110225200653076, -0.27360767126083374, -0.8407624959945679, -1.4432116746902466, 0.60302734375, 0.171875, -0.699951171875
358, 523338960, -6.303756237030029, 1.8093457221984863, 7.111167907714844, -0.30555951595306396, -0.771825909614563, -1.437666416168213, 0.604248046875, 0.174560546875, -0.699951171875
359, 523355627, -6.3157734870910645, 1.8095488548278809, 7.102149963378906, -0.34216004610061646, -0.9244904518127441, -1.4415339231491089, 0.603271484375, 0.1728515625, -0.699951171875
360, 523372294, -6.310422420501709, 1.7964932918548584, 7.094626426696777, -0.3568873703479767, -0.8844448924064636, -1.4894424676895142, 0.603515625, 0.173095703125, -0.699951171875
361, 523388961, -6.3031182289123535, 1.8236770629882812, 7.086633205413818, -0.38877514004707336, -0.986524224281311, -1.5119816064834595, 0.6044921875, 0.173583984375, -0.698974609375
362, 523405628, -6.303932189941406, 1.805354356765747, 7.107677936553955, -0.3835117518901825, -0.9690180420875549, -1.5009936094284058, 0.603759765625, 0.175537109375, -0.698486328125
363, 523422295, -6.305803298950195, 1.7943089008331299, 7.110267639160156, -0.48086559772491455, -1.035098671913147, -1.5648846626281738, 0.602783203125, 0.174072265625, -0.698974609375
364, 523438962, -6.309029579162598, 1.7894386053085327, 7.107545852661133, -0.45760929584503174, -1.0034542083740234, -1.533765196800232, 0.603271484375, 0.173583984375, -0.701904296875
365, 523455629, -6.2966389656066895, 1.8063461780548096, 7.104032516479492, -0.4013765752315521, -1.0134176015853882, -1.563283920288086, 0.6044921875, 0.173583984375, -0.700439453125
366, 523472296, -6.301731109619141, 1.8035707473754883, 7.105941295623779, -0.4210343360900879, -1.1296480894088745, -1.4861127138137817, 0.603271484375, 0.173583984375, -0.700439453125
367, 523488963, -6.296204566955566, 1.8002632856369019, 7.119561672210693, -0.5175685882568359, -1.080971121788025, -1.4972542524337769, 0.603759765625, 0.175048828125, -0.701416015625
368, 523505630, -6.310086250305176, 1.7907410860061646, 7.0695390701293945, -0.49695032835006714, -1.0377880334854126, -1.4989700317382812, 0.604248046875, 0.174560546875, -0.700439453125
369, 523522297, -6.287164211273193, 1.8051550388336182, 7.108247756958008, -0.3834669291973114, -1.0318011045455933, -1.5221562385559082, 0.604248046875, 0.175048828125, -0.698974609375
370, 523538964, -6.303202152252197, 1.78323495388031, 7.116332054138184, -0.3360898792743683, -0.9942978620529175, -1.4025386571884155, 0.60595703125, 0.175048828125, -0.700439453125
371, 523555631, -6.306394100189209, 1.7981534004211426, 7.105774402618408, -0.28505659103393555, -0.87934809923172, -1.4444026947021484, 0.603271484375, 0.174560546875, -0.700439453125
372, 523572298, -6.300838947296143, 1.7989193201065063, 7.120486259460449, -0.14226575195789337, -0.7765257954597473, -1.3775150775909424, 0.602783203125, 0.175537109375, -0.701904296875
373, 523588965, -6.299302101135254, 1.7869919538497925, 7.10335636138916, -0.16274307668209076, -0.8551695942878723, -1.3507496118545532, 0.603271484375, 0.174560546875, -0.699462890625
374, 523605632, -6.300753593444824, 1.8033607006072998, 7.107835292816162, -0.14202240109443665, -0.7665240168571472, -1.3398643732070923, 0.6044921875, 0.173583984375, -0.699951171875
375, 523622299, -6.298283100128174, 1.8109699487686157, 7.109748840332031, -0.0625206008553505, -0.7689571976661682, -1.3108323812484741, 0.602783203125, 0.174560546875, -0.701416015625
376, 523638966, -6.300124645233154, 1.7867262363433838, 7.114004135131836, -0.17478105425834656, -0.8174420595169067, -1.3760422468185425, 0.602294921875, 0.17236328125, -0.701416015625
377, 523655633, -6.308977127075195, 1.8064221143722534, 7.097916603088379, -0.13380075991153717, -0.6694647073745728, -1.3762855529785156, 0.603271484375, 0.175048828125, -0.699951171875
378, 523672300, -6.288601398468018, 1.8157718181610107, 7.107493877410889, -0.07943779230117798, -0.7541019916534424, -1.2942482233047485, 0.603759765625, 0.175048828125, -0.699462890625
379, 523688967, -6.303504467010498, 1.7829794883728027, 7.111075401306152, -0.040480874478816986, -0.6453120112419128, -1.2796361446380615, 0.602783203125, 0.174072265625, -0.698974609375
380, 523705634, -6.309182167053223, 1.7962921857833862, 7.10709285736084, -0.07973233610391617, -0.6668779253959656, -1.3217434883117676, 0.603271484375, 0.173583984375, -0.699951171875
381, 523722301, -6.306461334228516, 1.8020367622375488, 7.125199317932129, -0.1557508260011673, -0.8126654028892517, -1.365746021270752, 0.603271484375, 0.175048828125, -0.702392578125
382, 523738968, -6.29263973236084, 1.8151155710220337, 7.1057562828063965, -0.08644285798072815, -0.7935711145401001, -1.330605387687683, 0.601806640625, 0.174560546875, -0.700927734375
383, 523755635, -6.303555488586426, 1.7970632314682007, 7.099811553955078, -0.11715248972177505, -0.7747585773468018, -1.312292218208313, 0.603759765625, 0.176513671875, -0.699951171875
384, 523772302, -6.291797161102295, 1.8000038862228394, 7.1223978996276855, -0.22087112069129944, -0.8645951151847839, -1.4466564655303955, 0.602783203125, 0.175048828125, -0.6982421875
385, 523788969, -6.30219841003418, 1.7925269603729248, 7.113121509552002, -0.2489810436964035, -0.8099119663238525, -1.4159212112426758, 0.603515625, 0.1728515625, -0.6982421875
386, 523805636, -6.298206329345703, 1.7884230613708496, 7.1134352684021, -0.2273639291524887, -0.8935245871543884, -1.362979769706726, 0.603271484375, 0.175048828125, -0.700927734375
387, 523822303, -6.294389724731445, 1.8122048377990723, 7.112451076507568, -0.2627606689929962, -0.8504056334495544, -1.3327440023422241, 0.603515625, 0.17236328125, -0.699462890625
388, 523838970, -6.298576354980469, 1.825696349143982, 7.12395715713501, -0.17875102162361145, -0.8099631667137146, -1.4298288822174072, 0.602294921875, 0.175537109375, -0.699462890625
389, 523855637, -6.291366100311279, 1.7900562286376953, 7.103757858276367, -0.1971537470817566, -0.6697463989257812, -1.2931594848632812, 0.603271484375, 0.174072265625, -0.698974609375
390, 523872304, -6.285148620605469, 1.8104057312011719, 7.120635986328125, -0.10133665800094604, -0.635041356086731, -1.4248089790344238, 0.60498046875, 0.173583984375, -0.699951171875
391, 523888971, -6.295717716217041, 1.7920451164245605, 7.0900421142578125, -0.06168818846344948, -0.7660886645317078, -1.3472920656204224, 0.600830078125, 0.175048828125, -0.699951171875
392, 523905638, -6.291994571685791, 1.8099218606948853, 7.123074054718018, -0.17522932589054108, -0.7269909381866455, -1.5038498640060425, 0.602294921875, 0.175537109375, -0.697998046875
393, 523922305, -6.3026227951049805, 1.8079341650009155, 7.108048439025879, -0.1309577226638794, -0.6591556072235107, -1.402666687965393, 0.6044921875, 0.175537109375, -0.698974609375
394, 523938972, -6.307516574859619, 1.791198492050171, 7.080039024353027, -0.13387757539749146, -0.650921106338501, -1.4675179719924927, 0.60546875, 0.172607421875, -0.700927734375
395, 523955639, -6.299620628356934, 1.8280236721038818, 7.1065802574157715, -0.3049960136413574, -0.879476010799408, -1.6185046434402466, 0.60498046875, 0.173095703125, -0.700439453125
396, 523972306, -6.308452606201172, 1.8033840656280518, 7.133676052093506, -0.2879379689693451, -0.7959145903587341, -1.5228670835494995, 0.60498046875, 0.174072265625, -0.701416015625
397, 523988973, -6.307063579559326, 1.7762529850006104, 7.10391902923584, -0.05267252027988434, -0.7229440212249756, -1.4141154289245605, 0.602783203125, 0.176025390625, -0.697998046875
398, 524005640, -6.304250240325928, 1.8006821870803833, 7.115299701690674, -0.12483630329370499, -0.6766107082366943, -1.211045265197754, 0.6044921875, 0.174560546875, -0.698486328125
399, 524022307, -6.30895471572876, 1.7915503978729248, 7.106101036071777, 0.038694385439157486, -0.657157838344574, -1.2532933950424194, 0.604248046875, 0.174560546875, -0.700439453125
400, 524038974, -6.306414604187012, 1.8005995750427246, 7.108772277832031, -0.013613150455057621, -0.8020744323730469, -1.2195487022399902, 0.603515625, 0.173583984375, -0.69677734375
401, 524055641, -6.31304407119751, 1.7977533340454102, 7.105780124664307, -0.08823574334383011, -0.7966317534446716, -1.249809980392456, 0.603271484375, 0.176025390625, -0.699462890625
402, 524072308, -6.292548656463623, 1.801539659500122, 7.100257396697998, 0.004751155152916908, -0.8558483123779297, -1.2775229215621948, 0.60400390625, 0.173095703125, -0.700439453125
403, 524088975, -6.316502094268799, 1.792926549911499, 7.1050214767456055, -0.0642622634768486, -0.8259583711624146, -1.2245944738388062, 0.60546875, 0.173583984375, -0.699462890625
404, 524105642, -6.307182788848877, 1.8146642446517944, 7.099717140197754, -0.02931373193860054, -0.8565141558647156, -1.1477433443069458, 0.602294921875, 0.176513671875, -0.697998046875
405, 524122309, -6.309378147125244, 1.7958756685256958, 7.093846321105957, 0.0902271419763565, -0.7611325979232788, -1.052707552909851, 0.60546875, 0.176025390625, -0.699951171875
406, 524138976, -6.289220809936523, 1.8194541931152344, 7.098959922790527, 0.1686660349369049, -0.6611534357070923, -1.1872639656066895, 0.6044921875, 0.173095703125, -0.6982421875
407, 524155643, -6.30568790435791, 1.786381483078003, 7.101531982421875, 0.3228672444820404, -0.45863375067710876, -0.974460780620575, 0.60400390625, 0.1728515625, -0.699951171875
408, 524172310, -6.297565937042236, 1.7904460430145264, 7.1100897789001465, 0.18560880422592163, -0.6344649195671082, -0.9767146110534668, 0.6044921875, 0.174560546875, -0.699462890625
409, 524188977, -6.3278632164001465, 1.815263032913208, 7.097470760345459, 0.08767867833375931, -0.7378635406494141, -1.091293215751648, 0.604248046875, 0.175048828125, -0.698974609375
410, 524205644, -6.293135166168213, 1.8070800304412842, 7.1057515144348145, -0.12787140905857086, -0.9735772013664246, -1.1458353996276855, 0.6044921875, 0.175048828125, -0.698974609375
411, 524222311, -6.311864852905273, 1.8188940286636353, 7.090198040008545, -0.04318301007151604, -0.8922824859619141, -1.165198564529419, 0.603271484375, 0.173095703125, -0.700439453125
412, 524238978, -6.2912373542785645, 1.779168725013733, 7.092713832855225, 0.10773342102766037, -0.7813794612884521, -1.098989725112915, 0.6044921875, 0.171875, -0.701416015625
413, 524255645, -6.2978739738464355, 1.797696828842163, 7.104640483856201, 0.027668118476867676, -0.6468999981880188, -1.0816243886947632, 0.60400390625, 0.1728515625, -0.69775390625
414, 524272312, -6.314547538757324, 1.8196536302566528, 7.1167144775390625, -0.04931725561618805, -0.7824423313140869, -1.1652497053146362, 0.60546875, 0.173095703125, -0.701416015625
415, 524288979, -6.301182270050049, 1.8137762546539307, 7.082347393035889, -0.09256429225206375, -0.847754716873169, -1.2213159799575806, 0.60595703125, 0.172607421875, -0.701904296875
416, 524305646, -6.313357353210449, 1.79121732711792, 7.12154483795166, 0.2025132179260254, -0.5953671932220459, -1.0771548748016357, 0.603515625, 0.173583984375, -0.699462890625
417, 524322313, -6.307007789611816, 1.8257689476013184, 7.110988616943359, 0.19507914781570435, -0.622708797454834, -1.032665729522705, 0.60205078125, 0.17138671875, -0.69873046875
418, 524338980, -6.307982921600342, 1.8055224418640137, 7.109729290008545, -0.005903727374970913, -0.6893274188041687, -1.0798571109771729, 0.603759765625, 0.175048828125, -0.702392578125
419, 524355647, -6.293476581573486, 1.8304245471954346, 7.088425636291504, -0.0626230537891388, -0.9522800445556641, -1.2712862491607666, 0.602783203125, 0.173583984375, -0.699951171875
420, 524372314, -6.307555675506592, 1.8331286907196045, 7.095522880554199, -0.27759045362472534, -0.9490273594856262, -1.3128173351287842, 0.602783203125, 0.17333984375, -0.6982421875
421, 524388981, -6.317986965179443, 1.8136931657791138, 7.109416961669922, -0.3161887526512146, -0.9428162574768066, -1.3243687152862549, 0.6044921875, 0.173095703125, -0.699462890625
422, 524405648, -6.296273231506348, 1.8181877136230469, 7.118688106536865, -0.19550174474716187, -0.9476443529129028, -1.4078917503356934, 0.60400390625, 0.173095703125, -0.69873046875
423, 524422315, -6.299973011016846, 1.8214186429977417, 7.127574920654297, -0.24333344399929047, -0.9744608402252197, -1.3010226488113403, 0.60546875, 0.171875, -0.700439453125
424, 524438982, -6.3013129234313965, 1.8057291507720947, 7.113553524017334, -0.24930121004581451, -0.9851541519165039, -1.3071825504302979, 0.6044921875, 0.171875, -0.69873046875
425, 524455649, -6.290841102600098, 1.8135374784469604, 7.106201648712158, -0.28535106778144836, -0.9052936434745789, -1.3020471334457397, 0.60400390625, 0.173583984375, -0.699951171875
426, 524472316, -6.3048858642578125, 1.8071905374526978, 7.096161842346191, -0.20186647772789001, -1.0039921998977661, -1.3419004678726196, 0.6044921875, 0.173095703125, -0.699951171875
427, 524488983, -6.299361705780029, 1.8131870031356812, 7.117677688598633, -0.2627606987953186, -0.9912371635437012, -1.404843807220459, 0.603271484375, 0.173583984375, -0.699462890625
428, 524505650, -6.294327735900879, 1.8158107995986938, 7.109134674072266, -0.3028189241886139, -0.8440664410591125, -1.302290439605713, 0.60400390625, 0.174560546875, -0.698486328125
429, 524522317, -6.2902350425720215, 1.814147710800171, 7.086069107055664, -0.3057003617286682, -0.8596134781837463, -1.3942784070968628, 0.602294921875, 0.173583984375, -0.701416015625
430, 524538984, -6.285022735595703, 1.8133056163787842, 7.083141326904297, -0.13081686198711395, -0.8198752999305725, -1.387196660041809, 0.60400390625, 0.17236328125, -0.698974609375
431, 524555651, -6.2916669845581055, 1.810192346572876, 7.110396862030029, -0.16516350209712982, -0.8061981201171875, -1.3593555688858032, 0.603271484375, 0.174560546875, -0.700927734375
432, 524572318, -6.301978588104248, 1.812932014465332, 7.091191291809082, -0.23435622453689575, -0.7702507972717285, -1.3291711807250977, 0.6025390625, 0.171875, -0.699462890625
433, 524588985, -6.295388698577881, 1.803391933441162, 7.080084800720215, -0.11606395244598389, -0.7447533011436462, -1.29999840259552, 0.603515625, 0.173583984375, -0.698486328125
434, 524605652, -6.3035383224487305, 1.811964750289917, 7.0933732986450195, -0.10081158578395844, -0.754486083984375, -1.3106145858764648, 0.603271484375, 0.173095703125, -0.700927734375
435, 524622319, -6.3025221824646, 1.8083361387252808, 7.108731746673584, -0.23599539697170258, -0.7677662372589111, -1.2607978582382202, 0.603759765625, 0.174560546875, -0.698486328125
436, 524638986, -6.296546936035156, 1.8147188425064087, 7.091410160064697, -0.18949556350708008, -0.7902542948722839, -1.353247046470642, 0.603759765625, 0.173095703125, -0.700439453125
437, 524655653, -6.28596305847168, 1.8230443000793457, 7.090823650360107, -0.2122524231672287, -0.8450909852981567, -1.3110500574111938, 0.60400390625, 0.174560546875, -0.697265625
438, 524672320, -6.313019752502441, 1.808080792427063, 7.11112642288208, -0.17429441213607788, -0.7415516376495361, -1.3485724925994873, 0.6044921875, 0.173583984375, -0.700439453125
439, 524688987, -6.295863151550293, 1.8159042596817017, 7.0956573486328125, -0.18479561805725098, -0.7917141318321228, -1.317875862121582, 0.6025390625, 0.17138671875, -0.698974609375
440, 524705654, -6.293342113494873, 1.8216021060943604, 7.096131324768066, 0.015924694016575813, -0.6236563920974731, -1.3226399421691895, 0.603759765625, 0.175537109375, -0.699462890625
441, 524722321, -6.286309719085693, 1.8364758491516113, 7.110095024108887, -0.07071665674448013, -0.6511260271072388, -1.19925057888031, 0.603271484375, 0.174072265625, -0.701904296875
442, 524738988, -6.293238162994385, 1.8256430625915527, 7.099531173706055, -0.11592307686805725, -0.6854470372200012, -1.3596630096435547, 0.603271484375, 0.174072265625, -0.699462890625
443, 524755655, -6.299977779388428, 1.8117866516113281, 7.123665809631348, 0.048862628638744354, -0.5991834998130798, -1.284361720085144, 0.60498046875, 0.17138671875, -0.699462890625
444, 524772322, -6.2942304611206055, 1.8315833806991577, 7.109137535095215, -0.06892377883195877, -0.6468743681907654, -1.4015653133392334, 0.6044921875, 0.173583984375, -0.699462890625
445, 524788989, -6.293397903442383, 1.826219081878662, 7.101251125335693, -0.017903277650475502, -0.6201090812683105, -1.3994905948638916, 0.6044921875, 0.173095703125, -0.699462890625
446, 524805656, -6.3128509521484375, 1.8201106786727905, 7.094697952270508, -0.13796280324459076, -0.6847043037414551, -1.478441834449768, 0.60400390625, 0.1728515625, -0.700439453125
447, 524822323, -6.30672550201416, 1.8143032789230347, 7.078051567077637, -0.06878291070461273, -0.5720596313476562, -1.41543447971344, 0.60498046875, 0.172607421875, -0.698974609375
448, 524838990, -6.296846866607666, 1.8150838613510132, 7.0874457359313965, -0.07606972008943558, -0.6122459769248962, -1.3848402500152588, 0.60498046875, 0.174072265625, -0.700439453125
449, 524855657, -6.311576843261719, 1.8165208101272583, 7.092222213745117, -0.088018037378788, -0.5380588173866272, -1.3385069370269775, 0.6064453125, 0.171875, -0.700927734375
450, 524872324, -6.311426162719727, 1.820172905921936, 7.109166622161865, -0.09360161423683167, -0.6461572051048279, -1.3729687929153442, 0.603515625, 0.17236328125, -0.698974609375
451, 524888991, -6.307159423828125, 1.8244903087615967, 7.116948127746582, -0.1358753889799118, -0.5639532208442688, -1.475573182106018, 0.601806640625, 0.17236328125, -0.699951171875
452, 524905658, -6.314389705657959, 1.8156778812408447, 7.113791465759277, -0.172578364610672, -0.5578445792198181, -1.4838972091674805, 0.6044921875, 0.173583984375, -0.6982421875
453, 524922325, -6.309252738952637, 1.8064814805984497, 7.086634159088135, -0.17567750811576843, -0.5138804316520691, -1.4357197284698486, 0.603271484375, 0.174072265625, -0.698486328125
454, 524938992, -6.310170650482178, 1.81354820728302, 7.089206218719482, -0.08694231510162354, -0.5516847968101501, -1.4060859680175781, 0.60498046875, 0.17236328125, -0.701416015625
455, 524955659, -6.304188251495361, 1.8236608505249023, 7.083846092224121, -0.07647953182458878, -0.6114135980606079, -1.4274982213974, 0.6044921875, 0.1728515625, -0.699462890625
456, 524972326, -6.312811851501465, 1.8165678977966309, 7.092372417449951, -0.12687250971794128, -0.597339391708374, -1.452957272529602, 0.6044921875, 0.174072265625, -0.69873046875
457, 524988993, -6.303033828735352, 1.8258157968521118, 7.089082717895508, -0.16470246016979218, -0.6572090983390808, -1.3786035776138306, 0.603515625, 0.173583984375, -0.6982421875
458, 525005660, -6.30011510848999, 1.819970965385437, 7.113646507263184, -0.176036074757576, -0.7242118716239929, -1.4674155712127686, 0.60498046875, 0.172607421875, -0.6982421875
459, 525022327, -6.309751033782959, 1.821201205253601, 7.079344749450684, -0.19368325173854828, -0.7750146985054016, -1.3812929391860962, 0.602783203125, 0.17333984375, -0.698486328125
460, 525038994, -6.314254283905029, 1.8149844408035278, 7.095641613006592, -0.1981782466173172, -0.772235631942749, -1.4431731700897217, 0.6044921875, 0.171875, -0.699462890625
461, 525055661, -6.310545444488525, 1.8308041095733643, 7.0911784172058105, -0.2977220118045807, -0.7764361500740051, -1.3703947067260742, 0.6044921875, 0.173095703125, -0.700927734375
462, 525072328, -6.312681198120117, 1.8205360174179077, 7.1019062995910645, -0.24120759963989258, -0.8697561025619507, -1.3812289237976074, 0.602294921875, 0.1728515625, -0.699462890625
463, 525088995, -6.319933891296387, 1.8201018571853638, 7.077230453491211, -0.2316540628671646, -0.7722741961479187, -1.3812673091888428, 0.602783203125, 0.174072265625, -0.698974609375
464, 525105662, -6.307727813720703, 1.8044713735580444, 7.104835033416748, -0.2696121037006378, -0.7845938205718994, -1.340773582458496, 0.602294921875, 0.1728515625, -0.699462890625
465, 525122329, -6.293453693389893, 1.8257945775985718, 7.08717679977417, -0.23523984849452972, -0.7544476985931396, -1.329734444618225, 0.60400390625, 0.173095703125, -0.69873046875
466, 525138996, -6.309454441070557, 1.820748209953308, 7.096531391143799, -0.270815908908844, -0.8246777653694153, -1.437077522277832, 0.603759765625, 0.173583984375, -0.700439453125
467, 525155663, -6.3062567710876465, 1.8192239999771118, 7.1006951332092285, -0.3394578993320465, -0.8565269708633423, -1.4028202295303345, 0.603515625, 0.174072265625, -0.6982421875
468, 525172330, -6.317410945892334, 1.8150153160095215, 7.0870537757873535, -0.4028109312057495, -1.0298866033554077, -1.5010449886322021, 0.60302734375, 0.1728515625, -0.699462890625
469, 525188997, -6.314027309417725, 1.820266842842102, 7.071465492248535, -0.5044804811477661, -1.2184345722198486, -1.4838972091674805, 0.60302734375, 0.173095703125, -0.6982421875
470, 525205664, -6.315108299255371, 1.7849727869033813, 7.097805023193359, -0.3329395353794098, -1.1008851528167725, -1.3341400623321533, 0.60546875, 0.174560546875, -0.69873046875
471, 525222331, -6.304202079772949, 1.815738558769226, 7.100017070770264, -0.18333570659160614, -0.9586962461471558, -1.2790855169296265, 0.603759765625, 0.174560546875, -0.698486328125
472, 525238998, -6.297555923461914, 1.819279432296753, 7.100387096405029, -0.1150650605559349, -0.9587090611457825, -1.2827095985412598, 0.603515625, 0.17236328125, -0.69775390625
473, 525255665, -6.29560661315918, 1.7994461059570312, 7.115477561950684, -0.102809377014637, -0.9865626692771912, -1.2058970928192139, 0.6044921875, 0.1728515625, -0.69873046875
474, 525272332, -6.303121089935303, 1.8235255479812622, 7.10709285736084, -0.17405109107494354, -1.008461594581604, -1.1425697803497314, 0.603515625, 0.1728515625, -0.69677734375
475, 525288999, -6.298144817352295, 1.8214364051818848, 7.087562084197998, -0.2737997770309448, -0.9282553791999817, -1.247671365737915, 0.60302734375, 0.1728515625, -0.69873046875
476, 525305666, -6.299691677093506, 1.8159608840942383, 7.09017276763916, -0.21651697158813477, -0.9935550689697266, -1.2571353912353516, 0.603515625, 0.173583984375, -0.698486328125
477, 525322333, -6.305805206298828, 1.7977124452590942, 7.129694938659668, -0.26338818669319153, -1.0264416933059692, -1.2775359153747559, 0.603515625, 0.174072265625, -0.6962890625
478, 525339000, -6.301976203918457, 1.813899278640747, 7.072154998779297, -0.19190317392349243, -1.0065151453018188, -1.2610670328140259, 0.604248046875, 0.174560546875, -0.701416015625
479, 525355667, -6.302900791168213, 1.8049190044403076, 7.117626667022705, -0.1207638680934906, -0.9976785778999329, -1.1168032884597778, 0.60546875, 0.173583984375, -0.69873046875
480, 525372334, -6.293629169464111, 1.831773042678833, 7.1237382888793945, -0.1877795159816742, -1.0419631004333496, -1.1646863222122192, 0.60498046875, 0.174072265625, -0.6982421875
481, 525389001, -6.31204080581665, 1.8001171350479126, 7.083175182342529, -0.07878465950489044, -0.872035562992096, -1.2566230297088623, 0.60400390625, 0.175048828125, -0.698486328125
482, 525405668, -6.288347244262695, 1.7972567081451416, 7.117470741271973, -0.020477354526519775, -0.9603994488716125, -1.163917899131775, 0.602783203125, 0.17333984375, -0.701904296875
483, 525422335, -6.302651882171631, 1.8332017660140991, 7.119612693786621, -0.0921032577753067, -0.9435973763465881, -1.1105153560638428, 0.6044921875, 0.171875, -0.700439453125
484, 525439002, -6.309006690979004, 1.8506975173950195, 7.095514297485352, -0.2901150584220886, -1.1262544393539429, -1.3028028011322021, 0.602783203125, 0.173583984375, -0.700439453125
485, 525455669, -6.288613796234131, 1.791170597076416, 7.141969203948975, -0.3081207871437073, -1.0801773071289062, -1.3739805221557617, 0.601806640625, 0.1728515625, -0.698974609375
486, 525472336, -6.289129257202148, 1.8062645196914673, 7.117330551147461, -0.23064236342906952, -0.87361079454422, -1.3062350749969482, 0.60400390625, 0.173095703125, -0.699462890625
487, 525489003, -6.292324542999268, 1.8137531280517578, 7.1050920486450195, -0.09766121953725815, -0.7636170387268066, -1.2622579336166382, 0.601806640625, 0.1728515625, -0.699462890625
488, 525505670, -6.309136390686035, 1.8133504390716553, 7.113326072692871, -0.08931148797273636, -0.6797738671302795, -1.2228399515151978, 0.6044921875, 0.1728515625, -0.700439453125
489, 525522337, -6.311022758483887, 1.819174885749817, 7.107243061065674, -0.18437302112579346, -0.8860201239585876, -1.2440472841262817, 0.60400390625, 0.1728515625, -0.701416015625
490, 525539004, -6.29128360748291, 1.8325194120407104, 7.116785049438477, -0.2334853559732437, -0.9754596948623657, -1.2709405422210693, 0.602294921875, 0.174072265625, -0.700927734375
491, 525555671, -6.314137935638428, 1.8197447061538696, 7.113091945648193, -0.2464454174041748, -1.0450749397277832, -1.1799770593643188, 0.60400390625, 0.1728515625, -0.69775390625
492, 525572338, -6.289940357208252, 1.8209831714630127, 7.0988006591796875, -0.13033021986484528, -0.9326352477073669, -1.1852660179138184, 0.60498046875, 0.171875, -0.702392578125
493, 525589005, -6.291863441467285, 1.8198024034500122, 7.118264198303223, -0.061918705701828, -0.8698457479476929, -1.2625268697738647, 0.603515625, 0.17236328125, -0.700439453125
494, 525605672, -6.295897006988525, 1.7783119678497314, 7.1067986488342285, -0.09862169623374939, -0.8985190987586975, -1.15226411819458, 0.60302734375, 0.171875, -0.6982421875
495, 525622339, -6.285609722137451, 1.763298749923706, 7.100961685180664, 0.10669611394405365, -0.7522321939468384, -0.9341078996658325, 0.601318359375, 0.173583984375, -0.699462890625
496, 525639006, -6.310922145843506, 1.8487800359725952, 7.10263204574585, 0.24978145956993103, -0.902745246887207, -0.7718515396118164, 0.603515625, 0.171875, -0.700927734375
497, 525655673, -6.288784503936768, 1.8019928932189941, 7.068876266479492, 0.2649249732494354, -1.0790246725082397, -0.6538410186767578, 0.6044921875, 0.173095703125, -0.701904296875
498, 525672340, -6.285025119781494, 1.8108142614364624, 7.1250081062316895, 0.6754900813102722, -0.7398356199264526, -0.3811425566673279, 0.601806640625, 0.171875, -0.701416015625
499, 525689007, -6.297143459320068, 1.8496099710464478, 7.096156597137451, 0.8548558354377747, -0.4610925614833832, -0.3141653537750244, 0.602294921875, 0.17333984375, -0.700927734375
500, 525705674, -6.281578540802002, 1.874927282333374, 7.124174118041992, 0.7361794114112854, -0.3254989683628082, -0.5040322542190552, 0.6025390625, 0.17138671875, -0.699951171875
501, 525722341, -6.297382831573486, 1.8913780450820923, 7.09492826461792, 0.11321455240249634, -0.5387247204780579, -1.1113094091415405, 0.602294921875, 0.171875, -0.699462890625
502, 525739008, -6.303947925567627, 1.8718695640563965, 7.0958051681518555, -0.15363778173923492, -0.6176246404647827, -1.5097407102584839, 0.603515625, 0.1708984375, -0.701416015625
503, 525755675, -6.287610054016113, 1.8339056968688965, 7.117220401763916, -0.3365252614021301, -0.5119850039482117, -1.630875825881958, 0.603515625, 0.171875, -0.700439453125
504, 525772342, -6.298701286315918, 1.8256326913833618, 7.112006664276123, -0.3020634055137634, -0.44763314723968506, -1.5912530422210693, 0.60498046875, 0.171875, -0.702392578125
505, 525789009, -6.3033857345581055, 1.8122670650482178, 7.108717918395996, -0.3013077974319458, -0.4979877769947052, -1.484499216079712, 0.60400390625, 0.17138671875, -0.700439453125
506, 525805676, -6.31770658493042, 1.8328765630722046, 7.097891330718994, -0.28045904636383057, -0.5631463527679443, -1.427754282951355, 0.60302734375, 0.169921875, -0.69873046875
507, 525822343, -6.294557094573975, 1.8391435146331787, 7.093277454376221, -0.404347687959671, -0.7098047137260437, -1.4319419860839844, 0.60400390625, 0.17041015625, -0.699462890625
508, 525839010, -6.307821273803711, 1.8396347761154175, 7.0891618728637695, -0.31379398703575134, -0.7929564118385315, -1.403832197189331, 0.601806640625, 0.169921875, -0.700927734375
509, 525855677, -6.302259922027588, 1.8305442333221436, 7.097762584686279, -0.30672487616539, -0.8107700347900391, -1.4159212112426758, 0.603515625, 0.169921875, -0.700439453125
510, 525872344, -6.298561096191406, 1.8076446056365967, 7.101294994354248, -0.46816176176071167, -0.8728552460670471, -1.4109653234481812, 0.60302734375, 0.17138671875, -0.700927734375
511, 525889011, -6.324686050415039, 1.80366849899292, 7.095607280731201, -0.2901791036128998, -0.8786692023277283, -1.2947603464126587, 0.603515625, 0.169921875, -0.700439453125
512, 525905678, -6.304172039031982, 1.8292202949523926, 7.094184875488281, -0.36338016390800476, -0.9472472667694092, -1.1065069437026978, 0.602294921875, 0.17236328125, -0.6982421875
513, 525922345, -6.296041488647461, 1.7971208095550537, 7.100788593292236, -0.2765146791934967, -1.1650831699371338, -1.071648120880127, 0.602294921875, 0.1708984375, -0.700927734375
514, 525939012, -6.286101818084717, 1.7816592454910278, 7.085940361022949, -0.30340802669525146, -1.36844801902771, -0.8138178586959839, 0.6044921875, 0.17041015625, -0.699462890625
515, 525955679, -6.298444747924805, 1.7088578939437866, 7.123678207397461, 0.6379930973052979, -1.1060203313827515, -0.012998445890843868, 0.6044921875, 0.17138671875, -0.700927734375
516, 525972346, -6.310760498046875, 1.8450182676315308, 7.103524684906006, 1.1774736642837524, -1.0902559757232666, 0.5428804159164429, 0.603515625, 0.1708984375, -0.700927734375
517, 525989013, -6.275500774383545, 1.8575550317764282, 7.083255290985107, 0.8730087876319885, -1.6479530334472656, 0.4228912889957428, 0.60302734375, 0.17138671875, -0.698974609375
518, 526005680, -6.281489372253418, 1.7801895141601562, 7.094892501831055, 0.9403253793716431, -1.7775083780288696, 0.5205716490745544, 0.6025390625, 0.17041015625, -0.69775390625
519, 526022347, -6.303008556365967, 1.840144395828247, 7.093877792358398, 1.4353420734405518, -1.6456286907196045, 0.9987736940383911, 0.60302734375, 0.16845703125, -0.700439453125
520, 526039014, -6.294347286224365, 1.9638326168060303, 7.120263576507568, 1.1895498037338257, -1.7581838369369507, 0.5575052499771118, 0.6015625, 0.165283203125, -0.702880859375
521, 526055681, -6.273383617401123, 1.9773277044296265, 7.100431442260742, 0.5991514325141907, -1.9857908487319946, -0.06314811110496521, 0.60205078125, 0.16845703125, -0.699951171875
522, 526072348, -6.250046253204346, 1.9515944719314575, 7.1297502517700195, -0.002689333399757743, -2.1039297580718994, -0.6497942209243774, 0.60302734375, 0.166748046875, -0.701416015625
523, 526089015, -6.256361484527588, 1.928761601448059, 7.133054733276367, -0.44526395201683044, -1.860647439956665, -1.123501181602478, 0.600830078125, 0.168212890625, -0.700927734375
524, 526105682, -6.266284465789795, 1.9072411060333252, 7.136997699737549, -0.7517583966255188, -1.6040979623794556, -1.5229823589324951, 0.602783203125, 0.1708984375, -0.702880859375
525, 526122349, -6.258549213409424, 1.9088534116744995, 7.1295013427734375, -1.0074883699417114, -1.2366580963134766, -1.7355166673660278, 0.6015625, 0.167236328125, -0.702880859375
526, 526139016, -6.269615650177002, 1.897237777709961, 7.1462249755859375, -1.1023322343826294, -0.7748866081237793, -2.0706844329833984, 0.6015625, 0.167236328125, -0.702880859375
527, 526155683, -6.2564191818237305, 1.9118824005126953, 7.117984294891357, -1.2237106561660767, -0.1359522044658661, -2.4159178733825684, 0.601806640625, 0.1689453125, -0.703369140625
528, 526172350, -6.26555871963501, 1.9413857460021973, 7.110653400421143, -1.0486478805541992, 0.9856982231140137, -2.8421387672424316, 0.60302734375, 0.169921875, -0.702392578125
529, 526189017, -6.204644680023193, 1.9621461629867554, 7.144060134887695, -0.48419538140296936, 3.5972719192504883, -3.8252828121185303, 0.6015625, 0.168212890625, -0.700927734375
530, 526205684, -6.185216426849365, 1.8108787536621094, 7.1749396324157715, 1.1842995882034302, 8.934551239013672, -4.610812664031982, 0.60498046875, 0.169921875, -0.697265625
531, 526222351, -6.211662769317627, 1.5920591354370117, 7.277390956878662, 5.132554054260254, 16.251588821411133, -3.8442656993865967, 0.60693359375, 0.169921875, -0.69775390625
532, 526239018, -6.323444366455078, 0.46663162112236023, 8.041584014892578, 11.406949043273926, 25.706315994262695, -0.596982479095459, 0.608154296875, 0.1689453125, -0.68896484375
533, 526255685, -6.9318389892578125, -1.2978057861328125, 8.693822860717773, 22.114830017089844, 34.29600143432617, 11.426365852355957, 0.614990234375, 0.1650390625, -0.681884765625
534, 526272352, -5.044087886810303, -0.7132647037506104, 9.59750747680664, 49.411537170410156, 47.169612884521484, 34.37295913696289, 0.619873046875, 0.151123046875, -0.66796875
535, 526289019, 4.618032455444336, -2.643251895904541, 17.413776397705078, -27.184106826782227, 74.32535552978516, 50.21627426147461, 0.624267578125, 0.139892578125, -0.655029296875
536, 526305686, 2.8119072914123535, -18.393997192382812, 27.506988525390625, -109.05188751220703, 81.2587890625, 46.26359176635742, 0.630859375, 0.137451171875, -0.633056640625
537, 526322353, -0.8355830907821655, -20.508338928222656, 32.22528076171875, -39.956233978271484, -9.210585594177246, -2.6958165168762207, 0.6337890625, 0.136474609375, -0.6298828125
538, 526339020, -2.976214647293091, -19.090723037719727, 33.31383514404297, 10.084074974060059, -135.27667236328125, -89.5792007446289, 0.624267578125, 0.147216796875, -0.656494140625
539, 526355687, -3.7045841217041016, -14.222918510437012, 29.92447853088379, 13.102397918701172, -218.5259552001953, -150.8253631591797, 0.601806640625, 0.174072265625, -0.702880859375
540, 526372354, -6.301897048950195, -9.641995429992676, 26.492267608642578, -8.833575248718262, -255.5149688720703, -166.9452362060547, 0.570068359375, 0.206298828125, -0.759033203125
541, 526389021, -8.100403785705566, -6.193746566772461, 22.97255516052246, -38.6175537109375, -256.0741882324219, -160.4379119873047, 0.5302734375, 0.242431640625, -0.819091796875
542, 526405688, -10.746520042419434, -4.395634174346924, 20.76823616027832, -60.452640533447266, -233.97914123535156, -156.70346069335938, 0.491455078125, 0.27734375, -0.86865234375
543, 526422355, -13.930633544921875, -3.2810757160186768, 19.618560791015625, -57.44402313232422, -221.1587371826172, -167.13131713867188, 0.450927734375, 0.317626953125, -0.915771484375
544, 526439022, -15.295434951782227, -0.9336463809013367, 18.153459548950195, -33.669368743896484, -222.82545471191406, -176.1609344482422, 0.401123046875, 0.354736328125, -0.956298828125
545, 526455689, -15.68110466003418, 2.9512922763824463, 16.32311248779297, -21.162425994873047, -232.35450744628906, -170.65846252441406, 0.347900390625, 0.38671875, -1.001708984375
546, 526472356, -14.00404167175293, 5.889883518218994, 13.678340911865234, -31.793676376342773, -242.99945068359375, -152.63519287109375, 0.28515625, 0.41455078125, -1.040771484375
547, 526489023, -11.658559799194336, 7.335939407348633, 10.923575401306152, -44.69491958618164, -233.99075317382812, -131.8533477783203, 0.218017578125, 0.44384765625, -1.070068359375
548, 526505690, -13.089977264404297, 9.870270729064941, 9.28211498260498, -45.54505920410156, -212.20469665527344, -114.94685363769531, 0.157470703125, 0.46630859375, -1.09423828125
549, 526522357, -15.782557487487793, 13.303210258483887, 5.290431022644043, -48.84267044067383, -197.49746704101562, -103.42129516601562, 0.09716796875, 0.4892578125, -1.11181640625
550, 526539024, -23.695087432861328, 14.256267547607422, -0.19144272804260254, -35.5887451171875, -198.46029663085938, -114.33659362792969, 0.036376953125, 0.50927734375, -1.12353515625
551, 526555691, -27.727933883666992, 9.43550968170166, -9.332530975341797, 79.5662841796875, -224.51690673828125, -114.05069732666016, -0.029052734375, 0.5048828125, -1.138916015625
552, 526572358, -24.60359764099121, 9.835115432739258, -21.501680374145508, 210.84361267089844, -206.73056030273438, -72.30976104736328, -0.0947265625, 0.458251953125, -1.159912109375
553, 526589025, -22.462631225585938, 10.029834747314453, -28.769256591796875, 183.17718505859375, -102.00576782226562, -29.478239059448242, -0.1357421875, 0.404541015625, -1.174560546875
554, 526605692, -22.83673858642578, 8.081296920776367, -27.07366180419922, 46.79519271850586, 26.65309715270996, 0.866467297077179, -0.138916015625, 0.380859375, -1.178955078125
555, 526622359, -21.885976791381836, 5.044680118560791, -19.943777084350586, -55.892433166503906, 114.63723754882812, 18.023603439331055, -0.1123046875, 0.389892578125, -1.17578125
556, 526639026, -21.01576042175293, 5.770389080047607, -12.405893325805664, -71.82669830322266, 167.47181701660156, 37.568138122558594, -0.0673828125, 0.408447265625, -1.169921875
557, 526655693, -20.137155532836914, 7.797932147979736, -6.086521625518799, -66.137939453125, 199.78176879882812, 66.84906768798828, -0.009521484375, 0.426025390625, -1.155517578125
558, 526672360, -19.041364669799805, 8.381217956542969, -1.3523353338241577, -68.37408447265625, 225.95867919921875, 99.25747680664062, 0.05322265625, 0.436767578125, -1.1376953125
559, 526689027, -18.067792892456055, 7.014224529266357, 2.626178503036499, -65.30160522460938, 249.10304260253906, 117.94955444335938, 0.124267578125, 0.443359375, -1.109130859375
560, 526705694, -18.06688117980957, 6.371203422546387, 7.248752117156982, -41.29090118408203, 264.1126403808594, 124.24750518798828, 0.19873046875, 0.44189453125, -1.075927734375
561, 526722361, -18.527362823486328, 6.453769207000732, 11.507010459899902, -17.95391845703125, 259.7133483886719, 126.00836181640625, 0.272705078125, 0.4296875, -1.037353515625
562, 526739028, -17.321256637573242, 5.030025959014893, 13.962597846984863, 1.6863148212432861, 249.8826904296875, 127.50920867919922, 0.33740234375, 0.413818359375, -0.995361328125
563, 526755695, -16.515844345092773, 2.7154879570007324, 16.033252716064453, 30.100236892700195, 246.6023712158203, 124.46021270751953, 0.398681640625, 0.38916015625, -0.951416015625
564, 526772362, -13.302709579467773, 0.07608979940414429, 18.428831100463867, 68.86837005615234, 259.54345703125, 130.07012939453125, 0.448974609375, 0.3564453125, -0.904296875
565, 526789029, -10.771697998046875, 0.4844633638858795, 22.730741500854492, 73.75929260253906, 274.5549621582031, 138.21926879882812, 0.50341796875, 0.31689453125, -0.847900390625
566, 526805696, -7.174088954925537, -2.845667839050293, 26.951412200927734, 53.75278854370117, 266.22625732421875, 147.2029571533203, 0.5458984375, 0.278564453125, -0.78955078125
567, 526822363, -3.58599853515625, -6.289041519165039, 30.444421768188477, 50.14442825317383, 229.79852294921875, 156.0402069091797, 0.58154296875, 0.2392578125, -0.732666015625
568, 526839030, -0.753019392490387, -8.620722770690918, 32.2838249206543, 33.09752655029297, 164.64085388183594, 149.9540252685547, 0.60693359375, 0.203369140625, -0.6923828125
569, 526855697, -0.9637942314147949, -11.088568687438965, 31.485109329223633, 1.337748646736145, 73.902587890625, 119.75089263916016, 0.619873046875, 0.177978515625, -0.670166015625
570, 526872364, -0.023125292733311653, -11.388862609863281, 26.632904052734375, -3.727816104888916, -7.476251602172852, 77.50341796875, 0.62060546875, 0.161376953125, -0.66943359375
571, 526889031, 0.8414497971534729, -8.141712188720703, 20.593521118164062, 5.376899719238281, -48.02402877807617, 45.56155776977539, 0.61328125, 0.150634765625, -0.67919921875
572, 526905698, -0.33714935183525085, -6.641371726989746, 15.721624374389648, 8.790427207946777, -48.89558410644531, 22.163375854492188, 0.609619140625, 0.144775390625, -0.69189453125
573, 526922365, -0.8779489398002625, -7.860067367553711, 12.440089225769043, 2.9176180362701416, -21.950607299804688, -5.29530668258667, 0.60546875, 0.14697265625, -0.6982421875
574, 526939032, -3.205575466156006, -9.218888282775879, 10.894089698791504, -1.787391185760498, 1.6115143299102783, -38.22941207885742, 0.60986328125, 0.15673828125, -0.701171875
575, 526955699, -7.6480712890625, -22.72376251220703, 15.543042182922363, 43.420013427734375, -44.3872184753418, -154.02755737304688, 0.608642578125, 0.1806640625, -0.70849609375
576, 526972366, 0.45519301295280457, 2.1769983768463135, 3.6940102577209473, 61.746864318847656, -4.705719947814941, -157.46978759765625, 0.6044921875, 0.209228515625, -0.71337890625
577, 526989033, -3.2993900775909424, 2.479076623916626, 6.274595260620117, 5.871649742126465, 65.87214660644531, -107.51141357421875, 0.60986328125, 0.23291015625, -0.700927734375
578, 527005700, -17.493364334106445, 2.6806423664093018, 18.57117462158203, 31.525432586669922, 52.06083679199219, -4.235525131225586, 0.619873046875, 0.241455078125, -0.682861328125
579, 527022367, -4.514551162719727, 4.585841655731201, 3.722130537033081, -1.8031245470046997, -19.05350112915039, 13.266026496887207, 0.618408203125, 0.236083984375, -0.68701171875
580, 527039034, -7.1652421951293945, 0.88143390417099, 7.253012180328369, 8.871875762939453, -13.466679573059082, 14.451956748962402, 0.6171875, 0.22998046875, -0.689453125
581, 527055701, -6.6623148918151855, 2.7619190216064453, 7.00809383392334, 8.15771198272705, -10.777823448181152, 11.700900077819824, 0.615478515625, 0.22705078125, -0.691650390625
582, 527072368, -6.567773818969727, 2.1090621948242188, 7.2399067878723145, 3.990389108657837, -3.8422513008117676, 5.417579650878906, 0.614013671875, 0.222412109375, -0.693115234375
583, 527089035, -6.5510053634643555, 2.6997430324554443, 6.8140387535095215, -0.8935245871543884, -2.3564836978912354, -2.592863082885742, 0.614013671875, 0.223388671875, -0.693603515625
584, 527105702, -6.550599098205566, 2.0263805389404297, 6.785157203674316, -5.049622535705566, -4.786336421966553, -8.396754264831543, 0.614013671875, 0.225341796875, -0.695556640625
585, 527122369, -6.516176700592041, 1.4094332456588745, 6.7849578857421875, -6.322934150695801, -7.5061516761779785, -9.000423431396484, 0.614013671875, 0.225830078125, -0.696044921875
586, 527139036, -6.499884605407715, 0.8953613042831421, 6.891263008117676, -4.534474849700928, -9.981952667236328, -4.875636100769043, 0.613525390625, 0.228515625, -0.69677734375
587, 527155703, -6.454275131225586, 1.0041316747665405, 7.047555446624756, -1.309641718864441, -10.0881929397583, 0.6465351581573486, 0.6123046875, 0.22900390625, -0.70068359375
588, 527172370, -6.4206743240356445, 1.2836833000183105, 7.067795276641846, 2.0231411457061768, -6.707121849060059, 4.6217803955078125, 0.61083984375, 0.227783203125, -0.69970703125
589, 527189037, -6.482516765594482, 1.781747817993164, 7.087083339691162, 4.95074987411499, -1.8131104707717896, 6.0460004806518555, 0.6083984375, 0.22412109375, -0.703369140625
590, 527205704, -6.507061958312988, 1.9581806659698486, 7.044801235198975, 5.013974189758301, 1.5872381925582886, 4.954347610473633, 0.6083984375, 0.2236328125, -0.702880859375
591, 527222371, -6.517110824584961, 1.9721660614013672, 6.964903831481934, 3.4856650829315186, 1.706183671951294, 2.7139923572540283, 0.609619140625, 0.2216796875, -0.6982421875
592, 527239038, -6.528570175170898, 1.9503999948501587, 6.9040398597717285, 1.204341173171997, 0.26174256205558777, 0.22559024393558502, 0.608642578125, 0.21923828125, -0.70166015625
593, 527255705, -6.507406234741211, 1.8262028694152832, 6.9189910888671875, -0.19291485846042633, -0.7070385217666626, -1.4463107585906982, 0.610595703125, 0.22021484375, -0.70166015625
594, 527272372, -6.480428218841553, 1.6593858003616333, 6.950617790222168, -0.7154779434204102, -0.9826952815055847, -1.819398283958435, 0.611083984375, 0.22216796875, -0.69970703125
595, 527289039, -6.486383438110352, 1.5962975025177002, 6.978802680969238, -0.624937117099762, -0.9006834030151367, -1.3101409673690796, 0.609130859375, 0.220703125, -0.69873046875
596, 527305706, -6.521143436431885, 1.5968339443206787, 6.937032699584961, -0.41570690274238586, -1.1238981485366821, -0.6381019353866577, 0.60791015625, 0.218994140625, -0.70068359375
597, 527322373, -6.4901838302612305, 1.675378441810608, 6.958975791931152, -0.4267715811729431, -1.6724964380264282, -0.15572521090507507, 0.609130859375, 0.220703125, -0.70068359375
598, 527339040, -6.501450538635254, 1.7276853322982788, 6.942288398742676, -0.6481805443763733, -2.3919060230255127, -0.0027021397836506367, 0.6083984375, 0.21875, -0.702392578125
599, 527355707, -6.479199409484863, 1.789856195449829, 6.9400506019592285, -0.8479467034339905, -3.1137869358062744, -0.15623745322227478, 0.610107421875, 0.2197265625, -0.70068359375
600, 527372374, -6.488641262054443, 1.7195106744766235, 6.9586992263793945, -1.2693144083023071, -3.797710657119751, -0.34719300270080566, 0.60791015625, 0.22021484375, -0.69970703125
601, 527389041, -6.497992515563965, 1.7277147769927979, 6.963068008422852, -1.3688708543777466, -4.4413065910339355, -0.31033632159233093, 0.6064453125, 0.22021484375, -0.701904296875
602, 527405708, -6.483522891998291, 1.7929924726486206, 6.968929290771484, -1.1594229936599731, -5.159115314483643, -0.140152707695961, 0.607421875, 0.21923828125, -0.702392578125
603, 527422375, -6.44512414932251, 1.7065991163253784, 6.981398105621338, -1.4627799987792969, -6.366422176361084, -0.06423667073249817, 0.607421875, 0.22021484375, -0.705322265625
604, 527439042, -6.386176109313965, 1.7463109493255615, 7.008468151092529, -1.285834550857544, -6.941209316253662, 0.20542028546333313, 0.60546875, 0.218505859375, -0.706787109375
605, 527455709, -6.396330833435059, 1.6483616828918457, 7.0000081062316895, -1.105329155921936, -7.309277534484863, 0.7959468960762024, 0.60498046875, 0.218505859375, -0.71044921875
606, 527472376, -6.386527061462402, 1.7209928035736084, 6.988784313201904, -0.21966733038425446, -7.122713088989258, 1.663922905921936, 0.60498046875, 0.218994140625, -0.70947265625
607, 527489043, -6.358207702636719, 1.7028919458389282, 7.017324447631836, 0.4231026768684387, -6.337440490722656, 1.9799199104309082, 0.603759765625, 0.22021484375, -0.71044921875
608, 527505710, -6.335864067077637, 1.6876682043075562, 7.031448841094971, 1.8320448398590088, -5.3595733642578125, 2.7276313304901123, 0.601318359375, 0.217041015625, -0.713134765625
609, 527522377, -6.3585896492004395, 1.7707237005233765, 7.054515361785889, 2.958836793899536, -4.1853837966918945, 3.4830002784729004, 0.599365234375, 0.216552734375, -0.71142578125
610, 527539044, -6.365850925445557, 1.8738796710968018, 7.073235034942627, 2.7325103282928467, -3.8077123165130615, 3.0266594886779785, 0.600341796875, 0.212890625, -0.714599609375
611, 527555711, -6.354762077331543, 1.9082989692687988, 7.078231334686279, 1.9964395761489868, -3.694183826446533, 1.9695849418640137, 0.600830078125, 0.2138671875, -0.714111328125
612, 527572378, -6.327301979064941, 1.9019750356674194, 7.040651321411133, 1.3967310190200806, -3.2645182609558105, 1.1541659832000732, 0.600341796875, 0.2138671875, -0.715576171875
613, 527589045, -6.352865219116211, 1.8585236072540283, 7.0904951095581055, 1.3352861404418945, -2.4231789112091064, 0.8732713460922241, 0.600830078125, 0.21142578125, -0.715087890625
614, 527605712, -6.351107120513916, 1.863349437713623, 7.127631187438965, 0.8741934299468994, -1.6914498805999756, 0.23069997131824493, 0.596923828125, 0.211181640625, -0.715087890625
615, 527622379, -6.352928161621094, 1.8361095190048218, 7.078678607940674, 0.5940673351287842, -1.4209668636322021, -0.17740635573863983, 0.596923828125, 0.210205078125, -0.716064453125
616, 527639046, -6.344459533691406, 1.8058466911315918, 7.06931734085083, 0.6782947182655334, -1.1473463773727417, -0.26190266013145447, 0.600341796875, 0.209228515625, -0.717529296875
617, 527655713, -6.366034507751465, 1.813985824584961, 7.085673809051514, 0.8559957146644592, -0.9842833280563354, 0.043471161276102066, 0.600830078125, 0.21142578125, -0.715087890625
618, 527672380, -6.34796667098999, 1.841700553894043, 7.098020076751709, 0.7534424662590027, -1.1599736213684082, -0.24967260658740997, 0.598876953125, 0.208740234375, -0.715087890625
619, 527689047, -6.342952728271484, 1.8678456544876099, 7.0583815574646, 0.508879542350769, -1.3181192874908447, -0.628945529460907, 0.600341796875, 0.209716796875, -0.715576171875
620, 527705714, -6.336838722229004, 1.8639100790023804, 7.080193996429443, 0.28444185853004456, -1.547058343887329, -0.9065487384796143, 0.598876953125, 0.209228515625, -0.716552734375
621, 527722381, -6.336305618286133, 1.8405306339263916, 7.08586311340332, 0.19632773101329803, -1.626265525817871, -0.9893801212310791, 0.599365234375, 0.207763671875, -0.716064453125
622, 527739048, -6.329211235046387, 1.8107337951660156, 7.099843502044678, 0.4276232123374939, -1.6394304037094116, -0.9333394765853882, 0.598876953125, 0.208740234375, -0.718017578125
623, 527755715, -6.330221176147461, 1.8116730451583862, 7.074325084686279, 0.8990633487701416, -1.1211447715759277, -0.7456753849983215, 0.60107421875, 0.209228515625, -0.714599609375
624, 527772382, -6.332283973693848, 1.7803131341934204, 7.076881408691406, 1.3647022247314453, -0.7557666897773743, -0.2694455683231354, 0.597900390625, 0.209716796875, -0.715087890625
625, 527789049, -6.335643768310547, 1.8203155994415283, 7.100830078125, 1.962681770324707, -0.11450157314538956, 0.03805406764149666, 0.599365234375, 0.207275390625, -0.716064453125
626, 527805716, -6.321155071258545, 1.8809179067611694, 7.064994812011719, 1.6978082656860352, -0.17542137205600739, 0.08306838572025299, 0.598388671875, 0.206298828125, -0.717529296875
627, 527822383, -6.326107025146484, 1.9029819965362549, 7.057992935180664, 1.0746128559112549, -0.7059500217437744, -0.22600647807121277, 0.597900390625, 0.207763671875, -0.717529296875
628, 527839050, -6.296943664550781, 1.9088349342346191, 7.0757341384887695, 0.6344329714775085, -1.240397334098816, -0.5296962261199951, 0.599365234375, 0.2060546875, -0.718994140625
629, 527855717, -6.285916328430176, 1.9071723222732544, 7.066673278808594, 0.6660390496253967, -1.0184377431869507, -0.7066672444343567, 0.597900390625, 0.20556640625, -0.718017578125
630, 527872384, -6.326169490814209, 1.884993314743042, 7.0514421463012695, 0.5265907049179077, -0.9730904698371887, -0.7796890139579773, 0.599365234375, 0.207275390625, -0.718505859375
631, 527889051, -6.301235198974609, 1.8941372632980347, 7.0707197189331055, 0.10836093872785568, -1.2212647199630737, -1.0109460353851318, 0.597412109375, 0.2060546875, -0.717529296875
632, 527905718, -6.299107551574707, 1.886067509651184, 7.046368598937988, 0.01513070147484541, -1.2306773662567139, -1.0915364027023315, 0.59912109375, 0.2041015625, -0.718994140625
633, 527922385, -6.306358814239502, 1.8451532125473022, 7.088995933532715, 0.7077749967575073, -0.3741247355937958, -0.6117465496063232, 0.598388671875, 0.2041015625, -0.717529296875
634, 527939052, -6.309503078460693, 1.8979259729385376, 7.058734893798828, 0.609153151512146, -0.25348883867263794, -0.7661141753196716, 0.59814453125, 0.2041015625, -0.716064453125
635, 527955719, -6.3127336502075195, 1.9422318935394287, 7.064782619476318, -0.0509948804974556, -0.4168850779533386, -1.2670986652374268, 0.6005859375, 0.205810546875, -0.718017578125
636, 527972386, -6.305203437805176, 1.925777554512024, 7.080909252166748, -0.8228719830513, -0.8624179363250732, -1.8140835762023926, 0.60009765625, 0.20458984375, -0.717041015625
637, 527989053, -6.310227394104004, 1.9104697704315186, 7.080384254455566, -1.3123563528060913, -0.962550938129425, -2.144231081008911, 0.597900390625, 0.2060546875, -0.716064453125
638, 528005720, -6.310590744018555, 1.9259979724884033, 7.075361728668213, -1.6733800172805786, -1.2380152940750122, -2.4081954956054688, 0.598388671875, 0.206298828125, -0.716552734375
639, 528022387, -6.315894603729248, 1.8938894271850586, 7.077486038208008, -2.1308486461639404, -1.1216057538986206, -2.823249578475952, 0.598388671875, 0.2041015625, -0.717529296875
640, 528039054, -6.347395896911621, 1.8371481895446777, 7.067424297332764, -2.4134466648101807, -1.300984501838684, -2.92832612991333, 0.596435546875, 0.20556640625, -0.718017578125
641, 528055721, -6.326004505157471, 1.835345983505249, 7.079663276672363, -2.76654314994812, -1.8618897199630737, -2.968409538269043, 0.599365234375, 0.207275390625, -0.719482421875
642, 528072388, -6.3081440925598145, 1.8748729228973389, 7.091911792755127, -2.6660776138305664, -1.8461765050888062, -3.269679307937622, 0.597900390625, 0.208251953125, -0.716552734375
643, 528089055, -6.3138298988342285, 1.8157910108566284, 7.1078643798828125, -1.2583903074264526, -0.5407737493515015, -2.982586145401001, 0.597412109375, 0.210205078125, -0.717529296875
644, 528105722, -6.333148956298828, 1.7006796598434448, 7.089632034301758, 0.4150473475456238, 0.08347819000482559, -1.7128492593765259, 0.596923828125, 0.209716796875, -0.715087890625
645, 528122389, -6.332581520080566, 1.7910579442977905, 7.084610939025879, 1.6329824924468994, 0.9937278628349304, -0.631442666053772, 0.598388671875, 0.209716796875, -0.715087890625
646, 528139056, -6.353557586669922, 1.8418421745300293, 7.076211452484131, 1.8662755489349365, 1.1093308925628662, -0.40558990836143494, 0.6015625, 0.206787109375, -0.718505859375
647, 528155723, -6.342828750610352, 1.817394495010376, 7.08419132232666, 1.3397427797317505, 0.45359453558921814, -0.4687252640724182, 0.6005859375, 0.207763671875, -0.717529296875
648, 528172390, -6.334057807922363, 1.8795160055160522, 7.078536510467529, 1.0158700942993164, -0.04133889451622963, -0.5591636300086975, 0.598876953125, 0.20556640625, -0.716064453125
649, 528189057, -6.331780910491943, 1.8664296865463257, 7.060688018798828, 0.4250235855579376, -0.6597062945365906, -0.9423297047615051, 0.597412109375, 0.20556640625, -0.717041015625
650, 528205724, -6.323446750640869, 1.8627867698669434, 7.060142993927002, 0.17646510899066925, -0.9077268242835999, -1.0374935865402222, 0.600341796875, 0.208740234375, -0.717529296875
651, 528222391, -6.326426029205322, 1.8411511182785034, 7.06564474105835, 0.15495043992996216, -1.0294512510299683, -1.0863243341445923, 0.596923828125, 0.206787109375, -0.717529296875
652, 528239058, -6.3139567375183105, 1.8872771263122559, 7.04509973526001, 0.11403413116931915, -0.8562325239181519, -0.8960986137390137, 0.599365234375, 0.207763671875, -0.718017578125
653, 528255725, -6.329735279083252, 1.833339810371399, 7.052065849304199, 0.6684209704399109, -0.1373993158340454, -0.6142053604125977, 0.598876953125, 0.206298828125, -0.716552734375
654, 528272392, -6.304439067840576, 1.8831747770309448, 7.046710968017578, 0.7723060250282288, -0.11418140679597855, -0.5975314378738403, 0.599365234375, 0.207763671875, -0.715576171875
655, 528289059, -6.317174911499023, 1.8915153741836548, 7.066389083862305, 0.2486288696527481, -0.4886902868747711, -0.8562581539154053, 0.60009765625, 0.206787109375, -0.714599609375
656, 528305726, -6.318079471588135, 1.9232842922210693, 7.046808242797852, -0.3542492687702179, -0.8890423774719238, -1.3572938442230225, 0.598876953125, 0.206787109375, -0.715576171875
657, 528322393, -6.342718124389648, 1.8609009981155396, 7.0596442222595215, -0.5797818303108215, -0.9890215396881104, -1.4061884880065918, 0.597412109375, 0.2041015625, -0.715576171875
658, 528339060, -6.322117805480957, 1.8742294311523438, 7.0557427406311035, -0.6140772104263306, -1.1993401050567627, -1.470591425895691, 0.597412109375, 0.20458984375, -0.716064453125
