sep=,
DeviceTag:,A,,,,,,,,,,,,,,,,,
FirmwareVersion:,2.2.1,,,,,,,,,,,,,,,,,
AppVersion:,2023.6.1,,,,,,,,,,,,,,,,,
SyncStatus:,Synced,,,,,,,,,,,,,,,,,
OutputRate:,60Hz,,,,,,,,,,,,,,,,,
FilterProfile:,General,,,,,,,,,,,,,,,,,
Measurement Mode:,Inertial Mode - Rate quantities (with mag),,,,,,,,,,,,,,,,,
StartTime:,2023-12-05 15:30:06.339 +0200,,,,,,,,,,,,,,,,,
 2023,,,,,,,,,,,,,,,,,,,

PacketCounter,SampleTimeFine,Acc_X,Acc_Y,Acc_Z,Gyr_X,Gyr_Y,Gyr_Z,Mag_X,Mag_Y,Mag_Z
1, 469136085, -6.682619094848633, 1.705060601234436, 7.117565155029297, -2.194432020187378, -1.433350682258606, -2.127403497695923, 1.104736328125, -0.594482421875, 0.09130859375
2, 469152752, -6.664152145385742, 1.7369067668914795, 7.099396705627441, -2.284639835357666, -1.3985044956207275, -2.0904314517974854, 1.10693359375, -0.596435546875, 0.08935546875
3, 469169419, -6.673140525817871, 1.6965053081512451, 7.10518217086792, -2.2365782260894775, -1.404587745666504, -2.1150074005126953, 1.105224609375, -0.596923828125, 0.09033203125
4, 469186086, -6.6815185546875, 1.7038397789001465, 7.1141791343688965, -2.3177828788757324, -1.5232897996902466, -2.069685459136963, 1.106201171875, -0.595947265625, 0.08984375
5, 469202753, -6.667491436004639, 1.7143398523330688, 7.093231201171875, -2.203101873397827, -1.4809517860412598, -2.0642426013946533, 1.105712890625, -0.595947265625, 0.09033203125
6, 469219420, -6.669029712677002, 1.7164171934127808, 7.116077899932861, -2.131911516189575, -1.5258105993270874, -2.0741586685180664, 1.106201171875, -0.596923828125, 0.08837890625
7, 469236087, -6.666757106781006, 1.715491533279419, 7.120328426361084, -2.290454149246216, -1.5141844749450684, -2.049412965774536, 1.105224609375, -0.595947265625, 0.087890625
8, 469252754, -6.667054653167725, 1.7036367654800415, 7.103984355926514, -2.1919219493865967, -1.447386384010315, -1.959883689880371, 1.107421875, -0.596435546875, 0.08935546875
9, 469269421, -6.680711269378662, 1.7130348682403564, 7.105216026306152, -2.1294913291931152, -1.234493613243103, -1.9332209825515747, 1.106201171875, -0.595947265625, 0.08984375
10, 469286088, -6.689008712768555, 1.7161239385604858, 7.097539901733398, -2.1234078407287598, -1.3841229677200317, -1.9126027822494507, 1.105224609375, -0.596923828125, 0.09033203125
11, 469302755, -6.681013584136963, 1.739227294921875, 7.085867404937744, -2.232326030731201, -1.5128909349441528, -1.9626755714416504, 1.104248046875, -0.595947265625, 0.09033203125
12, 469319422, -6.676789283752441, 1.707929253578186, 7.091379642486572, -2.329807758331299, -1.6237043142318726, -2.056558847427368, 1.105224609375, -0.595458984375, 0.08984375
13, 469336089, -6.677778720855713, 1.7019407749176025, 7.097738742828369, -2.398411989212036, -1.6647999286651611, -2.0650625228881836, 1.10791015625, -0.596923828125, 0.08935546875
14, 469352756, -6.66744327545166, 1.7171598672866821, 7.1115264892578125, -2.3527822494506836, -1.6772602796554565, -2.0280518531799316, 1.106201171875, -0.596923828125, 0.08740234375
15, 469369423, -6.677082538604736, 1.7220648527145386, 7.122586250305176, -2.3045921325683594, -1.674583911895752, -1.9988279342651367, 1.106201171875, -0.595458984375, 0.087890625
16, 469386090, -6.6563639640808105, 1.7341071367263794, 7.128293991088867, -2.32129168510437, -1.6404805183410645, -2.040461301803589, 1.106689453125, -0.594970703125, 0.0888671875
17, 469402757, -6.664812088012695, 1.7039477825164795, 7.09946870803833, -2.2683756351470947, -1.6017796993255615, -2.0894839763641357, 1.104248046875, -0.595458984375, 0.09130859375
18, 469419424, -6.655799388885498, 1.741212248802185, 7.113391876220703, -2.3518218994140625, -1.5387853384017944, -2.174710273742676, 1.1064453125, -0.597412109375, 0.08837890625
19, 469436091, -6.672000408172607, 1.7456777095794678, 7.098355293273926, -2.423614501953125, -1.479312777519226, -2.227843999862671, 1.1064453125, -0.596923828125, 0.0888671875
20, 469452758, -6.676856517791748, 1.7210609912872314, 7.112796306610107, -2.391573190689087, -1.3761703968048096, -2.3079988956451416, 1.106201171875, -0.595947265625, 0.0888671875
21, 469469425, -6.680689811706543, 1.7227553129196167, 7.116142749786377, -2.397618055343628, -1.4379098415374756, -2.265571355819702, 1.107421875, -0.596923828125, 0.08984375
22, 469486092, -6.688048839569092, 1.728022813796997, 7.089999198913574, -2.427610397338867, -1.5126605033874512, -2.2660837173461914, 1.103759765625, -0.596435546875, 0.08984375
23, 469502759, -6.677878379821777, 1.7323603630065918, 7.09434700012207, -2.4259326457977295, -1.557534098625183, -2.303452730178833, 1.106201171875, -0.596435546875, 0.08837890625
24, 469519426, -6.67197847366333, 1.721838116645813, 7.110809803009033, -2.5317134857177734, -1.6481518745422363, -2.3863613605499268, 1.105224609375, -0.597412109375, 0.087646484375
25, 469536093, -6.672480583190918, 1.7115720510482788, 7.093001365661621, -2.4423885345458984, -1.6037135124206543, -2.3652045726776123, 1.106201171875, -0.596435546875, 0.09033203125
26, 469552760, -6.678647994995117, 1.7238352298736572, 7.095952033996582, -2.4485740661621094, -1.6755445003509521, -2.285959005355835, 1.10888671875, -0.59814453125, 0.08935546875
27, 469569427, -6.671095848083496, 1.7190929651260376, 7.104051113128662, -2.444091558456421, -1.669282078742981, -2.3271310329437256, 1.105224609375, -0.59765625, 0.09033203125
28, 469586094, -6.668407440185547, 1.7200573682785034, 7.1213579177856445, -2.4445016384124756, -1.7596694231033325, -2.2386014461517334, 1.104248046875, -0.595458984375, 0.09033203125
29, 469602761, -6.670352935791016, 1.7240839004516602, 7.10879373550415, -2.493703842163086, -1.6381114721298218, -2.2339138984680176, 1.106201171875, -0.595947265625, 0.09033203125
30, 469619428, -6.675233364105225, 1.7191206216812134, 7.088049411773682, -2.461610794067383, -1.6161357164382935, -2.255556583404541, 1.107421875, -0.59814453125, 0.08935546875
31, 469636095, -6.657218933105469, 1.722507119178772, 7.1171770095825195, -2.5544703006744385, -1.6451936960220337, -2.2923243045806885, 1.1064453125, -0.596435546875, 0.08935546875
32, 469652762, -6.6792683601379395, 1.7213689088821411, 7.094374179840088, -2.5874717235565186, -1.5748480558395386, -2.2217352390289307, 1.106201171875, -0.597412109375, 0.087890625
33, 469669429, -6.681728363037109, 1.7124629020690918, 7.089651107788086, -2.591275453567505, -1.5979763269424438, -2.2596166133880615, 1.106689453125, -0.595947265625, 0.087890625
34, 469686096, -6.683313846588135, 1.7192879915237427, 7.092804431915283, -2.5285239219665527, -1.6534150838851929, -2.2932331562042236, 1.106201171875, -0.596923828125, 0.087890625
35, 469702763, -6.662045955657959, 1.7250325679779053, 7.101495742797852, -2.5643820762634277, -1.5938400030136108, -2.30843448638916, 1.104736328125, -0.594970703125, 0.0908203125
36, 469719430, -6.671355724334717, 1.7074495553970337, 7.1064934730529785, -2.5819270610809326, -1.5893962383270264, -2.3847219944000244, 1.10693359375, -0.596435546875, 0.09033203125
37, 469736097, -6.66845178604126, 1.7052096128463745, 7.099413871765137, -2.540626287460327, -1.4973697662353516, -2.348966360092163, 1.107421875, -0.596923828125, 0.08984375
38, 469752764, -6.661864757537842, 1.7139759063720703, 7.1084675788879395, -2.5201382637023926, -1.5120574235916138, -2.39335036277771, 1.107421875, -0.594970703125, 0.08837890625
39, 469769431, -6.66916561126709, 1.7175344228744507, 7.100973606109619, -2.5411388874053955, -1.557444453239441, -2.4792330265045166, 1.10595703125, -0.599609375, 0.09033203125
40, 469786098, -6.669699668884277, 1.7180393934249878, 7.09657621383667, -2.5720276832580566, -1.5262866020202637, -2.5190603733062744, 1.104736328125, -0.596923828125, 0.08984375
41, 469802765, -6.677461624145508, 1.7164992094039917, 7.091968536376953, -2.4978277683258057, -1.4865741729736328, -2.4675662517547607, 1.105224609375, -0.596435546875, 0.08984375
42, 469819432, -6.67411994934082, 1.706689715385437, 7.078230857849121, -2.4197089672088623, -1.4314298629760742, -2.337286949157715, 1.10693359375, -0.596435546875, 0.091796875
43, 469836099, -6.665841102600098, 1.7184035778045654, 7.10889196395874, -2.3854005336761475, -1.4488720893859863, -2.289186477661133, 1.10693359375, -0.596923828125, 0.08984375
44, 469852766, -6.6626691818237305, 1.695294737815857, 7.099327564239502, -2.332228183746338, -1.377310037612915, -2.2759954929351807, 1.107421875, -0.595947265625, 0.0888671875
45, 469869433, -6.675398826599121, 1.7218961715698242, 7.1093058586120605, -2.379509210586548, -1.2759733200073242, -2.2149477005004883, 1.106201171875, -0.595947265625, 0.08935546875
46, 469886100, -6.670780181884766, 1.7240266799926758, 7.101980209350586, -2.3379526138305664, -1.3964811563491821, -2.2537124156951904, 1.104248046875, -0.596923828125, 0.08984375
47, 469902767, -6.678652286529541, 1.7214806079864502, 7.098956108093262, -2.3749122619628906, -1.3983510732650757, -2.1931517124176025, 1.104248046875, -0.595458984375, 0.0908203125
48, 469919434, -6.676328659057617, 1.7156487703323364, 7.1064629554748535, -2.3899850845336914, -1.5403735637664795, -2.195303201675415, 1.106201171875, -0.596923828125, 0.08935546875
49, 469936101, -6.682246685028076, 1.6790615320205688, 7.120569229125977, -2.4464735984802246, -1.5890247821807861, -2.0732839107513428, 1.1064453125, -0.59765625, 0.08935546875
50, 469952768, -6.691267967224121, 1.7260026931762695, 7.105742454528809, -2.4596903324127197, -1.6426706314086914, -2.0878193378448486, 1.105712890625, -0.596923828125, 0.091796875
51, 469969435, -6.676506519317627, 1.731451392173767, 7.087165832519531, -2.4708058834075928, -1.7368611097335815, -2.0659971237182617, 1.106689453125, -0.595458984375, 0.09033203125
52, 469986102, -6.680691719055176, 1.7108047008514404, 7.126496315002441, -2.380188226699829, -1.6598310470581055, -2.0759735107421875, 1.104248046875, -0.596435546875, 0.08837890625
53, 470002769, -6.674354076385498, 1.7174623012542725, 7.0872297286987305, -2.3956966400146484, -1.594223976135254, -2.0158090591430664, 1.105224609375, -0.596435546875, 0.093505859375
54, 470019436, -6.666004180908203, 1.7331581115722656, 7.094360828399658, -2.3920726776123047, -1.6331298351287842, -2.116915464401245, 1.10791015625, -0.59814453125, 0.08984375
55, 470036103, -6.672974586486816, 1.7421717643737793, 7.094773769378662, -2.4249589443206787, -1.5751681327819824, -2.184507131576538, 1.10595703125, -0.59814453125, 0.08935546875
56, 470052770, -6.682409763336182, 1.740857481956482, 7.098578453063965, -2.506164312362671, -1.6477675437927246, -2.3345720767974854, 1.107421875, -0.594482421875, 0.0888671875
57, 470069437, -6.669726848602295, 1.7257795333862305, 7.086363315582275, -2.547926187515259, -1.678208351135254, -2.341001033782959, 1.1064453125, -0.597900390625, 0.09130859375
58, 470086104, -6.669155597686768, 1.7319087982177734, 7.103986740112305, -2.4289164543151855, -1.5732218027114868, -2.3547933101654053, 1.105224609375, -0.596435546875, 0.08935546875
59, 470102771, -6.675161361694336, 1.7144676446914673, 7.0907979011535645, -2.5176005363464355, -1.5451245307922363, -2.2754452228546143, 1.104736328125, -0.596435546875, 0.0888671875
60, 470119438, -6.675041675567627, 1.7194015979766846, 7.103242874145508, -2.5026423931121826, -1.5856307744979858, -2.272320032119751, 1.107421875, -0.597900390625, 0.09130859375
61, 470136105, -6.676296234130859, 1.7265818119049072, 7.103914737701416, -2.4780030250549316, -1.4902750253677368, -2.337735176086426, 1.10693359375, -0.59814453125, 0.08984375
62, 470152772, -6.687488079071045, 1.7127403020858765, 7.107067108154297, -2.5083024501800537, -1.6134718656539917, -2.230187177658081, 1.10693359375, -0.596923828125, 0.09033203125
63, 470169439, -6.674172401428223, 1.7220046520233154, 7.0914483070373535, -2.439366340637207, -1.5554977655410767, -2.2689011096954346, 1.103271484375, -0.596435546875, 0.088623046875
64, 470186106, -6.67042875289917, 1.730687141418457, 7.100128173828125, -2.587958812713623, -1.6100785732269287, -2.337210178375244, 1.102783203125, -0.595458984375, 0.091796875
65, 470202773, -6.654449939727783, 1.709531307220459, 7.108044624328613, -2.677961587905884, -1.5311145782470703, -2.3854262828826904, 1.107421875, -0.594482421875, 0.09033203125
66, 470219440, -6.66445779800415, 1.7029436826705933, 7.115015506744385, -2.5184202194213867, -1.5096381902694702, -2.3950183391571045, 1.10693359375, -0.595947265625, 0.08935546875
67, 470236107, -6.671756267547607, 1.7096951007843018, 7.071560382843018, -2.50909686088562, -1.4850244522094727, -2.368150234222412, 1.10888671875, -0.596435546875, 0.09033203125
68, 470252774, -6.670163154602051, 1.7058006525039673, 7.097546577453613, -2.488171339035034, -1.4277927875518799, -2.286637783050537, 1.105224609375, -0.594970703125, 0.087158203125
69, 470269441, -6.671115875244141, 1.7213759422302246, 7.101946830749512, -2.4902503490448, -1.4244929552078247, -2.2633612155914307, 1.103271484375, -0.595947265625, 0.0908203125
70, 470286108, -6.675749778747559, 1.7252284288406372, 7.091687202453613, -2.5365025997161865, -1.5191278457641602, -2.299713134765625, 1.104736328125, -0.595458984375, 0.08935546875
71, 470302775, -6.677924633026123, 1.718468427658081, 7.101021766662598, -2.5548412799835205, -1.555702567100525, -2.3783953189849854, 1.105712890625, -0.595458984375, 0.09033203125
72, 470319442, -6.670982360839844, 1.7173397541046143, 7.100142002105713, -2.492269515991211, -1.5718002319335938, -2.267056941986084, 1.10693359375, -0.596923828125, 0.08984375
73, 470336109, -6.676308631896973, 1.7113372087478638, 7.121382713317871, -2.4657087326049805, -1.5270034074783325, -2.3568806648254395, 1.106201171875, -0.595458984375, 0.09033203125
74, 470352776, -6.6677117347717285, 1.7074129581451416, 7.109447002410889, -2.4185562133789062, -1.5163230895996094, -2.355344295501709, 1.10791015625, -0.595947265625, 0.0908203125
75, 470369443, -6.680657863616943, 1.7026396989822388, 7.1065673828125, -2.5520880222320557, -1.5176806449890137, -2.3836588859558105, 1.10693359375, -0.594970703125, 0.0888671875
76, 470386110, -6.674563407897949, 1.7119166851043701, 7.0921502113342285, -2.519162178039551, -1.4119384288787842, -2.3591341972351074, 1.106201171875, -0.593017578125, 0.09033203125
77, 470402777, -6.6778082847595215, 1.7213839292526245, 7.100696086883545, -2.5067660808563232, -1.5310248136520386, -2.385887384414673, 1.105712890625, -0.596923828125, 0.08984375
78, 470419444, -6.672002792358398, 1.7112444639205933, 7.105308532714844, -2.465222120285034, -1.4604361057281494, -2.3503620624542236, 1.10791015625, -0.595458984375, 0.087890625
79, 470436111, -6.6730451583862305, 1.693825602531433, 7.121250152587891, -2.509686231613159, -1.3487521409988403, -2.3683040142059326, 1.10791015625, -0.597900390625, 0.087890625
80, 470452778, -6.68156623840332, 1.7252166271209717, 7.083896160125732, -2.488081932067871, -1.3508906364440918, -2.4006526470184326, 1.1083984375, -0.596435546875, 0.087890625
81, 470469445, -6.666384220123291, 1.70233952999115, 7.090127944946289, -2.6112279891967773, -1.4568504095077515, -2.473316192626953, 1.106201171875, -0.594482421875, 0.08935546875
82, 470486112, -6.679092884063721, 1.6960277557373047, 7.09869384765625, -2.4910402297973633, -1.5137618780136108, -2.383620262145996, 1.102294921875, -0.594970703125, 0.08984375
83, 470502779, -6.682378768920898, 1.716091513633728, 7.095022201538086, -2.5500776767730713, -1.5959404706954956, -2.4475371837615967, 1.104248046875, -0.594482421875, 0.091796875
84, 470519446, -6.673743724822998, 1.706511378288269, 7.088866710662842, -2.5281786918640137, -1.6842784881591797, -2.329974889755249, 1.107421875, -0.594482421875, 0.08984375
85, 470536113, -6.678030014038086, 1.696845531463623, 7.114642143249512, -2.5377190113067627, -1.553627848625183, -2.3373379707336426, 1.1083984375, -0.595947265625, 0.08984375
86, 470552780, -6.67169713973999, 1.703980565071106, 7.097323417663574, -2.520238161087036, -1.519575834274292, -2.2991747856140137, 1.10693359375, -0.597412109375, 0.09033203125
87, 470569447, -6.677508354187012, 1.703356385231018, 7.076318740844727, -2.5137712955474854, -1.5407320261001587, -2.365730047225952, 1.105224609375, -0.596435546875, 0.09033203125
88, 470586114, -6.663825988769531, 1.7087489366531372, 7.101105690002441, -2.558029890060425, -1.4709886312484741, -2.3786771297454834, 1.103759765625, -0.594970703125, 0.088623046875
89, 470602781, -6.671870231628418, 1.7303049564361572, 7.106907367706299, -2.538935661315918, -1.5066797733306885, -2.287137031555176, 1.104736328125, -0.594970703125, 0.0908203125
90, 470619448, -6.676131248474121, 1.718591570854187, 7.099606513977051, -2.534376621246338, -1.4564789533615112, -2.3630661964416504, 1.105224609375, -0.596435546875, 0.0888671875
91, 470636115, -6.676387786865234, 1.714903712272644, 7.126847743988037, -2.5406389236450195, -1.535507082939148, -2.384350299835205, 1.107177734375, -0.593505859375, 0.091796875
92, 470652782, -6.6771240234375, 1.697476863861084, 7.104324817657471, -2.4454238414764404, -1.4735881090164185, -2.253225803375244, 1.107177734375, -0.593994140625, 0.08984375
93, 470669449, -6.6791205406188965, 1.7089961767196655, 7.111748218536377, -2.3759877681732178, -1.4621009826660156, -2.347864866256714, 1.106689453125, -0.593994140625, 0.09130859375
94, 470686116, -6.6746296882629395, 1.7006337642669678, 7.106482028961182, -2.406736135482788, -1.384904384613037, -2.265289783477783, 1.105712890625, -0.595458984375, 0.08984375
95, 470702783, -6.664478778839111, 1.7035430669784546, 7.111042022705078, -2.4863016605377197, -1.3990042209625244, -2.3144915103912354, 1.104736328125, -0.593505859375, 0.08984375
96, 470719450, -6.693291187286377, 1.6997323036193848, 7.098358631134033, -2.429070234298706, -1.427472710609436, -2.3286938667297363, 1.105712890625, -0.595458984375, 0.0908203125
97, 470736117, -6.6872239112854, 1.7049977779388428, 7.106199264526367, -2.440992593765259, -1.4230544567108154, -2.3395025730133057, 1.10888671875, -0.596435546875, 0.0888671875
98, 470752784, -6.679370880126953, 1.7026076316833496, 7.098776817321777, -2.4702556133270264, -1.4931820631027222, -2.3154520988464355, 1.10693359375, -0.594970703125, 0.08984375
99, 470769451, -6.682562828063965, 1.698967456817627, 7.098448276519775, -2.4384958744049072, -1.4326080083847046, -2.278903007507324, 1.106201171875, -0.594970703125, 0.08837890625
100, 470786118, -6.6829447746276855, 1.6955571174621582, 7.108290672302246, -2.4105775356292725, -1.5030555725097656, -2.289506435394287, 1.105712890625, -0.594482421875, 0.0908203125
101, 470802785, -6.676298141479492, 1.696847677230835, 7.106694221496582, -2.3713886737823486, -1.4553288221359253, -2.2527451515197754, 1.104248046875, -0.594482421875, 0.09033203125
102, 470819452, -6.673990726470947, 1.6963087320327759, 7.102668762207031, -2.3774092197418213, -1.428714632987976, -2.235565662384033, 1.1064453125, -0.597412109375, 0.092529296875
103, 470836119, -6.674870014190674, 1.6972379684448242, 7.105770111083984, -2.3582377433776855, -1.4032044410705566, -2.174095630645752, 1.107421875, -0.593994140625, 0.091796875
104, 470852786, -6.680470943450928, 1.703437089920044, 7.096093654632568, -2.4081063270568848, -1.5787413120269775, -2.225679636001587, 1.106201171875, -0.595947265625, 0.08984375
105, 470869453, -6.677824974060059, 1.6999157667160034, 7.095587253570557, -2.4185307025909424, -1.5076532363891602, -2.2739853858947754, 1.1064453125, -0.595947265625, 0.09033203125
106, 470886120, -6.671511650085449, 1.6975750923156738, 7.112990856170654, -2.473982095718384, -1.5476601123809814, -2.247642755508423, 1.106689453125, -0.593994140625, 0.08837890625
107, 470902787, -6.677269458770752, 1.7003440856933594, 7.123977184295654, -2.3871679306030273, -1.5663832426071167, -2.206969738006592, 1.105712890625, -0.593017578125, 0.091796875
108, 470919454, -6.683107852935791, 1.7014827728271484, 7.092427730560303, -2.407274007797241, -1.6374071836471558, -2.281682014465332, 1.106689453125, -0.593505859375, 0.08837890625
109, 470936121, -6.696224212646484, 1.7066771984100342, 7.086318016052246, -2.515397548675537, -1.569443702697754, -2.264187812805176, 1.106689453125, -0.595458984375, 0.08935546875
110, 470952788, -6.68551778793335, 1.6940958499908447, 7.100080490112305, -2.4961371421813965, -1.569303035736084, -2.2714624404907227, 1.1083984375, -0.593994140625, 0.09033203125
111, 470969455, -6.679358959197998, 1.6943485736846924, 7.105075836181641, -2.488901376724243, -1.6641725301742554, -2.2932841777801514, 1.106689453125, -0.594970703125, 0.08935546875
112, 470986122, -6.685069561004639, 1.6920318603515625, 7.108438968658447, -2.527089834213257, -1.6589728593826294, -2.3108670711517334, 1.105224609375, -0.593994140625, 0.08935546875
113, 471002789, -6.66340446472168, 1.694778323173523, 7.105126857757568, -2.407529830932617, -1.6605867147445679, -2.209851026535034, 1.105712890625, -0.59228515625, 0.08984375
114, 471019456, -6.660940647125244, 1.6997967958450317, 7.09886360168457, -2.4743406772613525, -1.5613759756088257, -2.2447996139526367, 1.107177734375, -0.594482421875, 0.08984375
115, 471036123, -6.675120830535889, 1.6997989416122437, 7.0892653465271, -2.524170160293579, -1.6189019680023193, -2.2202112674713135, 1.106689453125, -0.593994140625, 0.09130859375
116, 471052790, -6.689006805419922, 1.6937525272369385, 7.0946221351623535, -2.5871007442474365, -1.7296643257141113, -2.2798891067504883, 1.106201171875, -0.59228515625, 0.08984375
117, 471069457, -6.680209159851074, 1.685214638710022, 7.104111194610596, -2.528588056564331, -1.7325968742370605, -2.2284843921661377, 1.105224609375, -0.594970703125, 0.09130859375
118, 471086124, -6.671546936035156, 1.6988476514816284, 7.116631507873535, -2.5214807987213135, -1.6954197883605957, -2.2262558937072754, 1.104736328125, -0.594482421875, 0.087646484375
119, 471102791, -6.677567481994629, 1.712194561958313, 7.102260589599609, -2.515679359436035, -1.6502388715744019, -2.294564723968506, 1.1083984375, -0.594482421875, 0.091796875
120, 471119458, -6.680662155151367, 1.7052468061447144, 7.080079555511475, -2.4753265380859375, -1.644194483757019, -2.3155417442321777, 1.10791015625, -0.597412109375, 0.08984375
121, 471136125, -6.689708709716797, 1.6980533599853516, 7.114245891571045, -2.535004138946533, -1.6853796243667603, -2.266698122024536, 1.10791015625, -0.593505859375, 0.0888671875
122, 471152792, -6.6712646484375, 1.6853289604187012, 7.083491802215576, -2.5655605792999268, -1.657397985458374, -2.287560224533081, 1.106689453125, -0.593994140625, 0.09033203125
123, 471169459, -6.682579517364502, 1.685244083404541, 7.130975723266602, -2.525604486465454, -1.6591523885726929, -2.293220281600952, 1.105224609375, -0.594482421875, 0.08935546875
124, 471186126, -6.6796112060546875, 1.6996914148330688, 7.087240219116211, -2.516038179397583, -1.649688482284546, -2.2788643836975098, 1.10693359375, -0.594482421875, 0.0908203125
125, 471202793, -6.6747212409973145, 1.7064459323883057, 7.106578826904297, -2.5668413639068604, -1.7303045988082886, -2.2680177688598633, 1.1064453125, -0.596435546875, 0.091796875
126, 471219460, -6.683177471160889, 1.6856286525726318, 7.127453804016113, -2.520596504211426, -1.7123881578445435, -2.2374613285064697, 1.106689453125, -0.593994140625, 0.09130859375
127, 471236127, -6.66595983505249, 1.6839679479599, 7.114626407623291, -2.471280097961426, -1.720149040222168, -2.1833035945892334, 1.106689453125, -0.594482421875, 0.0888671875
128, 471252794, -6.672183990478516, 1.706531047821045, 7.100634574890137, -2.4821527004241943, -1.7118505239486694, -2.1907310485839844, 1.10888671875, -0.593505859375, 0.08984375
129, 471269461, -6.666772842407227, 1.685036301612854, 7.105673313140869, -2.43438458442688, -1.6403398513793945, -2.2151143550872803, 1.105712890625, -0.593017578125, 0.0888671875
130, 471286128, -6.664186477661133, 1.6972461938858032, 7.117631912231445, -2.388563632965088, -1.6369205713272095, -2.1892199516296387, 1.104736328125, -0.596435546875, 0.0888671875
131, 471302795, -6.661069393157959, 1.6978838443756104, 7.085842132568359, -2.4735467433929443, -1.6041619777679443, -2.1973137855529785, 1.104736328125, -0.593994140625, 0.0908203125
132, 471319462, -6.681371688842773, 1.6931017637252808, 7.1185832023620605, -2.4409873485565186, -1.6406127214431763, -2.2587509155273438, 1.105224609375, -0.595458984375, 0.08984375
133, 471336129, -6.681396484375, 1.6948312520980835, 7.117069721221924, -2.4356911182403564, -1.6460516452789307, -2.1560773849487305, 1.1083984375, -0.594970703125, 0.08837890625
134, 471352796, -6.678075313568115, 1.7070443630218506, 7.108166694641113, -2.4059033393859863, -1.595953106880188, -2.219750165939331, 1.105224609375, -0.595458984375, 0.088134765625
135, 471369463, -6.674969673156738, 1.6987017393112183, 7.10650634765625, -2.388845443725586, -1.6700505018234253, -2.1304261684417725, 1.106201171875, -0.595947265625, 0.0908203125
136, 471386130, -6.6781535148620605, 1.6885547637939453, 7.108959674835205, -2.3283097743988037, -1.7147446870803833, -2.1142003536224365, 1.105224609375, -0.593994140625, 0.0888671875
137, 471402797, -6.67482328414917, 1.6717509031295776, 7.110333442687988, -2.4693329334259033, -1.7752673625946045, -2.1320011615753174, 1.103759765625, -0.593505859375, 0.091796875
138, 471419464, -6.6794233322143555, 1.6817591190338135, 7.109086513519287, -2.525822162628174, -1.6616624593734741, -2.11856746673584, 1.107421875, -0.595458984375, 0.08837890625
139, 471436131, -6.6732378005981445, 1.7085285186767578, 7.109241008758545, -2.37393856048584, -1.6254717111587524, -2.1881825923919678, 1.104736328125, -0.593017578125, 0.0888671875
140, 471452798, -6.668474197387695, 1.691340446472168, 7.114100933074951, -2.4388537406921387, -1.6696789264678955, -2.237102746963501, 1.107421875, -0.593994140625, 0.09033203125
141, 471469465, -6.665389537811279, 1.717085361480713, 7.125926494598389, -2.4738411903381348, -1.6549773216247559, -2.1671416759490967, 1.104736328125, -0.594482421875, 0.08935546875
142, 471486132, -6.6763811111450195, 1.70347261428833, 7.097644805908203, -2.3434338569641113, -1.678131341934204, -2.2157161235809326, 1.102783203125, -0.593017578125, 0.089111328125
143, 471502799, -6.660367012023926, 1.6787337064743042, 7.117468357086182, -2.393353223800659, -1.6442970037460327, -2.254519462585449, 1.107421875, -0.594482421875, 0.0908203125
144, 471519466, -6.666438102722168, 1.6977356672286987, 7.099687576293945, -2.3553569316864014, -1.6138819456100464, -2.209530830383301, 1.106201171875, -0.595458984375, 0.091796875
145, 471536133, -6.675621032714844, 1.684272289276123, 7.1370954513549805, -2.497455596923828, -1.658780813217163, -2.2826292514801025, 1.105712890625, -0.594970703125, 0.09033203125
146, 471552800, -6.6847381591796875, 1.6991004943847656, 7.107117176055908, -2.489426374435425, -1.6773885488510132, -2.2565689086914062, 1.107421875, -0.596435546875, 0.08837890625
147, 471569467, -6.665686130523682, 1.6789368391036987, 7.110716819763184, -2.5520241260528564, -1.8745554685592651, -2.2973060607910156, 1.107421875, -0.595458984375, 0.0888671875
148, 471586134, -6.669661521911621, 1.6869542598724365, 7.118924617767334, -2.509762763977051, -1.7519725561141968, -2.1937663555145264, 1.105224609375, -0.593505859375, 0.08984375
149, 471602801, -6.665556907653809, 1.6889625787734985, 7.1000800132751465, -2.458690881729126, -1.6062235832214355, -2.1275060176849365, 1.103759765625, -0.593994140625, 0.0888671875
150, 471619468, -6.66437292098999, 1.6813873052597046, 7.094666004180908, -2.5019636154174805, -1.5469045639038086, -2.179218053817749, 1.107421875, -0.593994140625, 0.08837890625
151, 471636135, -6.674468517303467, 1.7039682865142822, 7.1209282875061035, -2.4329118728637695, -1.6598823070526123, -2.1197457313537598, 1.103759765625, -0.594482421875, 0.0888671875
152, 471652802, -6.676474094390869, 1.6938021183013916, 7.112396240234375, -2.432028293609619, -1.6740334033966064, -2.2227213382720947, 1.106201171875, -0.595458984375, 0.08984375
153, 471669469, -6.673128604888916, 1.6845992803573608, 7.109920501708984, -2.444796562194824, -1.7295360565185547, -2.2049975395202637, 1.104248046875, -0.59228515625, 0.08935546875
154, 471686136, -6.6763715744018555, 1.7017691135406494, 7.111719608306885, -2.413958787918091, -1.7120426893234253, -2.129209518432617, 1.104736328125, -0.594970703125, 0.08935546875
155, 471702803, -6.678633213043213, 1.6786192655563354, 7.111937522888184, -2.44954776763916, -1.594813346862793, -2.149789333343506, 1.104736328125, -0.594970703125, 0.09228515625
156, 471719470, -6.6754150390625, 1.6911035776138306, 7.079693794250488, -2.3776910305023193, -1.720008134841919, -2.0991785526275635, 1.106689453125, -0.595458984375, 0.0888671875
157, 471736137, -6.673730850219727, 1.6934703588485718, 7.096538066864014, -2.3785104751586914, -1.7347995042800903, -2.0861544609069824, 1.10693359375, -0.595458984375, 0.08837890625
158, 471752804, -6.6770453453063965, 1.7091675996780396, 7.121650695800781, -2.37003231048584, -1.6203618049621582, -2.08414363861084, 1.106689453125, -0.594482421875, 0.087890625
159, 471769471, -6.655227184295654, 1.7032744884490967, 7.125910758972168, -2.3429601192474365, -1.60809326171875, -2.1211156845092773, 1.106201171875, -0.594482421875, 0.09130859375
160, 471786138, -6.6685004234313965, 1.6967746019363403, 7.102900505065918, -2.382122039794922, -1.5302947759628296, -2.1699976921081543, 1.106201171875, -0.594970703125, 0.09033203125
161, 471802805, -6.6591477394104, 1.6904491186141968, 7.097897529602051, -2.4097838401794434, -1.4990473985671997, -2.1944580078125, 1.105224609375, -0.593994140625, 0.08984375
162, 471819472, -6.667366981506348, 1.690857172012329, 7.114241600036621, -2.367804527282715, -1.4237972497940063, -2.2538793087005615, 1.105712890625, -0.595458984375, 0.08837890625
163, 471836139, -6.664186477661133, 1.6879013776779175, 7.107758522033691, -2.3189499378204346, -1.5649702548980713, -2.2641162872314453, 1.10693359375, -0.595947265625, 0.08740234375
164, 471852806, -6.671027660369873, 1.7014683485031128, 7.102513790130615, -2.3456239700317383, -1.493655800819397, -2.1924214363098145, 1.107421875, -0.594482421875, 0.09130859375
165, 471869473, -6.678534507751465, 1.6925182342529297, 7.109557151794434, -2.329693078994751, -1.5553696155548096, -2.2362706661224365, 1.107177734375, -0.594482421875, 0.087646484375
166, 471886140, -6.661468982696533, 1.6904441118240356, 7.113006591796875, -2.453261375427246, -1.4532262086868286, -2.2362706661224365, 1.104248046875, -0.592529296875, 0.08935546875
167, 471902807, -6.660358905792236, 1.712398886680603, 7.112565040588379, -2.4309654235839844, -1.456965684890747, -2.2207493782043457, 1.104736328125, -0.593994140625, 0.09130859375
168, 471919474, -6.669826030731201, 1.6880168914794922, 7.104074954986572, -2.4120118618011475, -1.4401253461837769, -2.2019238471984863, 1.107177734375, -0.594482421875, 0.0888671875
169, 471936141, -6.673903942108154, 1.6963257789611816, 7.1016411781311035, -2.34055233001709, -1.3570504188537598, -2.2097482681274414, 1.106689453125, -0.595458984375, 0.08984375
170, 471952808, -6.675677299499512, 1.7038469314575195, 7.109594345092773, -2.3643596172332764, -1.4507290124893188, -2.277609348297119, 1.107177734375, -0.594482421875, 0.08935546875
171, 471969475, -6.672748565673828, 1.703919529914856, 7.122679710388184, -2.4069406986236572, -1.5537177324295044, -2.2468485832214355, 1.107177734375, -0.593994140625, 0.087890625
172, 471986142, -6.681451797485352, 1.7046887874603271, 7.095395565032959, -2.4199907779693604, -1.599974274635315, -2.231736898422241, 1.103759765625, -0.595458984375, 0.08984375
173, 472002809, -6.674473285675049, 1.688345193862915, 7.099486827850342, -2.3588016033172607, -1.603534460067749, -2.1741981506347656, 1.103271484375, -0.594482421875, 0.0908203125
174, 472019476, -6.674520969390869, 1.6849781274795532, 7.108823299407959, -2.388179302215576, -1.6777726411819458, -2.2207746505737305, 1.106201171875, -0.593017578125, 0.0908203125
175, 472036143, -6.66575288772583, 1.7043129205703735, 7.0988898277282715, -2.478182315826416, -1.549811601638794, -2.2164204120635986, 1.106201171875, -0.593994140625, 0.09033203125
176, 472052810, -6.668251037597656, 1.7003252506256104, 7.101122856140137, -2.4800524711608887, -1.6531846523284912, -2.279633045196533, 1.10693359375, -0.594970703125, 0.08837890625
177, 472069477, -6.667121410369873, 1.7105900049209595, 7.11562967300415, -2.44167160987854, -1.6199778318405151, -2.28019642829895, 1.105712890625, -0.594482421875, 0.08837890625
178, 472086144, -6.666053295135498, 1.7087993621826172, 7.105590343475342, -2.42512583732605, -1.578446865081787, -2.249499559402466, 1.103759765625, -0.594970703125, 0.088623046875
179, 472102811, -6.679347515106201, 1.6932978630065918, 7.120475769042969, -2.41363787651062, -1.469566822052002, -2.119642972946167, 1.104736328125, -0.593017578125, 0.09033203125
180, 472119478, -6.667458534240723, 1.7116955518722534, 7.098127365112305, -2.341282606124878, -1.6217577457427979, -2.147765874862671, 1.106201171875, -0.594970703125, 0.08837890625
181, 472136145, -6.659340858459473, 1.6979081630706787, 7.109235763549805, -2.3400914669036865, -1.6296335458755493, -2.197774648666382, 1.10693359375, -0.595458984375, 0.0888671875
182, 472152812, -6.665102481842041, 1.6874762773513794, 7.131458282470703, -2.3673689365386963, -1.5751808881759644, -2.127121686935425, 1.106201171875, -0.593505859375, 0.087646484375
183, 472169479, -6.6733927726745605, 1.6982494592666626, 7.098841667175293, -2.3277974128723145, -1.600050926208496, -2.1224474906921387, 1.10693359375, -0.594970703125, 0.08837890625
184, 472186146, -6.665187358856201, 1.7095609903335571, 7.116314888000488, -2.3816096782684326, -1.593673586845398, -2.1107044219970703, 1.104736328125, -0.594482421875, 0.088134765625
185, 472202813, -6.6584367752075195, 1.684884786605835, 7.111483573913574, -2.247066020965576, -1.5559715032577515, -2.144896984100342, 1.104736328125, -0.595458984375, 0.087646484375
186, 472219480, -6.675525188446045, 1.7002637386322021, 7.1081929206848145, -2.3738746643066406, -1.4645085334777832, -2.1667063236236572, 1.107421875, -0.597900390625, 0.0908203125
187, 472236147, -6.6760759353637695, 1.719953179359436, 7.112076282501221, -2.393353223800659, -1.5223805904388428, -2.2546091079711914, 1.106201171875, -0.595947265625, 0.08935546875
188, 472252814, -6.674729824066162, 1.6937997341156006, 7.08656120300293, -2.486147880554199, -1.6757749319076538, -2.1341142654418945, 1.107177734375, -0.594482421875, 0.08984375
189, 472269481, -6.680417537689209, 1.6927354335784912, 7.10697603225708, -2.3870909214019775, -1.6975330114364624, -2.0987048149108887, 1.105224609375, -0.596435546875, 0.087646484375
190, 472286148, -6.677987575531006, 1.6985515356063843, 7.125971794128418, -2.3530771732330322, -1.7085720300674438, -2.164337396621704, 1.103759765625, -0.594970703125, 0.08984375
191, 472302815, -6.667873859405518, 1.7128207683563232, 7.107002258300781, -2.3740668296813965, -1.6868780851364136, -2.098576784133911, 1.104736328125, -0.595458984375, 0.08984375
192, 472319482, -6.661458492279053, 1.7182835340499878, 7.122754096984863, -2.4428751468658447, -1.6063261032104492, -2.173532485961914, 1.106689453125, -0.594970703125, 0.09130859375
193, 472336149, -6.672492980957031, 1.711930513381958, 7.115170955657959, -2.436549186706543, -1.5552802085876465, -2.2737035751342773, 1.107421875, -0.595458984375, 0.09033203125
194, 472352816, -6.659916400909424, 1.7018226385116577, 7.09752893447876, -2.3965160846710205, -1.419545292854309, -2.1172351837158203, 1.106689453125, -0.595947265625, 0.0888671875
195, 472369483, -6.671538829803467, 1.7049763202667236, 7.134578704833984, -2.3910324573516846, -1.4326244592666626, -2.1986796855926514, 1.105712890625, -0.596435546875, 0.0908203125
196, 472386150, -6.6641950607299805, 1.7099390029907227, 7.102601528167725, -2.397707462310791, -1.5647053718566895, -2.2156524658203125, 1.103759765625, -0.594482421875, 0.08984375
197, 472402817, -6.672332763671875, 1.7036727666854858, 7.0845112800598145, -2.347186326980591, -1.5637706518173218, -2.1981074810028076, 1.104736328125, -0.594970703125, 0.09033203125
198, 472419484, -6.672738552093506, 1.7102402448654175, 7.099853038787842, -2.443387746810913, -1.6002304553985596, -2.120744466781616, 1.105224609375, -0.595458984375, 0.087646484375
199, 472436151, -6.657391548156738, 1.7043664455413818, 7.1003737449646, -2.416724681854248, -1.6210790872573853, -2.1948676109313965, 1.106201171875, -0.595947265625, 0.09033203125
200, 472452818, -6.657044887542725, 1.7007158994674683, 7.113619327545166, -2.4813456535339355, -1.6263680458068848, -2.196737289428711, 1.1083984375, -0.595458984375, 0.08837890625
201, 472469485, -6.660486698150635, 1.7054811716079712, 7.118288993835449, -2.400268316268921, -1.636164903640747, -2.1323468685150146, 1.105224609375, -0.596435546875, 0.08935546875
202, 472486152, -6.674556732177734, 1.721272587776184, 7.108865261077881, -2.373695135116577, -1.545636773109436, -2.140453338623047, 1.106201171875, -0.596435546875, 0.08984375
203, 472502819, -6.672708988189697, 1.7056957483291626, 7.1242146492004395, -2.310380697250366, -1.5623104572296143, -2.1943552494049072, 1.106201171875, -0.595947265625, 0.09033203125
204, 472519486, -6.668217658996582, 1.7154226303100586, 7.115729808807373, -2.3503496646881104, -1.5649489164352417, -2.1188364028930664, 1.10791015625, -0.595458984375, 0.087890625
205, 472536153, -6.675839900970459, 1.7118611335754395, 7.100506782531738, -2.3524367809295654, -1.5920724868774414, -2.0669193267822266, 1.10791015625, -0.596435546875, 0.09033203125
206, 472552820, -6.662063121795654, 1.7010787725448608, 7.099780082702637, -2.333637237548828, -1.573862075805664, -2.1762983798980713, 1.106201171875, -0.595458984375, 0.0888671875
207, 472569487, -6.663809776306152, 1.702195644378662, 7.126290798187256, -2.278749465942383, -1.5034912824630737, -2.1889383792877197, 1.104248046875, -0.596435546875, 0.0888671875
208, 472586154, -6.653526306152344, 1.691707730293274, 7.10252571105957, -2.2323646545410156, -1.5671004056930542, -2.209172248840332, 1.105224609375, -0.595947265625, 0.087890625
209, 472602821, -6.661769390106201, 1.705663800239563, 7.118289470672607, -2.2844605445861816, -1.4170482158660889, -2.1837258338928223, 1.104736328125, -0.596435546875, 0.08935546875
210, 472619488, -6.675458908081055, 1.7072608470916748, 7.110391616821289, -2.286163806915283, -1.39381742477417, -2.184110164642334, 1.106201171875, -0.597412109375, 0.08935546875
211, 472636155, -6.686488628387451, 1.7024009227752686, 7.118931293487549, -2.3688676357269287, -1.4776095151901245, -2.16459321975708, 1.1083984375, -0.593994140625, 0.0888671875
212, 472652822, -6.667548179626465, 1.697946310043335, 7.12384557723999, -2.332254409790039, -1.54721200466156, -2.1436164379119873, 1.105712890625, -0.596435546875, 0.087890625
213, 472669489, -6.668915748596191, 1.7141473293304443, 7.101356029510498, -2.3546009063720703, -1.5649101734161377, -2.1014578342437744, 1.104736328125, -0.596923828125, 0.09130859375
214, 472686156, -6.6676926612854, 1.7028175592422485, 7.097103118896484, -2.336313486099243, -1.5722867250442505, -2.154578447341919, 1.104736328125, -0.596435546875, 0.0888671875
215, 472702823, -6.6658501625061035, 1.7199382781982422, 7.104158878326416, -2.3444838523864746, -1.5629509687423706, -2.0423948764801025, 1.104736328125, -0.594482421875, 0.0908203125
216, 472719490, -6.666977882385254, 1.7068928480148315, 7.101970672607422, -2.3158998489379883, -1.648766279220581, -2.14150333404541, 1.1064453125, -0.596923828125, 0.08740234375
217, 472736157, -6.662802696228027, 1.693358302116394, 7.114843845367432, -2.3366081714630127, -1.6480237245559692, -1.9784786701202393, 1.10791015625, -0.597412109375, 0.08837890625
218, 472752824, -6.6641011238098145, 1.6997772455215454, 7.107378005981445, -2.264495372772217, -1.6575514078140259, -1.9615870714187622, 1.106201171875, -0.594482421875, 0.087890625
219, 472769491, -6.6844072341918945, 1.727096676826477, 7.088179111480713, -2.1939711570739746, -1.6618287563323975, -1.9215160608291626, 1.10693359375, -0.595458984375, 0.0888671875
220, 472786158, -6.674196243286133, 1.70792555809021, 7.118176460266113, -2.314389228820801, -1.6475754976272583, -1.9717426300048828, 1.103271484375, -0.596923828125, 0.087646484375
221, 472802825, -6.668774127960205, 1.709134578704834, 7.10851526260376, -2.369636058807373, -1.7851284742355347, -1.9717938899993896, 1.104736328125, -0.595458984375, 0.08935546875
222, 472819492, -6.660137176513672, 1.7034976482391357, 7.098283767700195, -2.3419742584228516, -1.748796820640564, -1.9297248125076294, 1.107421875, -0.595458984375, 0.087890625
223, 472836159, -6.6555495262146, 1.7410439252853394, 7.098053932189941, -2.273408889770508, -1.501941442489624, -2.05576491355896, 1.10693359375, -0.596435546875, 0.08935546875
224, 472852826, -6.663547039031982, 1.725959300994873, 7.102563381195068, -2.266038656234741, -1.4829431772232056, -2.1543288230895996, 1.10791015625, -0.596435546875, 0.08837890625
225, 472869493, -6.667046546936035, 1.7153550386428833, 7.108639240264893, -2.470614194869995, -1.5848499536514282, -2.235860824584961, 1.1064453125, -0.596923828125, 0.0888671875
226, 472886160, -6.684004306793213, 1.7270039319992065, 7.110550403594971, -2.372157096862793, -1.609571933746338, -2.165257453918457, 1.104736328125, -0.595947265625, 0.08935546875
227, 472902827, -6.66283655166626, 1.7208513021469116, 7.107187747955322, -2.4189789295196533, -1.5894089937210083, -2.269080400466919, 1.104248046875, -0.596923828125, 0.088134765625
228, 472919494, -6.658193588256836, 1.7089216709136963, 7.120335578918457, -2.451314926147461, -1.720008134841919, -2.2242581844329834, 1.105224609375, -0.596923828125, 0.087158203125
229, 472936161, -6.660784721374512, 1.7139695882797241, 7.123266220092773, -2.4046614170074463, -1.694920539855957, -2.2474377155303955, 1.10791015625, -0.597900390625, 0.08935546875
230, 472952828, -6.660309791564941, 1.7237027883529663, 7.127885818481445, -2.470139980316162, -1.7021688222885132, -2.2485005855560303, 1.1064453125, -0.596435546875, 0.087890625
231, 472969495, -6.661818504333496, 1.7146159410476685, 7.127438068389893, -2.3605942726135254, -1.6407110691070557, -2.2811310291290283, 1.106689453125, -0.595947265625, 0.0888671875
232, 472986162, -6.650005340576172, 1.7119100093841553, 7.113075256347656, -2.4738924503326416, -1.6515966653823853, -2.2520477771759033, 1.105712890625, -0.595458984375, 0.08984375
233, 473002829, -6.6650190353393555, 1.7123600244522095, 7.125063419342041, -2.603480100631714, -1.5821735858917236, -2.2884182929992676, 1.1064453125, -0.596435546875, 0.087890625
234, 473019496, -6.6820597648620605, 1.7158148288726807, 7.1117987632751465, -2.5421628952026367, -1.6102705001831055, -2.3435492515563965, 1.105224609375, -0.595458984375, 0.08837890625
235, 473036163, -6.674000263214111, 1.725015640258789, 7.124037265777588, -2.5627431869506836, -1.6527879238128662, -2.34299898147583, 1.10791015625, -0.5986328125, 0.0888671875
236, 473052830, -6.661332607269287, 1.7074793577194214, 7.1154093742370605, -2.6355597972869873, -1.6720483303070068, -2.273972272872925, 1.105224609375, -0.595458984375, 0.08984375
237, 473069497, -6.6680192947387695, 1.7102798223495483, 7.110110759735107, -2.5388848781585693, -1.6845347881317139, -2.3716981410980225, 1.104248046875, -0.59765625, 0.08837890625
238, 473086164, -6.649485111236572, 1.7106504440307617, 7.103592872619629, -2.4223334789276123, -1.7224795818328857, -2.2896084785461426, 1.102783203125, -0.595458984375, 0.09033203125
239, 473102831, -6.665177822113037, 1.711090087890625, 7.089363098144531, -2.541433334350586, -1.6679633855819702, -2.298983573913574, 1.106201171875, -0.596435546875, 0.0888671875
240, 473119498, -6.652037620544434, 1.7152469158172607, 7.137272357940674, -2.4171347618103027, -1.78546142578125, -2.230545997619629, 1.1064453125, -0.597412109375, 0.0908203125
241, 473136165, -6.656442165374756, 1.6870148181915283, 7.10953950881958, -2.5324559211730957, -1.6559251546859741, -2.222951889038086, 1.107421875, -0.595947265625, 0.08984375
242, 473152832, -6.6649041175842285, 1.6996711492538452, 7.099245071411133, -2.5163838863372803, -1.5335348844528198, -2.2653026580810547, 1.105224609375, -0.595458984375, 0.08935546875
243, 473169499, -6.672740459442139, 1.7137067317962646, 7.12953519821167, -2.400332450866699, -1.4789925813674927, -2.2772765159606934, 1.10791015625, -0.59814453125, 0.0869140625
244, 473186166, -6.667069911956787, 1.7252000570297241, 7.109638214111328, -2.3701605796813965, -1.528181552886963, -2.0762550830841064, 1.105224609375, -0.596923828125, 0.0888671875
245, 473202833, -6.663422584533691, 1.7216837406158447, 7.118688583374023, -2.4409031867980957, -1.5920727252960205, -2.2168691158294678, 1.105712890625, -0.597412109375, 0.08837890625
246, 473219500, -6.662054538726807, 1.7098383903503418, 7.112060546875, -2.4767608642578125, -1.5173732042312622, -2.304464340209961, 1.105224609375, -0.595947265625, 0.08935546875
247, 473236167, -6.6585774421691895, 1.720063328742981, 7.112895965576172, -2.388422727584839, -1.654798150062561, -2.1541049480438232, 1.10791015625, -0.595458984375, 0.086669921875
248, 473252834, -6.668492794036865, 1.720826268196106, 7.12927770614624, -2.4263808727264404, -1.5420382022857666, -2.164030075073242, 1.104736328125, -0.597412109375, 0.086669921875
249, 473269501, -6.668922424316406, 1.7069731950759888, 7.116659164428711, -2.442350149154663, -1.6826646327972412, -2.1905901432037354, 1.105712890625, -0.596923828125, 0.087890625
250, 473286168, -6.673691272735596, 1.7153856754302979, 7.124181270599365, -2.4316952228546143, -1.6675020456314087, -2.1609179973602295, 1.104736328125, -0.595458984375, 0.09130859375
251, 473302835, -6.65977668762207, 1.7032376527786255, 7.143967628479004, -2.3988730907440186, -1.7171523571014404, -2.167487621307373, 1.105712890625, -0.593994140625, 0.086669921875
252, 473319502, -6.663811206817627, 1.7121385335922241, 7.141982555389404, -2.4711899757385254, -1.6089513301849365, -2.2650845050811768, 1.105712890625, -0.59814453125, 0.08740234375
253, 473336169, -6.660797119140625, 1.71481454372406, 7.114927768707275, -2.452390432357788, -1.6829338073730469, -2.227843999862671, 1.10693359375, -0.596435546875, 0.087890625
254, 473352836, -6.660457134246826, 1.7205499410629272, 7.102888107299805, -2.4138946533203125, -1.7060877084732056, -2.1244709491729736, 1.105224609375, -0.596435546875, 0.08935546875
255, 473369503, -6.663078308105469, 1.7255566120147705, 7.107805252075195, -2.5458898544311523, -1.7207765579223633, -2.2227983474731445, 1.105224609375, -0.595947265625, 0.0888671875
256, 473386170, -6.657210350036621, 1.7203047275543213, 7.121048450469971, -2.433347225189209, -1.6868524551391602, -2.1437318325042725, 1.106689453125, -0.595458984375, 0.08837890625
257, 473402837, -6.644946575164795, 1.7147125005722046, 7.107460975646973, -2.365217447280884, -1.6047765016555786, -2.119758129119873, 1.10693359375, -0.595947265625, 0.087890625
258, 473419504, -6.647627353668213, 1.726338267326355, 7.127456188201904, -2.3497984409332275, -1.5642914772033691, -2.192674398422241, 1.106201171875, -0.595458984375, 0.08837890625
259, 473436171, -6.66825532913208, 1.7259986400604248, 7.110837936401367, -2.3698790073394775, -1.4779679775238037, -2.145934581756592, 1.10693359375, -0.596435546875, 0.087158203125
260, 473452838, -6.676681041717529, 1.717729091644287, 7.1285014152526855, -2.33563494682312, -1.6806284189224243, -2.2137951850891113, 1.106201171875, -0.594970703125, 0.086669921875
261, 473469505, -6.673305511474609, 1.7112181186676025, 7.105370044708252, -2.405723810195923, -1.6637753248214722, -2.1851091384887695, 1.106201171875, -0.595947265625, 0.08935546875
262, 473486172, -6.648843765258789, 1.7175196409225464, 7.116917133331299, -2.4400837421417236, -1.637765884399414, -2.1440906524658203, 1.101318359375, -0.596923828125, 0.08935546875
263, 473502839, -6.674807548522949, 1.7139313220977783, 7.144755840301514, -2.4643001556396484, -1.6359599828720093, -2.211874485015869, 1.102783203125, -0.596435546875, 0.088623046875
264, 473519506, -6.665612697601318, 1.719094157218933, 7.128835678100586, -2.58528208732605, -1.6670668125152588, -2.240701675415039, 1.104736328125, -0.596923828125, 0.08935546875
265, 473536173, -6.666329383850098, 1.7183302640914917, 7.094130992889404, -2.545825481414795, -1.6695125102996826, -2.2647640705108643, 1.10791015625, -0.595458984375, 0.09033203125
266, 473552840, -6.655112266540527, 1.7149511575698853, 7.102542400360107, -2.4911680221557617, -1.5925593376159668, -2.2946548461914062, 1.105712890625, -0.597412109375, 0.084716796875
267, 473569507, -6.668564319610596, 1.7090590000152588, 7.122597694396973, -2.541714668273926, -1.5177316665649414, -2.324864625930786, 1.105712890625, -0.595947265625, 0.08935546875
268, 473586174, -6.64442777633667, 1.7169289588928223, 7.123519420623779, -2.4368820190429688, -1.508549690246582, -2.3392975330352783, 1.104736328125, -0.594970703125, 0.088134765625
269, 473602841, -6.6568193435668945, 1.6935639381408691, 7.111667156219482, -2.446166515350342, -1.5394258499145508, -2.3089210987091064, 1.104248046875, -0.595458984375, 0.0888671875
270, 473619508, -6.658206939697266, 1.7168662548065186, 7.121914863586426, -2.45857572555542, -1.5705962181091309, -2.2760725021362305, 1.106201171875, -0.594970703125, 0.086669921875
271, 473636175, -6.657825946807861, 1.7033684253692627, 7.119190692901611, -2.4491758346557617, -1.5551519393920898, -2.3582634925842285, 1.105712890625, -0.594482421875, 0.08837890625
272, 473652842, -6.651353359222412, 1.7260494232177734, 7.113045692443848, -2.4675917625427246, -1.5008659362792969, -2.292964220046997, 1.105712890625, -0.593994140625, 0.087646484375
273, 473669509, -6.659270286560059, 1.7116585969924927, 7.1268768310546875, -2.36269474029541, -1.5518224239349365, -2.319511890411377, 1.106201171875, -0.596923828125, 0.087158203125
274, 473686176, -6.65842866897583, 1.7127714157104492, 7.121463775634766, -2.5388715267181396, -1.4910178184509277, -2.2535717487335205, 1.104248046875, -0.596923828125, 0.087646484375
275, 473702843, -6.673285484313965, 1.7178430557250977, 7.100575923919678, -2.488581418991089, -1.398146152496338, -2.24453067779541, 1.106201171875, -0.594970703125, 0.087890625
276, 473719510, -6.659519195556641, 1.7089310884475708, 7.104888916015625, -2.438777208328247, -1.4497171640396118, -2.341961145401001, 1.104248046875, -0.596435546875, 0.088134765625
277, 473736177, -6.6706156730651855, 1.7234766483306885, 7.110706806182861, -2.494741201400757, -1.427587866783142, -2.2194299697875977, 1.10546875, -0.599609375, 0.087890625
278, 473752844, -6.670209884643555, 1.7026770114898682, 7.103237152099609, -2.40078067779541, -1.5834028720855713, -2.2460289001464844, 1.105712890625, -0.594970703125, 0.086669921875
279, 473769511, -6.668127059936523, 1.70905601978302, 7.107690334320068, -2.372593879699707, -1.4798504114151, -2.2036781311035156, 1.10791015625, -0.597900390625, 0.08837890625
280, 473786178, -6.650969982147217, 1.7193071842193604, 7.136466026306152, -2.4086568355560303, -1.4582974910736084, -2.3272597789764404, 1.104248046875, -0.595947265625, 0.087158203125
281, 473802845, -6.6669721603393555, 1.7127869129180908, 7.119603157043457, -2.418376922607422, -1.4874191284179688, -2.322380542755127, 1.105224609375, -0.595947265625, 0.08935546875
282, 473819512, -6.645275592803955, 1.7205710411071777, 7.114956855773926, -2.4587554931640625, -1.4581694602966309, -2.2852675914764404, 1.10791015625, -0.596923828125, 0.08740234375
283, 473836179, -6.660242557525635, 1.7165809869766235, 7.120649814605713, -2.47902774810791, -1.4508699178695679, -2.3281431198120117, 1.106201171875, -0.596923828125, 0.08740234375
284, 473852846, -6.66481351852417, 1.7048109769821167, 7.111026763916016, -2.396138906478882, -1.5669785737991333, -2.2740299701690674, 1.106201171875, -0.593505859375, 0.086669921875
285, 473869513, -6.668341636657715, 1.712949275970459, 7.115961074829102, -2.4519295692443848, -1.6242806911468506, -2.3076274394989014, 1.105224609375, -0.596923828125, 0.087158203125
286, 473886180, -6.666231155395508, 1.6879390478134155, 7.130439281463623, -2.5148980617523193, -1.4965883493423462, -2.3489534854888916, 1.104248046875, -0.593994140625, 0.086181640625
287, 473902847, -6.663611888885498, 1.716084599494934, 7.123477458953857, -2.5351195335388184, -1.5561636686325073, -2.3548190593719482, 1.105712890625, -0.596923828125, 0.08837890625
288, 473919514, -6.660764217376709, 1.714084267616272, 7.11940860748291, -2.5010805130004883, -1.5295008420944214, -2.3007633686065674, 1.104248046875, -0.597412109375, 0.088134765625
289, 473936181, -6.666923999786377, 1.702919602394104, 7.119104862213135, -2.5191781520843506, -1.572397232055664, -2.351834774017334, 1.10693359375, -0.596435546875, 0.086181640625
290, 473952848, -6.670782089233398, 1.7128864526748657, 7.1226983070373535, -2.5208916664123535, -1.4622290134429932, -2.3612091541290283, 1.106201171875, -0.594482421875, 0.08837890625
291, 473969515, -6.659029960632324, 1.6990638971328735, 7.102508068084717, -2.4720609188079834, -1.5129804611206055, -2.359210968017578, 1.10791015625, -0.594970703125, 0.08740234375
292, 473986182, -6.648906707763672, 1.7109163999557495, 7.112152099609375, -2.4442970752716064, -1.4176630973815918, -2.231557607650757, 1.104736328125, -0.595458984375, 0.08837890625
293, 474002849, -6.672255516052246, 1.7105456590652466, 7.099850177764893, -2.4623029232025146, -1.391409993171692, -2.2753169536590576, 1.103759765625, -0.593505859375, 0.09033203125
294, 474019516, -6.661952495574951, 1.7030079364776611, 7.101101398468018, -2.527179718017578, -1.525313138961792, -2.3406167030334473, 1.104736328125, -0.597412109375, 0.08837890625
295, 474036183, -6.659402847290039, 1.7107254266738892, 7.119263648986816, -2.443413019180298, -1.6359727382659912, -2.3393356800079346, 1.104736328125, -0.595458984375, 0.09130859375
296, 474052850, -6.654910564422607, 1.7058430910110474, 7.106555461883545, -2.4750959873199463, -1.6506489515304565, -2.254481077194214, 1.104736328125, -0.595947265625, 0.08935546875
297, 474069517, -6.6716203689575195, 1.7131729125976562, 7.12977933883667, -2.5458767414093018, -1.6678862571716309, -2.363591194152832, 1.10693359375, -0.595947265625, 0.0888671875
298, 474086184, -6.664276599884033, 1.709252953529358, 7.129981994628906, -2.6278762817382812, -1.6246778964996338, -2.3497862815856934, 1.106689453125, -0.593994140625, 0.08984375
299, 474102851, -6.658385753631592, 1.7117390632629395, 7.096203804016113, -2.528946876525879, -1.6357296705245972, -2.333496570587158, 1.105712890625, -0.595458984375, 0.08837890625
300, 474119518, -6.666679859161377, 1.704108715057373, 7.092761039733887, -2.535196304321289, -1.5396947860717773, -2.338413953781128, 1.106201171875, -0.596923828125, 0.0888671875
301, 474136185, -6.664074897766113, 1.7042515277862549, 7.120870590209961, -2.592543125152588, -1.5162845849990845, -2.361567735671997, 1.104736328125, -0.597412109375, 0.08837890625
302, 474152852, -6.655163764953613, 1.709222435951233, 7.143842697143555, -2.494497776031494, -1.4276392459869385, -2.3275668621063232, 1.105712890625, -0.596923828125, 0.08837890625
303, 474169519, -6.664196968078613, 1.70997953414917, 7.108253479003906, -2.563434362411499, -1.4706045389175415, -2.3558948040008545, 1.105712890625, -0.596435546875, 0.08935546875
304, 474186186, -6.676095485687256, 1.7024842500686646, 7.126736640930176, -2.5022072792053223, -1.4912996292114258, -2.310457706451416, 1.105712890625, -0.595458984375, 0.08837890625
305, 474202853, -6.666076183319092, 1.7013193368911743, 7.125239849090576, -2.477170467376709, -1.615431308746338, -2.2834360599517822, 1.105224609375, -0.593994140625, 0.08837890625
306, 474219520, -6.653477668762207, 1.6957893371582031, 7.120938301086426, -2.4251513481140137, -1.5935966968536377, -2.201322078704834, 1.106689453125, -0.595458984375, 0.09033203125
307, 474236187, -6.665431022644043, 1.6908462047576904, 7.1235175132751465, -2.369046688079834, -1.4789029359817505, -2.2890968322753906, 1.105224609375, -0.597412109375, 0.087646484375
308, 474252854, -6.6577467918396, 1.6919933557510376, 7.124109745025635, -2.4432082176208496, -1.4488976001739502, -2.400908946990967, 1.103759765625, -0.594970703125, 0.08984375
309, 474269521, -6.66547155380249, 1.6968528032302856, 7.108721733093262, -2.5220696926116943, -1.4487439393997192, -2.3199985027313232, 1.10693359375, -0.596923828125, 0.0888671875
310, 474286188, -6.676912784576416, 1.698733925819397, 7.121796607971191, -2.5280630588531494, -1.4087753295898438, -2.349440097808838, 1.103759765625, -0.595947265625, 0.08935546875
311, 474302855, -6.673647880554199, 1.7080166339874268, 7.118162155151367, -2.5125162601470947, -1.482527256011963, -2.312314987182617, 1.104248046875, -0.593017578125, 0.088623046875
312, 474319522, -6.6578688621521, 1.7015661001205444, 7.115092754364014, -2.5204052925109863, -1.587065577507019, -2.3756039142608643, 1.104248046875, -0.594482421875, 0.08935546875
313, 474336189, -6.665882587432861, 1.6949280500411987, 7.108443260192871, -2.4969563484191895, -1.6393024921417236, -2.3501317501068115, 1.105712890625, -0.594482421875, 0.088134765625
314, 474352856, -6.675322532653809, 1.6995042562484741, 7.128029823303223, -2.437624931335449, -1.6114102602005005, -2.272423028945923, 1.10888671875, -0.593994140625, 0.08935546875
315, 474369523, -6.669564723968506, 1.692270040512085, 7.10432243347168, -2.50042724609375, -1.5907407999038696, -2.2410473823547363, 1.106689453125, -0.592529296875, 0.08984375
316, 474386190, -6.6638875007629395, 1.7020055055618286, 7.115111351013184, -2.4698712825775146, -1.5758470296859741, -2.2329537868499756, 1.105224609375, -0.594970703125, 0.08837890625
317, 474402857, -6.675571918487549, 1.6913448572158813, 7.108076572418213, -2.4443352222442627, -1.5849779844284058, -2.2927849292755127, 1.105224609375, -0.595947265625, 0.087646484375
318, 474419524, -6.667116165161133, 1.6979128122329712, 7.132781982421875, -2.4771833419799805, -1.6820498704910278, -2.2539045810699463, 1.10791015625, -0.595458984375, 0.086669921875
319, 474436191, -6.6797003746032715, 1.7037900686264038, 7.113429069519043, -2.534235954284668, -1.634922981262207, -2.3598263263702393, 1.1064453125, -0.59765625, 0.087890625
320, 474452858, -6.655863285064697, 1.7030318975448608, 7.124621868133545, -2.47270131111145, -1.608413577079773, -2.3177061080932617, 1.106201171875, -0.595947265625, 0.086669921875
321, 474469525, -6.661159038543701, 1.7058260440826416, 7.110069751739502, -2.571566104888916, -1.609994649887085, -2.3430888652801514, 1.106689453125, -0.595458984375, 0.08837890625
322, 474486192, -6.6682233810424805, 1.7077264785766602, 7.105257511138916, -2.5230560302734375, -1.6977379322052002, -2.28269362449646, 1.104248046875, -0.594970703125, 0.08984375
323, 474502859, -6.668740749359131, 1.69843327999115, 7.1038031578063965, -2.5838096141815186, -1.6282508373260498, -2.2836415767669678, 1.106201171875, -0.593505859375, 0.08984375
324, 474519526, -6.666399002075195, 1.7085380554199219, 7.095292568206787, -2.549590826034546, -1.5783700942993164, -2.3618242740631104, 1.106201171875, -0.594482421875, 0.0888671875
325, 474536193, -6.665384292602539, 1.6819044351577759, 7.117752552032471, -2.4823317527770996, -1.6308759450912476, -2.3634250164031982, 1.105712890625, -0.593017578125, 0.08935546875
326, 474552860, -6.674485683441162, 1.6941105127334595, 7.144825458526611, -2.4296467304229736, -1.5480700731277466, -2.2789156436920166, 1.105224609375, -0.595458984375, 0.08935546875
327, 474569527, -6.662562847137451, 1.7019912004470825, 7.119468688964844, -2.395658493041992, -1.4934126138687134, -2.2656869888305664, 1.103271484375, -0.595458984375, 0.08984375
328, 474586194, -6.6653666496276855, 1.6940032243728638, 7.114391326904297, -2.411909818649292, -1.3878114223480225, -2.312878370285034, 1.104736328125, -0.594482421875, 0.0908203125
329, 474602861, -6.660349369049072, 1.7124048471450806, 7.113274574279785, -2.4401350021362305, -1.5225855112075806, -2.3635401725769043, 1.105224609375, -0.595458984375, 0.08935546875
330, 474619528, -6.671020984649658, 1.6804379224777222, 7.108388900756836, -2.497609853744507, -1.4569913148880005, -2.367983818054199, 1.105224609375, -0.593994140625, 0.0888671875
331, 474636195, -6.663110733032227, 1.6851980686187744, 7.107941627502441, -2.4788870811462402, -1.6150089502334595, -2.2822580337524414, 1.107421875, -0.593505859375, 0.087890625
332, 474652862, -6.6530938148498535, 1.6938809156417847, 7.115766525268555, -2.411858081817627, -1.595491886138916, -2.1856212615966797, 1.106201171875, -0.595947265625, 0.087646484375
333, 474669529, -6.680047035217285, 1.6954081058502197, 7.0965681076049805, -2.3916115760803223, -1.6339110136032104, -2.194905996322632, 1.105224609375, -0.591796875, 0.088623046875
334, 474686196, -6.6681671142578125, 1.691306471824646, 7.130631923675537, -2.4146885871887207, -1.58162260055542, -2.284499168395996, 1.104736328125, -0.594482421875, 0.08935546875
335, 474702863, -6.667255401611328, 1.6955268383026123, 7.123434543609619, -2.4582555294036865, -1.532727837562561, -2.361990213394165, 1.105224609375, -0.594482421875, 0.088134765625
336, 474719530, -6.651189804077148, 1.6789032220840454, 7.110036373138428, -2.4618163108825684, -1.4914147853851318, -2.2631893157958984, 1.105224609375, -0.596923828125, 0.087890625
337, 474736197, -6.672250747680664, 1.7027275562286377, 7.135104179382324, -2.4984030723571777, -1.5055015087127686, -2.3595056533813477, 1.106689453125, -0.593505859375, 0.087890625
338, 474752864, -6.668319225311279, 1.6820586919784546, 7.113141059875488, -2.477388620376587, -1.5315754413604736, -2.2723844051361084, 1.106201171875, -0.595947265625, 0.087646484375
339, 474769531, -6.656207084655762, 1.705011248588562, 7.096338748931885, -2.50484561920166, -1.6310938596725464, -2.418044328689575, 1.105224609375, -0.594482421875, 0.08837890625
340, 474786198, -6.670109272003174, 1.6883646249771118, 7.093570709228516, -2.485264301300049, -1.6116790771484375, -2.3675355911254883, 1.104248046875, -0.594970703125, 0.088134765625
341, 474802865, -6.657896041870117, 1.6913390159606934, 7.12945032119751, -2.4117305278778076, -1.596823811531067, -2.3048229217529297, 1.102783203125, -0.591796875, 0.08984375
342, 474819532, -6.676324367523193, 1.6895934343338013, 7.1207804679870605, -2.448484420776367, -1.5716718435287476, -2.28202748298645, 1.106201171875, -0.593994140625, 0.087890625
343, 474836199, -6.6536359786987305, 1.702506422996521, 7.097480773925781, -2.413766384124756, -1.562554121017456, -2.2966012954711914, 1.107177734375, -0.594482421875, 0.087890625
344, 474852866, -6.663611888885498, 1.6916730403900146, 7.117277145385742, -2.484957218170166, -1.6476138830184937, -2.2959609031677246, 1.10791015625, -0.593017578125, 0.08740234375
345, 474869533, -6.66399621963501, 1.696911334991455, 7.128713607788086, -2.3946080207824707, -1.5835435390472412, -2.2836153507232666, 1.107421875, -0.596923828125, 0.08837890625
346, 474886200, -6.664304256439209, 1.6706339120864868, 7.10610294342041, -2.4899513721466064, -1.686737060546875, -2.28857159614563, 1.106201171875, -0.593505859375, 0.08984375
347, 474902867, -6.66569185256958, 1.6984699964523315, 7.118588447570801, -2.5031673908233643, -1.6187865734100342, -2.174121141433716, 1.106201171875, -0.594482421875, 0.08935546875
348, 474919534, -6.664267063140869, 1.688719391822815, 7.116612434387207, -2.446985960006714, -1.547224760055542, -2.1838796138763428, 1.105712890625, -0.593017578125, 0.088134765625
349, 474936201, -6.670770645141602, 1.688551425933838, 7.1356892585754395, -2.3550238609313965, -1.6493940353393555, -2.1812803745269775, 1.107177734375, -0.593994140625, 0.0888671875
350, 474952868, -6.669304370880127, 1.6772010326385498, 7.117733001708984, -2.3747198581695557, -1.6037518978118896, -2.207878589630127, 1.106201171875, -0.593994140625, 0.087646484375
351, 474969535, -6.679481029510498, 1.7048929929733276, 7.099530220031738, -2.482984781265259, -1.7013108730316162, -2.1469717025756836, 1.105712890625, -0.596435546875, 0.0888671875
352, 474986202, -6.670048236846924, 1.688862681388855, 7.115231513977051, -2.4092612266540527, -1.7872430086135864, -2.1072161197662354, 1.106201171875, -0.593994140625, 0.08984375
353, 475002869, -6.662903308868408, 1.6887847185134888, 7.122014045715332, -2.4564502239227295, -1.797896385192871, -2.2054715156555176, 1.105224609375, -0.593505859375, 0.087158203125
354, 475019536, -6.671802520751953, 1.6782639026641846, 7.125406265258789, -2.4988648891448975, -1.6650562286376953, -2.166783094406128, 1.107177734375, -0.593994140625, 0.087890625
355, 475036203, -6.676617622375488, 1.6792426109313965, 7.120887279510498, -2.4119348526000977, -1.6703065633773804, -2.109180212020874, 1.106201171875, -0.594482421875, 0.087890625
356, 475052870, -6.675754547119141, 1.7020976543426514, 7.113156318664551, -2.335378885269165, -1.6625972986221313, -2.0731561183929443, 1.107666015625, -0.593017578125, 0.087158203125
357, 475069537, -6.667893886566162, 1.6969349384307861, 7.13167667388916, -2.4532229900360107, -1.7150648832321167, -2.097872257232666, 1.105712890625, -0.593505859375, 0.088134765625
358, 475086204, -6.660843372344971, 1.7062370777130127, 7.108382225036621, -2.4059932231903076, -1.7304068803787231, -2.108924388885498, 1.104736328125, -0.593017578125, 0.085205078125
359, 475102871, -6.659377574920654, 1.6959009170532227, 7.133378028869629, -2.5242083072662354, -1.7138608694076538, -2.2560176849365234, 1.106689453125, -0.594482421875, 0.08984375
360, 475119538, -6.666234970092773, 1.6850134134292603, 7.110367774963379, -2.514219284057617, -1.656911015510559, -2.303478240966797, 1.105712890625, -0.594482421875, 0.086669921875
361, 475136205, -6.668191909790039, 1.6987783908843994, 7.129817008972168, -2.5095834732055664, -1.7884708642959595, -2.181664228439331, 1.106689453125, -0.594970703125, 0.08837890625
362, 475152872, -6.6468939781188965, 1.6916650533676147, 7.14286470413208, -2.5413944721221924, -1.7512940168380737, -2.2028331756591797, 1.106201171875, -0.595947265625, 0.087890625
363, 475169539, -6.650541305541992, 1.6907386779785156, 7.118154048919678, -2.4036622047424316, -1.572568655014038, -2.1713809967041016, 1.105712890625, -0.594482421875, 0.086669921875
364, 475186206, -6.663174629211426, 1.6882214546203613, 7.11905574798584, -2.5393197536468506, -1.5475449562072754, -2.2549164295196533, 1.104736328125, -0.593505859375, 0.0888671875
365, 475202873, -6.6572747230529785, 1.7078355550765991, 7.081264019012451, -2.5802876949310303, -1.544253945350647, -2.4060447216033936, 1.102783203125, -0.594482421875, 0.08935546875
366, 475219540, -6.664227485656738, 1.7020870447158813, 7.115184783935547, -2.592568874359131, -1.644361138343811, -2.35917329788208, 1.102294921875, -0.593994140625, 0.089111328125
367, 475236207, -6.658154487609863, 1.6845473051071167, 7.124499797821045, -2.6155433654785156, -1.6891064643859863, -2.402996301651001, 1.1064453125, -0.596435546875, 0.08740234375
368, 475252874, -6.661668300628662, 1.6867717504501343, 7.117772102355957, -2.5704140663146973, -1.7450190782546997, -2.227613687515259, 1.106201171875, -0.593994140625, 0.086669921875
369, 475269541, -6.660263538360596, 1.7025359869003296, 7.146195411682129, -2.5580942630767822, -1.6794888973236084, -2.3045284748077393, 1.105224609375, -0.593994140625, 0.08837890625
370, 475286208, -6.652346611022949, 1.6940690279006958, 7.110528469085693, -2.556967258453369, -1.6574748754501343, -2.329193592071533, 1.104248046875, -0.593017578125, 0.0888671875
371, 475302875, -6.64554500579834, 1.6907013654708862, 7.114225387573242, -2.4746477603912354, -1.6789766550064087, -2.3479673862457275, 1.105224609375, -0.593017578125, 0.0888671875
372, 475319542, -6.651785373687744, 1.7018636465072632, 7.12874698638916, -2.4802701473236084, -1.5648976564407349, -2.3695719242095947, 1.106201171875, -0.595458984375, 0.086181640625
373, 475336209, -6.656433582305908, 1.6944732666015625, 7.125822067260742, -2.5371944904327393, -1.538670301437378, -2.3891143798828125, 1.105712890625, -0.594482421875, 0.088134765625
374, 475352876, -6.64984130859375, 1.6958348751068115, 7.143669128417969, -2.5619616508483887, -1.5554336309432983, -2.3342905044555664, 1.10693359375, -0.594970703125, 0.0888671875
375, 475369543, -6.661448955535889, 1.6711069345474243, 7.115699768066406, -2.4997479915618896, -1.4881362915039062, -2.3899848461151123, 1.104248046875, -0.593505859375, 0.0888671875
376, 475386210, -6.660824775695801, 1.6649117469787598, 7.131932258605957, -2.5175235271453857, -1.3993241786956787, -2.393993377685547, 1.105224609375, -0.593994140625, 0.08984375
377, 475402877, -6.65264368057251, 1.6885162591934204, 7.127846717834473, -2.5301506519317627, -1.468273639678955, -2.25003719329834, 1.104248046875, -0.592529296875, 0.0888671875
378, 475419544, -6.652344703674316, 1.6831817626953125, 7.126075744628906, -2.555788993835449, -1.5706349611282349, -2.329718589782715, 1.106201171875, -0.594482421875, 0.09033203125
379, 475436211, -6.663225173950195, 1.6932367086410522, 7.104673385620117, -2.4928712844848633, -1.5802267789840698, -2.3030941486358643, 1.10791015625, -0.594482421875, 0.08837890625
380, 475452878, -6.678126335144043, 1.702937364578247, 7.118776798248291, -2.602928876876831, -1.6520576477050781, -2.2156012058258057, 1.107177734375, -0.593505859375, 0.087890625
381, 475469545, -6.6609063148498535, 1.697253704071045, 7.121875762939453, -2.602020263671875, -1.6675021648406982, -2.2576444149017334, 1.105224609375, -0.594482421875, 0.088134765625
382, 475486212, -6.6618876457214355, 1.6882230043411255, 7.143283843994141, -2.5288188457489014, -1.6985831260681152, -2.3429222106933594, 1.103759765625, -0.592529296875, 0.088134765625
383, 475502879, -6.665177345275879, 1.6807940006256104, 7.115933418273926, -2.507829189300537, -1.6957913637161255, -2.1880545616149902, 1.104248046875, -0.593505859375, 0.088134765625
384, 475519546, -6.656857013702393, 1.6938741207122803, 7.127774715423584, -2.4925811290740967, -1.6103532314300537, -2.274937391281128, 1.107177734375, -0.59228515625, 0.086669921875
385, 475536213, -6.671999931335449, 1.697258710861206, 7.107873916625977, -2.5126185417175293, -1.5922261476516724, -2.311776876449585, 1.106201171875, -0.594970703125, 0.087158203125
386, 475552880, -6.664407730102539, 1.6846129894256592, 7.12883186340332, -2.516038179397583, -1.602074384689331, -2.3337652683258057, 1.107177734375, -0.593505859375, 0.08935546875
387, 475569547, -6.662240505218506, 1.673630952835083, 7.14143180847168, -2.6035566329956055, -1.5179753303527832, -2.384453058242798, 1.104736328125, -0.592529296875, 0.08984375
388, 475586214, -6.6516923904418945, 1.677217721939087, 7.120567798614502, -2.5996127128601074, -1.5212922096252441, -2.3773839473724365, 1.105224609375, -0.593505859375, 0.088134765625
389, 475602881, -6.652751922607422, 1.6754100322723389, 7.125288486480713, -2.58146595954895, -1.496140480041504, -2.4029455184936523, 1.103759765625, -0.593017578125, 0.087646484375
390, 475619548, -6.644958019256592, 1.6872996091842651, 7.125785827636719, -2.6108055114746094, -1.5348029136657715, -2.3726327419281006, 1.1083984375, -0.595458984375, 0.08837890625
391, 475636215, -6.6634297370910645, 1.677617073059082, 7.116817951202393, -2.546159029006958, -1.5103811025619507, -2.4259583950042725, 1.107177734375, -0.593505859375, 0.087158203125
392, 475652882, -6.66106653213501, 1.6792192459106445, 7.124602317810059, -2.488478660583496, -1.4865227937698364, -2.4210147857666016, 1.104736328125, -0.592529296875, 0.085693359375
393, 475669549, -6.661904335021973, 1.685766339302063, 7.127490997314453, -2.5410876274108887, -1.5932127237319946, -2.438406467437744, 1.104736328125, -0.591796875, 0.086181640625
394, 475686216, -6.658576011657715, 1.6750291585922241, 7.125701904296875, -2.532443046569824, -1.6122044324874878, -2.442516803741455, 1.105224609375, -0.593505859375, 0.09033203125
395, 475702883, -6.6623430252075195, 1.661993384361267, 7.120076656341553, -2.567352771759033, -1.6359217166900635, -2.3248136043548584, 1.1025390625, -0.592041015625, 0.088134765625
396, 475719550, -6.641289710998535, 1.6721891164779663, 7.141426086425781, -2.4624180793762207, -1.6590884923934937, -2.3885254859924316, 1.105224609375, -0.593505859375, 0.0908203125
397, 475736217, -6.669677257537842, 1.6614620685577393, 7.1056036949157715, -2.547900438308716, -1.6418511867523193, -2.3145430088043213, 1.105712890625, -0.593017578125, 0.086669921875
398, 475752884, -6.656020641326904, 1.6807682514190674, 7.131752967834473, -2.501041889190674, -1.7153466939926147, -2.2934634685516357, 1.105712890625, -0.591796875, 0.08837890625
399, 475769551, -6.652416706085205, 1.6683155298233032, 7.135717868804932, -2.596257448196411, -1.6737902164459229, -2.3210487365722656, 1.107177734375, -0.59228515625, 0.087646484375
400, 475786218, -6.646265506744385, 1.6744893789291382, 7.122653484344482, -2.456296443939209, -1.6496244668960571, -2.262254476547241, 1.105224609375, -0.59228515625, 0.08935546875
401, 475802885, -6.650548934936523, 1.6787844896316528, 7.134727954864502, -2.5118889808654785, -1.7318028211593628, -2.1546683311462402, 1.104248046875, -0.593994140625, 0.0888671875
402, 475819552, -6.660552024841309, 1.6715699434280396, 7.12172794342041, -2.489374876022339, -1.8010849952697754, -2.0925703048706055, 1.105712890625, -0.591796875, 0.08935546875
403, 475836219, -6.659527778625488, 1.6965805292129517, 7.1492204666137695, -2.518061399459839, -1.744673252105713, -2.147919178009033, 1.10791015625, -0.593017578125, 0.087890625
404, 475852886, -6.667834281921387, 1.6765023469924927, 7.133391380310059, -2.568403482437134, -1.7286525964736938, -2.270258903503418, 1.105712890625, -0.59130859375, 0.087646484375
405, 475869553, -6.668355941772461, 1.677059531211853, 7.134809494018555, -2.620973825454712, -1.5414749383926392, -2.3716721534729004, 1.105224609375, -0.592529296875, 0.086669921875
406, 475886220, -6.643260478973389, 1.6772174835205078, 7.1389336585998535, -2.5837326049804688, -1.6351150274276733, -2.3591346740722656, 1.1025390625, -0.592041015625, 0.088134765625
407, 475902887, -6.6507978439331055, 1.6600341796875, 7.1347126960754395, -2.539921998977661, -1.6291601657867432, -2.3917269706726074, 1.103759765625, -0.593017578125, 0.08935546875
408, 475919554, -6.658968448638916, 1.6637027263641357, 7.111069202423096, -2.658329486846924, -1.5378249883651733, -2.3412058353424072, 1.105712890625, -0.594482421875, 0.087646484375
409, 475936221, -6.650022983551025, 1.6839818954467773, 7.13555908203125, -2.629707098007202, -1.462689995765686, -2.43064546585083, 1.105712890625, -0.592529296875, 0.087646484375
410, 475952888, -6.650893211364746, 1.6712756156921387, 7.124390602111816, -2.537668228149414, -1.462702989578247, -2.394467353820801, 1.106689453125, -0.59033203125, 0.087158203125
411, 475969555, -6.662123203277588, 1.6785722970962524, 7.121898651123047, -2.521660089492798, -1.4741774797439575, -2.3470325469970703, 1.106201171875, -0.59228515625, 0.08837890625
412, 475986222, -6.670152187347412, 1.6731809377670288, 7.13500452041626, -2.5168066024780273, -1.5202419757843018, -2.4455137252807617, 1.103759765625, -0.593505859375, 0.087646484375
413, 476002889, -6.664798736572266, 1.6801273822784424, 7.131011962890625, -2.5401270389556885, -1.5445741415023804, -2.4041237831115723, 1.10302734375, -0.59033203125, 0.086669921875
414, 476019556, -6.6658034324646, 1.662540316581726, 7.118502140045166, -2.540703296661377, -1.5321519374847412, -2.4285197257995605, 1.105224609375, -0.592529296875, 0.087646484375
415, 476036223, -6.679154872894287, 1.656356692314148, 7.138622283935547, -2.5215728282928467, -1.5833333730697632, -2.3072967529296875, 1.103759765625, -0.593505859375, 0.088623046875
416, 476052890, -6.675172805786133, 1.6652036905288696, 7.131286144256592, -2.3823909759521484, -1.5955687761306763, -2.2152810096740723, 1.106201171875, -0.59033203125, 0.088623046875
417, 476069557, -6.667998313903809, 1.681711196899414, 7.1201910972595215, -2.265648126602173, -1.6293902397155762, -2.1671159267425537, 1.105224609375, -0.591796875, 0.086669921875
418, 476086224, -6.6339545249938965, 1.6351481676101685, 7.121516704559326, -2.202371835708618, -1.3541818857192993, -2.0151047706604004, 1.106201171875, -0.593017578125, 0.087158203125
419, 476102891, -6.655136585235596, 1.66831374168396, 7.134912014007568, -2.2189176082611084, -1.122886300086975, -1.9636486768722534, 1.104248046875, -0.592529296875, 0.088623046875
420, 476119558, -6.654821395874023, 1.6736056804656982, 7.141983985900879, -2.1569478511810303, -1.0462660789489746, -1.858060598373413, 1.106201171875, -0.59130859375, 0.0888671875
421, 476136225, -6.6435418128967285, 1.654784083366394, 7.122065544128418, -2.1986324787139893, -1.2323678731918335, -1.9582573175430298, 1.106689453125, -0.59228515625, 0.08984375
422, 476152892, -6.6632771492004395, 1.6489193439483643, 7.117993354797363, -1.8535141944885254, -1.125332236289978, -1.66765558719635, 1.105224609375, -0.592529296875, 0.087646484375
423, 476169559, -6.661584854125977, 1.6480618715286255, 7.1190948486328125, -1.629454493522644, -1.0242390632629395, -1.264870524406433, 1.107421875, -0.593994140625, 0.086669921875
424, 476186226, -6.675510406494141, 1.706516981124878, 7.106419086456299, -1.783591389656067, -1.2787011861801147, -1.3280057907104492, 1.104248046875, -0.593994140625, 0.088623046875
425, 476202893, -6.662125110626221, 1.6688363552093506, 7.106151580810547, -1.9956775903701782, -1.6420302391052246, -1.4292911291122437, 1.104248046875, -0.593017578125, 0.0888671875
426, 476219560, -6.659181594848633, 1.6328524351119995, 7.107290267944336, -1.9401235580444336, -1.6899900436401367, -1.1526867151260376, 1.106689453125, -0.593994140625, 0.0888671875
427, 476236227, -6.680555820465088, 1.5986448526382446, 7.11073112487793, -1.8286570310592651, -1.9794903993606567, -0.7248522639274597, 1.10693359375, -0.595458984375, 0.087890625
428, 476252894, -6.671474456787109, 1.6273523569107056, 7.1253252029418945, -1.6165584325790405, -2.1745824813842773, 0.027271121740341187, 1.10693359375, -0.596435546875, 0.08740234375
429, 476269561, -6.679711818695068, 1.6609468460083008, 7.152215480804443, -1.553410291671753, -1.8158636093139648, 0.9931132793426514, 1.105224609375, -0.595947265625, 0.087646484375
430, 476286228, -6.710709095001221, 1.7365119457244873, 7.054175853729248, -1.6580380201339722, -1.945130705833435, 1.2679375410079956, 1.104248046875, -0.596435546875, 0.08837890625
431, 476302895, -6.626832485198975, 1.881613850593567, 7.099122047424316, -2.5329811573028564, -2.9524662494659424, -0.10919976234436035, 1.1064453125, -0.596435546875, 0.087158203125
432, 476319562, -6.612606525421143, 1.7344989776611328, 7.1536431312561035, -3.2969305515289307, -3.269742727279663, -1.3435653448104858, 1.104736328125, -0.5986328125, 0.08837890625
433, 476336229, -6.642540454864502, 1.7208755016326904, 7.135179042816162, -2.5954370498657227, -2.880736827850342, -1.266471028327942, 1.104736328125, -0.59765625, 0.085693359375
434, 476352896, -6.63644552230835, 1.760974645614624, 7.143025875091553, -2.2885584831237793, -2.387385368347168, -1.7700295448303223, 1.103759765625, -0.596435546875, 0.085693359375
435, 476369563, -6.63992166519165, 1.6847888231277466, 7.17371940612793, -2.3519375324249268, -1.954197883605957, -1.8432437181472778, 1.1064453125, -0.5986328125, 0.0869140625
436, 476386230, -6.6326212882995605, 1.694791555404663, 7.156158447265625, -2.198376178741455, -1.797780990600586, -1.7701704502105713, 1.101806640625, -0.59765625, 0.085693359375
437, 476402897, -6.623994827270508, 1.7424958944320679, 7.134986400604248, -1.9498564004898071, -1.2250170707702637, -1.7190347909927368, 1.100830078125, -0.597412109375, 0.086669921875
438, 476419564, -6.616668701171875, 1.7522480487823486, 7.122124195098877, -2.052332639694214, -0.6939248442649841, -1.9799896478652954, 1.106201171875, -0.596435546875, 0.087646484375
439, 476436231, -6.632723331451416, 1.7264304161071777, 7.131466388702393, -2.096348285675049, -0.39141327142715454, -2.234349489212036, 1.105712890625, -0.59765625, 0.086181640625
440, 476452898, -6.622500419616699, 1.7447632551193237, 7.143874645233154, -2.046826124191284, 0.14677998423576355, -2.315324068069458, 1.10693359375, -0.5986328125, 0.087890625
441, 476469565, -6.649667263031006, 1.796458125114441, 7.155235767364502, -2.0018370151519775, 1.0841662883758545, -2.6263132095336914, 1.105224609375, -0.595458984375, 0.087158203125
442, 476486232, -6.641448497772217, 1.874970555305481, 7.083763122558594, -1.7456976175308228, 3.232445001602173, -3.5815906524658203, 1.10546875, -0.60009765625, 0.087158203125
443, 476502899, -6.4835405349731445, 2.3159446716308594, 7.0821919441223145, -0.8381374478340149, 8.283169746398926, -6.597679615020752, 1.107421875, -0.595947265625, 0.0908203125
444, 476519566, -6.074062347412109, 2.9835000038146973, 7.505253791809082, 2.841641664505005, 25.652050018310547, -14.349174499511719, 1.111083984375, -0.597900390625, 0.0966796875
445, 476536233, -5.582394123077393, 3.1297855377197266, 8.90782356262207, 4.251065731048584, 56.07653045654297, -24.18459701538086, 1.116943359375, -0.59228515625, 0.10791015625
446, 476552900, -3.5034120082855225, 3.1132566928863525, 11.368856430053711, 2.1444194316864014, 96.90726470947266, -33.3250846862793, 1.126220703125, -0.586669921875, 0.128662109375
447, 476569567, 6.007988452911377, 11.181727409362793, 26.76256561279297, -7.490326881408691, 97.94737243652344, -21.345279693603516, 1.140380859375, -0.579833984375, 0.15625
448, 476586234, 12.533204078674316, 14.348824501037598, 34.85940170288086, -55.798377990722656, 46.91154098510742, 51.392086029052734, 1.148681640625, -0.58251953125, 0.17041015625
449, 476602901, 9.187200546264648, 6.642145156860352, 40.17330551147461, -82.25276947021484, -50.4350700378418, 141.71485900878906, 1.144775390625, -0.600830078125, 0.16015625
450, 476619568, 9.167126655578613, 0.6885218024253845, 38.78812026977539, -89.49608612060547, -143.1414031982422, 172.273193359375, 1.134521484375, -0.63623046875, 0.127197265625
451, 476636235, 4.31824254989624, -5.001774787902832, 36.593055725097656, -96.60221099853516, -195.08685302734375, 139.7127685546875, 1.1103515625, -0.659912109375, 0.0751953125
452, 476652902, -2.691528797149658, -6.956824779510498, 35.9531364440918, -84.71121978759766, -242.53561401367188, 76.80554962158203, 1.07568359375, -0.67333984375, 0.018310546875
453, 476669569, -8.19647216796875, -6.993625640869141, 35.313682556152344, -47.76958084106445, -289.5645446777344, 9.97529125213623, 1.03271484375, -0.6748046875, -0.04638671875
454, 476686236, -13.074377059936523, -4.102950096130371, 33.43714141845703, -12.022170066833496, -334.48486328125, -44.8791618347168, 0.974853515625, -0.666748046875, -0.115478515625
455, 476702903, -17.796781539916992, -2.2906863689422607, 28.817996978759766, 12.16180419921875, -365.4618225097656, -82.3320541381836, 0.906982421875, -0.6572265625, -0.185791015625
456, 476719570, -20.19507598876953, -1.4817785024642944, 22.728487014770508, 54.653133392333984, -372.7332763671875, -99.48895263671875, 0.832763671875, -0.654541015625, -0.2490234375
457, 476736237, -20.48873519897461, -0.1459009051322937, 17.860950469970703, 106.13079833984375, -341.8679504394531, -101.9858169555664, 0.752685546875, -0.666259765625, -0.302001953125
458, 476752904, -24.025203704833984, 2.477376937866211, 15.973777770996094, 135.5390625, -322.74188232421875, -86.01304626464844, 0.677001953125, -0.691162109375, -0.338623046875
459, 476769571, -21.809478759765625, 3.4938793182373047, 11.283232688903809, 121.74110412597656, -317.1207580566406, -61.051170349121094, 0.595703125, -0.720947265625, -0.36767578125
460, 476786238, -19.57550048828125, 2.7834558486938477, 5.4016313552856445, 89.5561752319336, -273.5583190917969, -45.18592071533203, 0.5205078125, -0.744384765625, -0.384521484375
461, 476802905, -19.85744857788086, 1.4762204885482788, 0.6667702794075012, 68.29548645019531, -212.76113891601562, -39.778892517089844, 0.462158203125, -0.763427734375, -0.3935546875
462, 476819572, -22.37713050842285, 1.0966706275939941, -3.1118361949920654, 67.81962585449219, -160.33004760742188, -39.11925506591797, 0.420654296875, -0.78271484375, -0.394287109375
463, 476836239, -28.29279899597168, -1.4485671520233154, -9.180607795715332, 89.18537902832031, -144.01785278320312, -25.135305404663086, 0.38427734375, -0.8046875, -0.394287109375
464, 476852906, -33.237552642822266, -5.475140571594238, -20.924144744873047, 128.8601837158203, -170.6421356201172, 29.553863525390625, 0.33935546875, -0.837646484375, -0.3896484375
465, 476869573, -27.972240447998047, -8.78467845916748, -34.73368835449219, 101.80807495117188, -146.80023193359375, 68.8624038696289, 0.288818359375, -0.86767578125, -0.380126953125
466, 476886240, -20.723230361938477, -8.026163101196289, -36.24855422973633, -33.220802307128906, 13.527398109436035, 11.738058090209961, 0.27587890625, -0.869140625, -0.37890625
467, 476902907, -22.102880477905273, -7.485040664672852, -26.537805557250977, -140.33758544921875, 154.99363708496094, -41.112972259521484, 0.312255859375, -0.83837890625, -0.3896484375
468, 476919574, -23.6573429107666, -4.876251697540283, -16.977298736572266, -144.2521209716797, 197.71456909179688, -23.885576248168945, 0.36572265625, -0.80078125, -0.398193359375
469, 476936241, -22.72008514404297, -3.970160961151123, -12.41437816619873, -110.86559295654297, 202.50498962402344, -4.680191993713379, 0.419189453125, -0.767822265625, -0.402587890625
470, 476952908, -22.57091522216797, -3.6759514808654785, -9.549358367919922, -69.42801666259766, 227.22515869140625, -12.614863395690918, 0.479248046875, -0.74658203125, -0.39501953125
471, 476969575, -24.65107536315918, -1.89510178565979, -5.674232482910156, -34.37943649291992, 244.6747283935547, -31.95831298828125, 0.54736328125, -0.734619140625, -0.380859375
472, 476986242, -24.319360733032227, 0.5034860968589783, -1.7247350215911865, -29.966516494750977, 260.97540283203125, -60.832828521728516, 0.61669921875, -0.72314453125, -0.359619140625
473, 477002909, -26.628137588500977, 2.5766007900238037, 4.252572059631348, -32.78010940551758, 296.6609802246094, -88.7264404296875, 0.693603515625, -0.706787109375, -0.327880859375
474, 477019576, -30.08262062072754, 3.5610640048980713, 11.066092491149902, -14.876372337341309, 290.4291687011719, -87.23759460449219, 0.772216796875, -0.692626953125, -0.28857421875
475, 477036243, -25.742834091186523, 3.826171398162842, 15.150253295898438, 1.9036237001419067, 296.06317138671875, -81.03556823730469, 0.842529296875, -0.677978515625, -0.241455078125
476, 477052910, -22.90306854248047, 8.098493576049805, 22.34717559814453, -20.313098907470703, 351.2060546875, -82.56810760498047, 0.912353515625, -0.661865234375, -0.177978515625
477, 477069577, -20.210813522338867, 14.535626411437988, 32.535396575927734, -101.72549438476562, 372.4750061035156, -53.84397506713867, 0.987060546875, -0.633544921875, -0.103759765625
478, 477086244, -12.150447845458984, 10.861893653869629, 36.7850341796875, -164.4310760498047, 331.4172058105469, 15.140436172485352, 1.04443359375, -0.6025390625, -0.029296875
479, 477102911, -5.3794779777526855, 2.8772482872009277, 35.71302032470703, -111.83674621582031, 281.3271179199219, 73.75387573242188, 1.08984375, -0.595703125, 0.03662109375
480, 477119578, -1.1629456281661987, 0.3061504364013672, 33.82878875732422, -33.33309555053711, 231.84091186523438, 80.00623321533203, 1.122314453125, -0.604248046875, 0.095458984375
481, 477136245, 2.386409282684326, -0.43695303797721863, 32.32979965209961, 29.259052276611328, 179.24334716796875, 54.52396011352539, 1.14306640625, -0.617919921875, 0.144287109375
482, 477152912, 2.619967460632324, 1.44111967086792, 30.60203742980957, 71.87648010253906, 116.5937728881836, 23.382394790649414, 1.15673828125, -0.631103515625, 0.1806640625
483, 477169579, 3.3340275287628174, 2.8271374702453613, 26.9720401763916, 83.58545684814453, 61.50243377685547, -3.9543023109436035, 1.157958984375, -0.63916015625, 0.202880859375
484, 477186246, 3.30715274810791, 2.9586617946624756, 22.566619873046875, 80.1606674194336, 35.09864807128906, -30.582244873046875, 1.16259765625, -0.641357421875, 0.21435546875
485, 477202913, 2.8913474082946777, 6.903050422668457, 18.220645904541016, 75.65628051757812, 39.17546463012695, -52.6474723815918, 1.166015625, -0.635498046875, 0.226318359375
486, 477219580, 0.9578846096992493, 6.86068868637085, 28.322509765625, -59.5904655456543, -22.47971534729004, -68.30281829833984, 1.169677734375, -0.61865234375, 0.228759765625
487, 477236247, -3.1880953311920166, 2.5808775424957275, 26.971439361572266, -71.24852752685547, -109.64669799804688, -34.96868896484375, 1.162353515625, -0.603271484375, 0.203857421875
488, 477252914, -6.820863246917725, 3.4248557090759277, 9.782087326049805, -20.63827133178711, -98.70248413085938, -25.451539993286133, 1.15234375, -0.591064453125, 0.1767578125
489, 477269581, -8.338489532470703, 0.6282546520233154, 4.975414276123047, -22.039718627929688, -90.70948028564453, -14.625234603881836, 1.142578125, -0.58544921875, 0.15234375
490, 477286248, -5.651636600494385, 1.1916266679763794, 7.968385219573975, -22.712039947509766, -86.64569854736328, -7.259997844696045, 1.128173828125, -0.58349609375, 0.1328125
491, 477302915, -6.778913497924805, 0.24703890085220337, 6.847625732421875, -19.75444793701172, -59.99598693847656, -2.3103113174438477, 1.123046875, -0.58154296875, 0.119384765625
492, 477319582, -6.656811237335205, 0.7109982967376709, 7.31378173828125, -12.50806713104248, -43.75827407836914, 6.2083845138549805, 1.1171875, -0.580078125, 0.107421875
493, 477336249, -6.673374176025391, 2.140944004058838, 7.266759395599365, -8.005775451660156, -29.10592269897461, 7.474918842315674, 1.11279296875, -0.58251953125, 0.10009765625
494, 477352916, -6.617525577545166, 2.061046600341797, 7.316903114318848, -7.315622806549072, -17.032285690307617, 2.7228829860687256, 1.110107421875, -0.582275390625, 0.093505859375
495, 477369583, -6.711183071136475, 2.0025224685668945, 7.138685703277588, -6.479874610900879, -8.676279067993164, -0.1962701827287674, 1.109619140625, -0.583740234375, 0.091796875
496, 477386250, -6.8231425285339355, 1.9629377126693726, 6.954254627227783, -6.45153284072876, -6.06335973739624, -2.4074535369873047, 1.107177734375, -0.580078125, 0.09228515625
497, 477402917, -6.806989669799805, 1.7733646631240845, 7.000907897949219, -6.499801158905029, -7.547577857971191, -3.422229290008545, 1.109130859375, -0.57958984375, 0.08984375
498, 477419584, -6.717740535736084, 1.7084492444992065, 7.07234001159668, -5.949435234069824, -8.527917861938477, -3.3106348514556885, 1.108154296875, -0.58154296875, 0.087158203125
499, 477436251, -6.729129791259766, 1.6588538885116577, 7.102041721343994, -4.976395606994629, -7.686028003692627, -2.9180686473846436, 1.1064453125, -0.58154296875, 0.087646484375
500, 477452918, -6.724300384521484, 1.5917465686798096, 7.079142093658447, -4.268857002258301, -7.560115337371826, -2.2965378761291504, 1.1064453125, -0.57861328125, 0.0849609375
501, 477469585, -6.739704132080078, 1.5428378582000732, 7.0856404304504395, -3.362755537033081, -7.576852798461914, -1.2876145839691162, 1.103515625, -0.5791015625, 0.08642578125
502, 477486252, -6.655385971069336, 1.6772814989089966, 7.1144208908081055, -3.0759453773498535, -7.9843902587890625, -0.6253086924552917, 1.101806640625, -0.57958984375, 0.08251953125
503, 477502919, -6.603360652923584, 1.659853458404541, 7.130949020385742, -2.4932563304901123, -7.418028831481934, -0.36209961771965027, 1.101806640625, -0.57861328125, 0.080322265625
504, 477519586, -6.631092548370361, 1.7087030410766602, 7.127419948577881, -2.0027594566345215, -5.821715831756592, -0.22922085225582123, 1.101806640625, -0.57958984375, 0.079833984375
505, 477536253, -6.630065441131592, 1.686881422996521, 7.1282196044921875, -1.7144629955291748, -4.8411078453063965, -0.16722533106803894, 1.10302734375, -0.58056640625, 0.079833984375
506, 477552920, -6.608911037445068, 1.7544280290603638, 7.124251365661621, -1.6782851219177246, -4.009629726409912, -0.44414985179901123, 1.10205078125, -0.58056640625, 0.077880859375
507, 477569587, -6.622292518615723, 1.7400039434432983, 7.138386249542236, -1.7479130029678345, -3.6236846446990967, -0.6740493774414062, 1.10205078125, -0.58154296875, 0.079833984375
508, 477586254, -6.561350345611572, 1.8120208978652954, 7.128918647766113, -2.033968925476074, -3.1436266899108887, -1.330375075340271, 1.10107421875, -0.582275390625, 0.077880859375
509, 477602921, -6.587743759155273, 1.8277724981307983, 7.1355204582214355, -2.2092509269714355, -2.1764304637908936, -1.9560718536376953, 1.099853515625, -0.582763671875, 0.07763671875
510, 477619588, -6.62098503112793, 1.736613154411316, 7.138879776000977, -2.460125684738159, -1.5967470407485962, -2.5509352684020996, 1.098876953125, -0.5810546875, 0.07861328125
511, 477636255, -6.619136810302734, 1.7366193532943726, 7.135497570037842, -2.6391961574554443, -1.6510969400405884, -2.7228987216949463, 1.10205078125, -0.582763671875, 0.07568359375
512, 477652922, -6.610183238983154, 1.7247389554977417, 7.164909839630127, -2.627965211868286, -1.2761270999908447, -3.0518810749053955, 1.100830078125, -0.581787109375, 0.077880859375
513, 477669589, -6.627756595611572, 1.7446644306182861, 7.1355791091918945, -2.9332306385040283, -0.8479598164558411, -3.461735963821411, 1.098876953125, -0.5810546875, 0.078857421875
514, 477686256, -6.62458610534668, 1.7245852947235107, 7.141490936279297, -3.4023020267486572, -0.5995038151741028, -4.027866840362549, 1.098876953125, -0.580078125, 0.079345703125
515, 477702923, -6.632689952850342, 1.6740366220474243, 7.102387428283691, -3.7168002128601074, -0.6856136322021484, -4.339560508728027, 1.101318359375, -0.58056640625, 0.078857421875
516, 477719590, -6.666543483734131, 1.6762140989303589, 7.131299018859863, -3.846259593963623, -0.8663625717163086, -4.39347505569458, 1.101806640625, -0.5771484375, 0.079345703125
517, 477736257, -6.67645263671875, 1.6663702726364136, 7.137322902679443, -3.8874316215515137, -1.0394402742385864, -4.301999568939209, 1.100341796875, -0.58056640625, 0.079345703125
518, 477752924, -6.678079605102539, 1.660223364830017, 7.1237473487854, -3.8915815353393555, -1.1886855363845825, -4.206310272216797, 1.10205078125, -0.57958984375, 0.079833984375
519, 477769591, -6.640491485595703, 1.6882184743881226, 7.1308698654174805, -3.81351375579834, -1.427229404449463, -4.040134429931641, 1.099853515625, -0.5791015625, 0.079833984375
520, 477786258, -6.62415885925293, 1.7184569835662842, 7.123329162597656, -3.721590042114258, -1.2707229852676392, -4.117856025695801, 1.098876953125, -0.57763671875, 0.07763671875
521, 477802925, -6.646158695220947, 1.7349438667297363, 7.114707946777344, -4.2899603843688965, -1.031551480293274, -4.884393215179443, 1.100830078125, -0.575439453125, 0.080810546875
522, 477819592, -6.670479774475098, 1.5435174703598022, 7.104447364807129, -4.167353630065918, -1.0609166622161865, -4.5713043212890625, 1.102783203125, -0.576171875, 0.080322265625
523, 477836259, -6.654282569885254, 1.5765634775161743, 7.15489387512207, -3.2052114009857178, -1.05475652217865, -3.665548801422119, 1.101318359375, -0.575439453125, 0.080322265625
524, 477852926, -6.677798271179199, 1.5430415868759155, 7.146148204803467, -2.521634578704834, -0.731217086315155, -2.974595546722412, 1.10400390625, -0.575439453125, 0.078369140625
525, 477869593, -6.668309688568115, 1.5987521409988403, 7.144985675811768, -2.0681869983673096, -0.5585489273071289, -2.4614062309265137, 1.100341796875, -0.574462890625, 0.082275390625
526, 477886260, -6.687036037445068, 1.618516445159912, 7.138118267059326, -1.959845781326294, -0.42643871903419495, -2.4135618209838867, 1.098388671875, -0.575927734375, 0.082763671875
527, 477902927, -6.697694301605225, 1.5753308534622192, 7.120242118835449, -2.041140079498291, -0.6918118596076965, -2.039398431777954, 1.102783203125, -0.575439453125, 0.082275390625
528, 477919594, -6.697249412536621, 1.6185752153396606, 7.122593879699707, -2.0033485889434814, -1.1652369499206543, -1.870405673980713, 1.102294921875, -0.574951171875, 0.082763671875
529, 477936261, -6.687191963195801, 1.624512791633606, 7.140870571136475, -2.1307718753814697, -1.2187420129776, -1.865680456161499, 1.10400390625, -0.575927734375, 0.08251953125
530, 477952928, -6.690322399139404, 1.6575475931167603, 7.115658760070801, -2.2523550987243652, -1.3039679527282715, -2.1097309589385986, 1.101806640625, -0.576171875, 0.081298828125
531, 477969595, -6.681445598602295, 1.6303056478500366, 7.108617782592773, -2.3802011013031006, -1.5213814973831177, -2.153899908065796, 1.102783203125, -0.576171875, 0.079345703125
532, 477986262, -6.683481693267822, 1.6258000135421753, 7.1270928382873535, -2.368880271911621, -1.5567272901535034, -2.246387481689453, 1.099853515625, -0.576171875, 0.083251953125
533, 478002929, -6.695373058319092, 1.593011498451233, 7.125123023986816, -2.394083261489868, -1.7488737106323242, -2.106055498123169, 1.102294921875, -0.575439453125, 0.079833984375
534, 478019596, -6.678786754608154, 1.6154122352600098, 7.130265712738037, -2.3584682941436768, -1.8679338693618774, -1.9398928880691528, 1.103271484375, -0.575439453125, 0.079833984375
535, 478036263, -6.66383171081543, 1.635949730873108, 7.124725341796875, -2.343190908432007, -1.9827942848205566, -1.8912036418914795, 1.103759765625, -0.574462890625, 0.081787109375
536, 478052930, -6.692789077758789, 1.6271755695343018, 7.106588840484619, -2.4441943168640137, -2.0895864963531494, -1.8818546533584595, 1.102294921875, -0.576171875, 0.081787109375
537, 478069597, -6.682051181793213, 1.597289800643921, 7.112985610961914, -2.4007809162139893, -2.314875841140747, -1.7207509279251099, 1.101806640625, -0.574951171875, 0.081298828125
538, 478086264, -6.652761459350586, 1.6144500970840454, 7.133702754974365, -2.1248421669006348, -2.2329535484313965, -1.376452088356018, 1.100341796875, -0.575439453125, 0.081298828125
539, 478102931, -6.668028354644775, 1.6279059648513794, 7.131445407867432, -1.8228814601898193, -2.056046724319458, -1.1254475116729736, 1.101806640625, -0.575927734375, 0.080322265625
540, 478119598, -6.672106742858887, 1.6619713306427002, 7.124927043914795, -1.8528354167938232, -1.9192746877670288, -1.1931419372558594, 1.103515625, -0.575439453125, 0.079345703125
541, 478136265, -6.6885247230529785, 1.6299524307250977, 7.115851879119873, -1.9583832025527954, -2.150902271270752, -1.2053253650665283, 1.101806640625, -0.57763671875, 0.081298828125
542, 478152932, -6.688231468200684, 1.6529004573822021, 7.124060153961182, -2.15136456489563, -2.575613021850586, -1.3150328397750854, 1.100341796875, -0.5771484375, 0.080322265625
543, 478169599, -6.677957057952881, 1.6396785974502563, 7.1416335105896, -2.2302260398864746, -2.9124844074249268, -1.2494772672653198, 1.100830078125, -0.57666015625, 0.079833984375
544, 478186266, -6.68290901184082, 1.609948992729187, 7.115998268127441, -2.1310153007507324, -2.968153238296509, -0.9632425904273987, 1.099853515625, -0.57666015625, 0.079345703125
545, 478202933, -6.660158157348633, 1.6237587928771973, 7.147037029266357, -1.7903406620025635, -2.878688335418701, -0.6087498664855957, 1.099853515625, -0.57861328125, 0.079345703125
546, 478219600, -6.661210060119629, 1.6401493549346924, 7.132652759552002, -1.4125787019729614, -2.8465185165405273, -0.3199666440486908, 1.100341796875, -0.5771484375, 0.080322265625
547, 478236267, -6.619919300079346, 1.6840168237686157, 7.169821739196777, -1.068920373916626, -2.5204429626464844, -0.12301778793334961, 1.099365234375, -0.57763671875, 0.0771484375
548, 478252934, -6.645055294036865, 1.6798596382141113, 7.141148567199707, -0.727772057056427, -1.9004621505737305, -0.05564358830451965, 1.1025390625, -0.5810546875, 0.078857421875
549, 478269601, -6.626713752746582, 1.6681727170944214, 7.148050785064697, -0.37581515312194824, -1.706510305404663, 0.2785189151763916, 1.099365234375, -0.580078125, 0.07763671875
550, 478286268, -6.647493362426758, 1.6780434846878052, 7.133129596710205, -0.11413019150495529, -1.6127806901931763, 0.6003425121307373, 1.098388671875, -0.5810546875, 0.0771484375
551, 478302935, -6.667257785797119, 1.6456419229507446, 7.154714107513428, 0.29515427350997925, -1.65360689163208, 1.0357452630996704, 1.099853515625, -0.583251953125, 0.078369140625
552, 478319602, -6.643370151519775, 1.7517415285110474, 7.124231815338135, 0.5060877799987793, -1.791429042816162, 1.367558240890503, 1.10107421875, -0.582763671875, 0.077880859375
553, 478336269, -6.643143177032471, 1.8053900003433228, 7.143424987792969, 0.2620115280151367, -1.913960337638855, 0.8894202709197998, 1.1005859375, -0.586181640625, 0.0771484375
554, 478352936, -6.621131420135498, 1.7781111001968384, 7.153640270233154, -0.5597527623176575, -2.224271059036255, 0.06613839417695999, 1.10009765625, -0.586669921875, 0.080322265625
555, 478369603, -6.633874893188477, 1.7520605325698853, 7.151054859161377, -1.1837677955627441, -2.4816787242889404, -0.34714171290397644, 1.098876953125, -0.58740234375, 0.07568359375
556, 478386270, -6.618114471435547, 1.743815541267395, 7.12326192855835, -1.2912898063659668, -2.4905788898468018, -0.6918758749961853, 1.098876953125, -0.584716796875, 0.07763671875
557, 478402937, -6.605086803436279, 1.7659130096435547, 7.156982898712158, -1.1089787483215332, -2.027104377746582, -0.8867757320404053, 1.096923828125, -0.58642578125, 0.07763671875
558, 478419604, -6.601489543914795, 1.7603662014007568, 7.151083946228027, -0.8698200583457947, -1.6179667711257935, -0.7961706519126892, 1.099609375, -0.586181640625, 0.0771484375
559, 478436271, -6.591595649719238, 1.7909380197525024, 7.16984748840332, -1.1927194595336914, -1.3698058128356934, -1.141122579574585, 1.1015625, -0.5869140625, 0.07568359375
560, 478452938, -6.607741832733154, 1.7993680238723755, 7.134266376495361, -1.6454108953475952, -1.4549036026000977, -1.4860358238220215, 1.099609375, -0.5888671875, 0.077880859375
561, 478469605, -6.611548900604248, 1.778502106666565, 7.142982006072998, -1.9967917203903198, -1.6144325733184814, -1.8184889554977417, 1.1005859375, -0.58837890625, 0.077880859375
562, 478486272, -6.617029190063477, 1.7949962615966797, 7.114809036254883, -2.2547757625579834, -1.7059980630874634, -1.9322607517242432, 1.098388671875, -0.58935546875, 0.079345703125
563, 478502939, -6.614408016204834, 1.7849106788635254, 7.141936779022217, -2.3450348377227783, -1.797499418258667, -1.976852297782898, 1.09912109375, -0.59033203125, 0.0751953125
564, 478519606, -6.630709171295166, 1.7693032026290894, 7.146542072296143, -2.3408217430114746, -1.9081077575683594, -1.897734522819519, 1.0986328125, -0.58984375, 0.0751953125
565, 478536273, -6.609200954437256, 1.770926594734192, 7.161427021026611, -2.347609043121338, -2.0356335639953613, -1.9206321239471436, 1.1005859375, -0.58837890625, 0.077392578125
566, 478552940, -6.6007819175720215, 1.7722479104995728, 7.14436674118042, -2.5321614742279053, -2.0601449012756348, -1.9670300483703613, 1.099609375, -0.59130859375, 0.076416015625
567, 478569607, -6.606330871582031, 1.7887107133865356, 7.12239408493042, -2.4839069843292236, -1.7981781959533691, -1.9869180917739868, 1.09912109375, -0.58837890625, 0.077392578125
568, 478586274, -6.614368438720703, 1.769661545753479, 7.147441387176514, -2.321624994277954, -1.6736491918563843, -1.9660180807113647, 1.097900390625, -0.58984375, 0.07666015625
569, 478602941, -6.618893623352051, 1.783469319343567, 7.1249003410339355, -2.2419052124023438, -1.5677533149719238, -1.8893846273422241, 1.09912109375, -0.58837890625, 0.076171875
570, 478619608, -6.606198310852051, 1.790835976600647, 7.141143321990967, -2.4289677143096924, -1.5846960544586182, -2.0902140140533447, 1.097900390625, -0.5888671875, 0.07666015625
571, 478636275, -6.617007255554199, 1.7706873416900635, 7.1433610916137695, -2.6451265811920166, -1.7445964813232422, -2.2548398971557617, 1.099609375, -0.5888671875, 0.076904296875
572, 478652942, -6.615785121917725, 1.7668675184249878, 7.1382293701171875, -2.6614482402801514, -1.797263503074646, -2.22202467918396, 1.09912109375, -0.59130859375, 0.076904296875
573, 478669609, -6.609408378601074, 1.7898157835006714, 7.142086982727051, -2.68139386177063, -1.7801213264465332, -2.308178663253784, 1.098388671875, -0.58740234375, 0.077880859375
574, 478686276, -6.606283664703369, 1.8045473098754883, 7.133961200714111, -2.805577039718628, -1.7265009880065918, -2.3582382202148438, 1.099609375, -0.58984375, 0.077880859375
575, 478702943, -6.5956902503967285, 1.7985622882843018, 7.132745742797852, -2.890495538711548, -1.657807469367981, -2.638709783554077, 1.0986328125, -0.5888671875, 0.076171875
576, 478719610, -6.5965046882629395, 1.7795573472976685, 7.161629676818848, -2.959944248199463, -1.3805116415023804, -2.82094407081604, 1.10009765625, -0.5908203125, 0.07568359375
577, 478736277, -6.623812198638916, 1.7698111534118652, 7.138861656188965, -3.015460252761841, -1.3023161888122559, -2.8776893615722656, 1.10009765625, -0.587890625, 0.077392578125
578, 478752944, -6.617412090301514, 1.7917131185531616, 7.1324381828308105, -3.068965435028076, -1.3020602464675903, -3.0988807678222656, 1.10107421875, -0.5888671875, 0.076416015625
579, 478769611, -6.599711894989014, 1.7879650592803955, 7.148684501647949, -3.419717788696289, -1.4910305738449097, -3.3704135417938232, 1.09912109375, -0.587890625, 0.076171875
580, 478786278, -6.629949569702148, 1.7681845426559448, 7.157420635223389, -3.594217538833618, -1.500981092453003, -3.5720882415771484, 1.098876953125, -0.58740234375, 0.0771484375
581, 478802945, -6.623101234436035, 1.7468851804733276, 7.1519775390625, -3.7915256023406982, -1.5499399900436401, -3.5955498218536377, 1.098388671875, -0.5869140625, 0.07666015625
582, 478819612, -6.622587203979492, 1.7510013580322266, 7.158264636993408, -3.8308281898498535, -1.62530517578125, -3.678304433822632, 1.098876953125, -0.585693359375, 0.07666015625
583, 478836279, -6.626725673675537, 1.7385822534561157, 7.128174304962158, -3.929884672164917, -1.7987160682678223, -3.799490451812744, 1.10205078125, -0.586181640625, 0.0751953125
584, 478852946, -6.616276264190674, 1.741252064704895, 7.145598888397217, -3.9549849033355713, -1.8442168235778809, -3.7647337913513184, 1.099365234375, -0.585693359375, 0.07568359375
585, 478869613, -6.607216835021973, 1.713765263557434, 7.15004301071167, -3.8675694465637207, -1.7722710371017456, -3.7072341442108154, 1.097900390625, -0.585205078125, 0.0771484375
586, 478886280, -6.614639759063721, 1.7252379655838013, 7.156285285949707, -3.5684003829956055, -1.4812850952148438, -3.5090558528900146, 1.096923828125, -0.583740234375, 0.076171875
587, 478902947, -6.620666980743408, 1.7042568922042847, 7.156798362731934, -3.2951247692108154, -1.2900476455688477, -3.37825083732605, 1.098876953125, -0.584716796875, 0.0751953125
588, 478919614, -6.638811111450195, 1.688043236732483, 7.154191970825195, -3.2217071056365967, -1.2145545482635498, -3.250880002975464, 1.10107421875, -0.584716796875, 0.07568359375
589, 478936281, -6.643697738647461, 1.6839919090270996, 7.1405720710754395, -3.1582252979278564, -1.3716498613357544, -3.0444536209106445, 1.10107421875, -0.584228515625, 0.07568359375
590, 478952948, -6.63421106338501, 1.7014268636703491, 7.126373767852783, -3.0982019901275635, -1.4050743579864502, -2.8412935733795166, 1.100341796875, -0.583740234375, 0.07568359375
591, 478969615, -6.6396942138671875, 1.6914271116256714, 7.147621154785156, -3.1335604190826416, -1.7983318567276, -2.804283618927002, 1.097900390625, -0.582763671875, 0.07666015625
592, 478986282, -6.6298933029174805, 1.712335467338562, 7.173774242401123, -3.1739258766174316, -1.8985544443130493, -2.830075740814209, 1.099853515625, -0.5810546875, 0.078125
593, 479002949, -6.622578144073486, 1.7206073999404907, 7.167185306549072, -3.335439682006836, -1.9214904308319092, -3.0458879470825195, 1.099853515625, -0.581787109375, 0.0751953125
594, 479019616, -6.626341342926025, 1.693769931793213, 7.163793087005615, -3.470226526260376, -1.98340904712677, -3.103977680206299, 1.100341796875, -0.5810546875, 0.0751953125
595, 479036283, -6.623078346252441, 1.6933895349502563, 7.160476207733154, -3.649029016494751, -2.0957210063934326, -3.162912607192993, 1.099853515625, -0.58056640625, 0.07666015625
596, 479052950, -6.612522602081299, 1.6887388229370117, 7.144708633422852, -3.652794122695923, -2.219174385070801, -3.2338979244232178, 1.099853515625, -0.581787109375, 0.07666015625
597, 479069617, -6.636866569519043, 1.6914128065109253, 7.178314208984375, -3.7242536544799805, -2.225231647491455, -3.221924304962158, 1.100830078125, -0.57958984375, 0.0751953125
598, 479086284, -6.623830318450928, 1.6593486070632935, 7.166149616241455, -3.54378604888916, -2.1988887786865234, -3.107448101043701, 1.098388671875, -0.58056640625, 0.0751953125
599, 479102951, -6.607512474060059, 1.6673816442489624, 7.173806667327881, -3.4122390747070312, -2.0676751136779785, -2.9139184951782227, 1.098388671875, -0.57958984375, 0.07470703125
600, 479119618, -6.6119585037231445, 1.6570498943328857, 7.172874927520752, -3.3658034801483154, -1.8719555139541626, -2.8529858589172363, 1.097900390625, -0.57861328125, 0.073974609375
601, 479136285, -6.608338356018066, 1.6828558444976807, 7.138070583343506, -3.315077543258667, -1.8747220039367676, -2.907592296600342, 1.100341796875, -0.580078125, 0.07470703125
602, 479152952, -6.5959391593933105, 1.689102053642273, 7.171216011047363, -3.26253342628479, -1.812713384628296, -3.0366806983947754, 1.099853515625, -0.5791015625, 0.0751953125
603, 479169619, -6.628661632537842, 1.64474618434906, 7.165220737457275, -3.050985097885132, -1.5966190099716187, -2.9272375106811523, 1.099853515625, -0.57861328125, 0.073486328125
604, 479186286, -6.614706516265869, 1.6665551662445068, 7.1745524406433105, -2.907545328140259, -1.6145659685134888, -2.8138344287872314, 1.09716796875, -0.5771484375, 0.074951171875
605, 479202953, -6.618799209594727, 1.6403309106826782, 7.146015167236328, -2.7352702617645264, -1.45758056640625, -2.6281964778900146, 1.097900390625, -0.57861328125, 0.0771484375
606, 479219620, -6.6292195320129395, 1.6454191207885742, 7.168735027313232, -2.5520241260528564, -1.462126612663269, -2.2621519565582275, 1.101318359375, -0.57861328125, 0.072509765625
607, 479236287, -6.618893146514893, 1.658760905265808, 7.155028343200684, -2.519021511077881, -1.4446330070495605, -2.2706425189971924, 1.100341796875, -0.57763671875, 0.07568359375
608, 479252954, -6.615845203399658, 1.6644271612167358, 7.175972938537598, -2.4819729328155518, -1.4387421607971191, -2.312084197998047, 1.100830078125, -0.575439453125, 0.07470703125
609, 479269621, -6.61712646484375, 1.6611223220825195, 7.160799980163574, -2.504793882369995, -1.528002381324768, -2.2744972705841064, 1.099365234375, -0.57861328125, 0.07568359375
610, 479286288, -6.614014625549316, 1.6509807109832764, 7.138020992279053, -2.404597282409668, -1.5683680772781372, -2.2243733406066895, 1.0966796875, -0.57666015625, 0.075439453125
611, 479302955, -6.630626678466797, 1.6447557210922241, 7.140199184417725, -2.3314216136932373, -1.6422863006591797, -2.146305799484253, 1.098876953125, -0.5771484375, 0.073974609375
612, 479319622, -6.631937503814697, 1.6295549869537354, 7.168137073516846, -2.2469124794006348, -1.6054425239562988, -1.85693359375, 1.098876953125, -0.5771484375, 0.07470703125
613, 479336289, -6.6302995681762695, 1.6574692726135254, 7.162862777709961, -1.8340996503829956, -1.4631253480911255, -1.5791893005371094, 1.098388671875, -0.57958984375, 0.07470703125
614, 479352956, -6.636985778808594, 1.6640394926071167, 7.171832084655762, -1.7363616228103638, -1.3197710514068604, -1.37844979763031, 1.097900390625, -0.57958984375, 0.076171875
615, 479369623, -6.621796607971191, 1.6994116306304932, 7.173081874847412, -1.924551010131836, -1.3298368453979492, -1.6050710678100586, 1.100830078125, -0.58056640625, 0.07470703125
616, 479386290, -6.612704277038574, 1.692761778831482, 7.150961875915527, -2.0388221740722656, -1.5192430019378662, -1.8107284307479858, 1.098876953125, -0.58056640625, 0.0771484375
617, 479402957, -6.620275020599365, 1.6736046075820923, 7.156761646270752, -2.114264488220215, -1.508101463317871, -1.8359055519104004, 1.09716796875, -0.578125, 0.0751953125
618, 479419624, -6.615128993988037, 1.6964142322540283, 7.1737871170043945, -2.2510876655578613, -1.5636937618255615, -2.0410120487213135, 1.100830078125, -0.57958984375, 0.0751953125
619, 479436291, -6.624021053314209, 1.6804609298706055, 7.1543731689453125, -2.3020310401916504, -1.6541450023651123, -2.164426803588867, 1.100341796875, -0.5791015625, 0.07568359375
620, 479452958, -6.624249458312988, 1.6858445405960083, 7.167026519775391, -2.4158027172088623, -1.6993259191513062, -2.171649694442749, 1.101318359375, -0.5810546875, 0.07666015625
621, 479469625, -6.618524551391602, 1.6612818241119385, 7.184329986572266, -2.3107008934020996, -1.5345592498779297, -2.1322827339172363, 1.097900390625, -0.578125, 0.07666015625
622, 479486292, -6.622524738311768, 1.6640483140945435, 7.151115894317627, -2.260423183441162, -1.4002845287322998, -2.131424903869629, 1.100341796875, -0.580078125, 0.07666015625
623, 479502959, -6.61276388168335, 1.6753737926483154, 7.1723785400390625, -2.3431520462036133, -1.442916989326477, -2.1798200607299805, 1.099853515625, -0.578125, 0.0751953125
624, 479519626, -6.620683670043945, 1.6816068887710571, 7.164199352264404, -2.37945818901062, -1.4037296772003174, -2.2666215896606445, 1.098388671875, -0.5791015625, 0.0751953125
625, 479536293, -6.622684478759766, 1.6647741794586182, 7.170166015625, -2.434333562850952, -1.4831675291061401, -2.3196141719818115, 1.099853515625, -0.5810546875, 0.07568359375
626, 479552960, -6.6269211769104, 1.6732409000396729, 7.168586254119873, -2.514629364013672, -1.4717315435409546, -2.3723766803741455, 1.098876953125, -0.580078125, 0.07470703125
627, 479569627, -6.620584964752197, 1.6668349504470825, 7.153885364532471, -2.5078675746917725, -1.5292576551437378, -2.406313419342041, 1.096923828125, -0.57861328125, 0.0771484375
628, 479586294, -6.624810695648193, 1.6783392429351807, 7.177719593048096, -2.5454671382904053, -1.5631303787231445, -2.3219709396362305, 1.098876953125, -0.580078125, 0.0751953125
629, 479602961, -6.618097305297852, 1.6670646667480469, 7.170637607574463, -2.4453983306884766, -1.6220779418945312, -2.256197452545166, 1.098388671875, -0.578125, 0.072998046875
630, 479619628, -6.605904579162598, 1.6748772859573364, 7.151121616363525, -2.5709643363952637, -1.5250314474105835, -2.29613995552063, 1.099365234375, -0.57861328125, 0.07470703125
631, 479636295, -6.6124396324157715, 1.666239619255066, 7.1445417404174805, -2.439328193664551, -1.6353837251663208, -2.2433910369873047, 1.101318359375, -0.5791015625, 0.0751953125
632, 479652962, -6.619591236114502, 1.6728278398513794, 7.143928050994873, -2.49645733833313, -1.6946516036987305, -2.3422691822052, 1.099853515625, -0.57958984375, 0.07568359375
633, 479669629, -6.617215156555176, 1.6681641340255737, 7.151307106018066, -2.480064868927002, -1.5535894632339478, -2.28629207611084, 1.100830078125, -0.57666015625, 0.07421875
634, 479686296, -6.608633518218994, 1.6705610752105713, 7.144068241119385, -2.485290288925171, -1.7000048160552979, -2.35748291015625, 1.097412109375, -0.57861328125, 0.076171875
635, 479702963, -6.6094279289245605, 1.6783826351165771, 7.177802085876465, -2.4958462715148926, -1.679516077041626, -2.3761909008026123, 1.096923828125, -0.57861328125, 0.0751953125
636, 479719630, -6.626327037811279, 1.6746296882629395, 7.169271945953369, -2.4971868991851807, -1.5288220643997192, -2.336019277572632, 1.099853515625, -0.5791015625, 0.0751953125
637, 479736297, -6.627074241638184, 1.6517263650894165, 7.159985065460205, -2.472496747970581, -1.5205748081207275, -2.270207643508911, 1.100830078125, -0.580078125, 0.0732421875
638, 479752964, -6.6365203857421875, 1.6555320024490356, 7.181589126586914, -2.405019760131836, -1.6336933374404907, -2.1655538082122803, 1.099853515625, -0.57958984375, 0.073486328125
639, 479769631, -6.629979610443115, 1.6618149280548096, 7.163801670074463, -2.4644923210144043, -1.730599045753479, -2.168691396713257, 1.098876953125, -0.57958984375, 0.076171875
640, 479786298, -6.608046531677246, 1.677549123764038, 7.178355693817139, -2.478464126586914, -1.7151161432266235, -2.096886157989502, 1.09521484375, -0.57958984375, 0.07763671875
641, 479802965, -6.614546298980713, 1.6523377895355225, 7.158919811248779, -2.344547986984253, -1.5888580083847046, -2.1547064781188965, 1.098388671875, -0.578125, 0.07763671875
642, 479819632, -6.636828422546387, 1.6808754205703735, 7.1594414710998535, -2.375347375869751, -1.5150936841964722, -2.138570785522461, 1.097900390625, -0.57958984375, 0.07568359375
643, 479836299, -6.623714447021484, 1.661870002746582, 7.168558120727539, -2.3876802921295166, -1.628135323524475, -2.163210391998291, 1.098388671875, -0.58056640625, 0.07666015625
644, 479852966, -6.624472618103027, 1.6721552610397339, 7.159868240356445, -2.4658877849578857, -1.619849443435669, -2.1631972789764404, 1.100341796875, -0.5791015625, 0.07421875
645, 479869633, -6.616240978240967, 1.684091567993164, 7.161656379699707, -2.36857271194458, -1.7919795513153076, -2.1612892150878906, 1.098388671875, -0.57958984375, 0.076171875
646, 479886300, -6.617358207702637, 1.6725159883499146, 7.175036907196045, -2.473393201828003, -1.7010548114776611, -2.0715296268463135, 1.097900390625, -0.580078125, 0.076171875
647, 479902967, -6.618715763092041, 1.6537275314331055, 7.156108379364014, -2.3347768783569336, -1.7300480604171753, -2.068110227584839, 1.097900390625, -0.57958984375, 0.07666015625
648, 479919634, -6.6060309410095215, 1.6539204120635986, 7.165379524230957, -2.4340643882751465, -1.684444785118103, -2.043393850326538, 1.099365234375, -0.58056640625, 0.07568359375
649, 479936301, -6.612995624542236, 1.6728169918060303, 7.146592140197754, -2.3553953170776367, -1.6392384767532349, -2.076050281524658, 1.099853515625, -0.57666015625, 0.07470703125
650, 479952968, -6.622479438781738, 1.6614962816238403, 7.1905388832092285, -2.3082034587860107, -1.5620416402816772, -1.990413784980774, 1.099365234375, -0.5791015625, 0.07666015625
651, 479969635, -6.624475002288818, 1.6654800176620483, 7.149250507354736, -2.34033465385437, -1.650482416152954, -1.964353084564209, 1.100341796875, -0.582275390625, 0.07666015625
652, 479986302, -6.603010654449463, 1.6879791021347046, 7.159915924072266, -2.2858693599700928, -1.6582046747207642, -2.0282440185546875, 1.097412109375, -0.578125, 0.07763671875
653, 480002969, -6.604762077331543, 1.6840112209320068, 7.159999370574951, -2.1581904888153076, -1.5665112733840942, -2.0478761196136475, 1.098388671875, -0.57958984375, 0.0751953125
654, 480019636, -6.60803747177124, 1.6950486898422241, 7.173297882080078, -2.2414186000823975, -1.540936827659607, -2.174992084503174, 1.098876953125, -0.580078125, 0.07470703125
655, 480036303, -6.623734951019287, 1.6541773080825806, 7.1447367668151855, -2.301685094833374, -1.465968370437622, -2.1434884071350098, 1.098876953125, -0.5791015625, 0.0771484375
656, 480052970, -6.609425067901611, 1.6773961782455444, 7.163942337036133, -2.273844003677368, -1.4884437322616577, -2.144704818725586, 1.099365234375, -0.581787109375, 0.07568359375
