sep=,
DeviceTag:,B,,,,,,,,,,,,,,,,,
FirmwareVersion:,2.2.1,,,,,,,,,,,,,,,,,
AppVersion:,2023.6.1,,,,,,,,,,,,,,,,,
SyncStatus:,Synced,,,,,,,,,,,,,,,,,
OutputRate:,60Hz,,,,,,,,,,,,,,,,,
FilterProfile:,General,,,,,,,,,,,,,,,,,
Measurement Mode:,Inertial Mode - Rate quantities (with mag),,,,,,,,,,,,,,,,,
StartTime:,2023-12-05 15:30:06.338 +0200,,,,,,,,,,,,,,,,,
 2023,,,,,,,,,,,,,,,,,,,

PacketCounter,SampleTimeFine,Acc_X,Acc_Y,Acc_Z,Gyr_X,Gyr_Y,Gyr_Z,Mag_X,Mag_Y,Mag_Z
1, 469152752, -7.266409873962402, -1.3934201002120972, 6.314279556274414, -0.17739355564117432, -0.759928822517395, -1.106763243675232, 0.87841796875, 0.2724609375, -0.3994140625
2, 469169419, -7.247859001159668, -1.404554009437561, 6.278291702270508, -0.1584017276763916, -0.7429731488227844, -1.1233474016189575, 0.875732421875, 0.27490234375, -0.400390625
3, 469186086, -7.265830993652344, -1.3929753303527832, 6.252701759338379, -0.28327643871307373, -0.7358400225639343, -1.067895770072937, 0.876953125, 0.27392578125, -0.3994140625
4, 469202753, -7.25745964050293, -1.3862907886505127, 6.248337268829346, -0.19794775545597076, -0.773247480392456, -1.0321149826049805, 0.876953125, 0.2724609375, -0.39794921875
5, 469219420, -7.258793830871582, -1.3953771591186523, 6.275915622711182, -0.22733831405639648, -0.7410650849342346, -1.04086172580719, 0.88037109375, 0.2724609375, -0.40087890625
6, 469236087, -7.250208377838135, -1.3946975469589233, 6.294161319732666, -0.2592901885509491, -0.67356276512146, -1.1522128582000732, 0.87890625, 0.271484375, -0.39990234375
7, 469252754, -7.244392395019531, -1.3918627500534058, 6.266312122344971, -0.2854534983634949, -0.549289882183075, -1.1004880666732788, 0.876953125, 0.2705078125, -0.3984375
8, 469269421, -7.248725891113281, -1.395990252494812, 6.281003952026367, -0.37307456135749817, -0.36174094676971436, -1.0340102910995483, 0.87646484375, 0.2734375, -0.39892578125
9, 469286088, -7.265491485595703, -1.3848823308944702, 6.286872863769531, -0.340994656085968, -0.3688996732234955, -1.0722627639770508, 0.8779296875, 0.27294921875, -0.3994140625
10, 469302755, -7.2513108253479, -1.3813393115997314, 6.283823013305664, -0.2864268124103546, -0.4494132101535797, -1.0490705966949463, 0.876953125, 0.27099609375, -0.3984375
11, 469319422, -7.2693400382995605, -1.385320782661438, 6.2517828941345215, -0.16713567078113556, -0.5753636956214905, -1.0530405044555664, 0.87890625, 0.271484375, -0.39990234375
12, 469336089, -7.267163276672363, -1.4067437648773193, 6.280892372131348, -0.2441786825656891, -0.5969295501708984, -1.0686386823654175, 0.87890625, 0.27294921875, -0.3984375
13, 469352756, -7.260940074920654, -1.3869656324386597, 6.26911735534668, -0.21375079452991486, -0.6258335113525391, -1.0826103687286377, 0.87744140625, 0.271484375, -0.39990234375
14, 469369423, -7.260824203491211, -1.397100806236267, 6.262179851531982, -0.14291884005069733, -0.7338933944702148, -1.0849281549453735, 0.8779296875, 0.27099609375, -0.39892578125
15, 469386090, -7.270339488983154, -1.3878093957901, 6.271974086761475, -0.12949779629707336, -0.66330486536026, -1.1022937297821045, 0.87841796875, 0.271484375, -0.39990234375
16, 469402757, -7.2728776931762695, -1.3671683073043823, 6.305585861206055, -0.2553201913833618, -0.48721757531166077, -1.0899227857589722, 0.87939453125, 0.2705078125, -0.39794921875
17, 469419424, -7.2717366218566895, -1.386703372001648, 6.248147010803223, -0.3447597622871399, -0.43454509973526, -1.1557730436325073, 0.8798828125, 0.2724609375, -0.3984375
18, 469436091, -7.2421979904174805, -1.3939462900161743, 6.280023574829102, -0.25812479853630066, -0.41399088501930237, -1.0963644981384277, 0.87841796875, 0.27294921875, -0.3994140625
19, 469452758, -7.261086463928223, -1.3799480199813843, 6.276447772979736, -0.24452446401119232, -0.6595141887664795, -1.0874768495559692, 0.876953125, 0.27197265625, -0.3984375
20, 469469425, -7.2660908699035645, -1.3874059915542603, 6.272807598114014, -0.11256781220436096, -0.6766875386238098, -1.0509915351867676, 0.8759765625, 0.27294921875, -0.3994140625
21, 469486092, -7.268586158752441, -1.3878151178359985, 6.2658610343933105, -0.08340775966644287, -0.7816483974456787, -1.0894746780395508, 0.87841796875, 0.271484375, -0.397216796875
22, 469502759, -7.273221015930176, -1.3754066228866577, 6.2779340744018555, -0.12460578233003616, -0.8421455025672913, -1.170654058456421, 0.88134765625, 0.2724609375, -0.4013671875
23, 469519426, -7.251545429229736, -1.3932653665542603, 6.278968811035156, -0.20967835187911987, -0.8310809135437012, -1.1593587398529053, 0.87939453125, 0.27099609375, -0.40087890625
24, 469536093, -7.274135112762451, -1.3822739124298096, 6.287771701812744, -0.21924470365047455, -0.8758261799812317, -1.1105026006698608, 0.87890625, 0.2724609375, -0.400390625
25, 469552760, -7.266780853271484, -1.380082130432129, 6.2793097496032715, -0.21181701123714447, -0.8820245862007141, -1.248094081878662, 0.87890625, 0.27294921875, -0.39892578125
26, 469569427, -7.262359619140625, -1.3860892057418823, 6.290676116943359, -0.23138514161109924, -0.8231921792030334, -1.1232833862304688, 0.87841796875, 0.27294921875, -0.39990234375
27, 469586094, -7.271695137023926, -1.4005661010742188, 6.2990922927856445, -0.23000206053256989, -0.776986837387085, -1.179669737815857, 0.87890625, 0.27099609375, -0.3994140625
28, 469602761, -7.250024318695068, -1.3881057500839233, 6.265084266662598, -0.20700185000896454, -0.8135874271392822, -1.1022298336029053, 0.881103515625, 0.271484375, -0.39892578125
29, 469619428, -7.248423099517822, -1.3987088203430176, 6.2841267585754395, -0.20469669997692108, -0.7957865595817566, -1.1666200160980225, 0.88037109375, 0.271484375, -0.3994140625
30, 469636095, -7.265644073486328, -1.3710708618164062, 6.298367977142334, -0.18477000296115875, -0.7556771039962769, -1.1674140691757202, 0.87841796875, 0.271484375, -0.40087890625
31, 469652762, -7.260366439819336, -1.3967785835266113, 6.279760837554932, -0.25147828459739685, -0.7763593196868896, -1.196561336517334, 0.87841796875, 0.2724609375, -0.397216796875
32, 469669429, -7.270982265472412, -1.3970800638198853, 6.307650089263916, -0.19935646653175354, -0.8602538108825684, -1.2417293787002563, 0.876953125, 0.2724609375, -0.3984375
33, 469686096, -7.265474319458008, -1.3907952308654785, 6.2838592529296875, -0.24965977668762207, -0.7972592711448669, -1.2484526634216309, 0.87890625, 0.271484375, -0.39794921875
34, 469702763, -7.26054573059082, -1.393548607826233, 6.264086723327637, -0.3133201599121094, -0.7405784130096436, -1.273770809173584, 0.8779296875, 0.270263671875, -0.3994140625
35, 469719430, -7.259716987609863, -1.385256052017212, 6.258597373962402, -0.2582785189151764, -0.8285452723503113, -1.2960537672042847, 0.87939453125, 0.2724609375, -0.40234375
36, 469736097, -7.2636847496032715, -1.3685402870178223, 6.313652515411377, -0.37266477942466736, -0.726491391658783, -1.3893096446990967, 0.8779296875, 0.27197265625, -0.39892578125
37, 469752764, -7.257215976715088, -1.388930082321167, 6.2679314613342285, -0.41591185331344604, -0.7598135471343994, -1.4242967367172241, 0.8779296875, 0.27099609375, -0.39794921875
38, 469769431, -7.2522664070129395, -1.4067481756210327, 6.278020858764648, -0.46487051248550415, -0.6870478391647339, -1.4124635457992554, 0.8779296875, 0.2705078125, -0.3994140625
39, 469786098, -7.2640275955200195, -1.374220848083496, 6.280652046203613, -0.4261184632778168, -0.6044469475746155, -1.4014372825622559, 0.876953125, 0.271484375, -0.3994140625
40, 469802765, -7.258047580718994, -1.3884323835372925, 6.283555507659912, -0.46303921937942505, -0.6849988698959351, -1.3756582736968994, 0.87890625, 0.27197265625, -0.40185546875
41, 469819432, -7.26632022857666, -1.392161250114441, 6.2652459144592285, -0.504736602306366, -0.5504425168037415, -1.4927849769592285, 0.87939453125, 0.271484375, -0.39892578125
42, 469836099, -7.254158973693848, -1.3977805376052856, 6.285200119018555, -0.41457998752593994, -0.4904960095882416, -1.421043872833252, 0.87939453125, 0.27197265625, -0.4013671875
43, 469852766, -7.274902820587158, -1.397500991821289, 6.271449565887451, -0.3545566201210022, -0.5769004821777344, -1.3127659559249878, 0.87939453125, 0.2734375, -0.3974609375
44, 469869433, -7.2801361083984375, -1.414446473121643, 6.278363227844238, -0.33471956849098206, -0.604574978351593, -1.1789780855178833, 0.87841796875, 0.27197265625, -0.3974609375
45, 469886100, -7.261805534362793, -1.3870351314544678, 6.273861408233643, -0.3008083701133728, -0.5505322217941284, -1.1733689308166504, 0.87646484375, 0.27197265625, -0.3994140625
46, 469902767, -7.276384353637695, -1.4045413732528687, 6.277970790863037, -0.20035535097122192, -0.7009683847427368, -1.0973248481750488, 0.87939453125, 0.27294921875, -0.39892578125
47, 469919434, -7.260601043701172, -1.3868954181671143, 6.286813259124756, -0.21750305593013763, -0.8261759877204895, -1.0536425113677979, 0.8779296875, 0.27099609375, -0.39794921875
48, 469936101, -7.2566752433776855, -1.380797266960144, 6.279094219207764, -0.11327215284109116, -0.8511484265327454, -1.1155353784561157, 0.87939453125, 0.2734375, -0.3974609375
49, 469952768, -7.255797386169434, -1.3843506574630737, 6.290846347808838, -0.17496034502983093, -0.8696920275688171, -1.0786147117614746, 0.8779296875, 0.271484375, -0.3984375
50, 469969435, -7.257511615753174, -1.3882248401641846, 6.286335468292236, -0.08516222983598709, -0.7651665806770325, -1.1906319856643677, 0.87744140625, 0.271484375, -0.39892578125
51, 469986102, -7.266174793243408, -1.395169734954834, 6.266165256500244, -0.1119018942117691, -0.8230640888214111, -1.1876224279403687, 0.8779296875, 0.27392578125, -0.39990234375
52, 470002769, -7.266468048095703, -1.3972773551940918, 6.269509315490723, -0.12336355447769165, -0.7799707055091858, -1.0710718631744385, 0.87939453125, 0.271484375, -0.40087890625
53, 470019436, -7.270847797393799, -1.396465539932251, 6.2787017822265625, 0.07867580652236938, -0.8671051859855652, -0.9990490078926086, 0.87841796875, 0.27294921875, -0.40087890625
54, 470036103, -7.269298553466797, -1.4093421697616577, 6.255027770996094, 0.1621091663837433, -1.0974786281585693, -0.8754804134368896, 0.87646484375, 0.27197265625, -0.39697265625
55, 470052770, -7.269196510314941, -1.4040943384170532, 6.283230304718018, 0.188567116856575, -1.251564621925354, -0.7555233836174011, 0.87890625, 0.27099609375, -0.397705078125
56, 470069437, -7.2614030838012695, -1.3986741304397583, 6.267204284667969, 0.09788533300161362, -1.3176836967468262, -0.767510175704956, 0.8759765625, 0.27392578125, -0.3974609375
57, 470086104, -7.260686874389648, -1.358927607536316, 6.285156726837158, -0.07719668000936508, -0.9150776863098145, -1.0139042139053345, 0.8779296875, 0.27294921875, -0.39990234375
58, 470102771, -7.253953456878662, -1.378402590751648, 6.257789611816406, -0.20351853966712952, -0.7090235948562622, -1.1867389678955078, 0.882080078125, 0.27197265625, -0.39990234375
59, 470119438, -7.265449523925781, -1.3903369903564453, 6.259103775024414, -0.302857369184494, -0.6542251706123352, -1.2430355548858643, 0.88037109375, 0.27099609375, -0.39990234375
60, 470136105, -7.274258136749268, -1.3799304962158203, 6.244429588317871, -0.275182843208313, -0.7790486812591553, -1.2112758159637451, 0.87939453125, 0.2744140625, -0.400390625
61, 470152772, -7.256444454193115, -1.3864598274230957, 6.3076491355896, -0.24644538760185242, -0.7635913491249084, -1.2452125549316406, 0.876953125, 0.271484375, -0.39892578125
62, 470169439, -7.2692694664001465, -1.3830349445343018, 6.2735090255737305, -0.24247542023658752, -0.842376172542572, -1.241268277168274, 0.87939453125, 0.2724609375, -0.39794921875
63, 470186106, -7.261196136474609, -1.3920927047729492, 6.290618419647217, -0.24467813968658447, -0.8175829648971558, -1.2545740604400635, 0.8759765625, 0.2724609375, -0.40087890625
64, 470202773, -7.267450332641602, -1.3763158321380615, 6.248377323150635, -0.2516191601753235, -0.7564326524734497, -1.2901501655578613, 0.8779296875, 0.27197265625, -0.39892578125
65, 470219440, -7.268223762512207, -1.392903208732605, 6.271481513977051, -0.2740814983844757, -0.7657812833786011, -1.3301827907562256, 0.88037109375, 0.2724609375, -0.39892578125
66, 470236107, -7.254340648651123, -1.391461968421936, 6.302344799041748, -0.3034464716911316, -0.6024235486984253, -1.2845795154571533, 0.8779296875, 0.2734375, -0.3994140625
67, 470252774, -7.274113178253174, -1.3907980918884277, 6.2629899978637695, -0.34726980328559875, -0.6034736633300781, -1.245827317237854, 0.8759765625, 0.27197265625, -0.3994140625
68, 470269441, -7.2627644538879395, -1.3831167221069336, 6.250754356384277, -0.3603834807872772, -0.5560517311096191, -1.2409096956253052, 0.87890625, 0.2705078125, -0.39990234375
69, 470286108, -7.254695892333984, -1.3952398300170898, 6.2591071128845215, -0.33003243803977966, -0.5311945676803589, -1.3126380443572998, 0.87890625, 0.271484375, -0.39892578125
70, 470302775, -7.259028434753418, -1.393273115158081, 6.280636310577393, -0.1681729555130005, -0.6975361704826355, -1.2006080150604248, 0.88037109375, 0.271484375, -0.3994140625
71, 470319442, -7.269016265869141, -1.391418695449829, 6.301028251647949, -0.24638135731220245, -0.748390257358551, -1.2079716920852661, 0.87890625, 0.2705078125, -0.3984375
72, 470336109, -7.260326385498047, -1.3964406251907349, 6.267173767089844, -0.17291133105754852, -0.6676718592643738, -1.2343913316726685, 0.8798828125, 0.27197265625, -0.39990234375
73, 470352776, -7.259210109710693, -1.381547451019287, 6.258720874786377, -0.26115989685058594, -0.7242118716239929, -1.33205246925354, 0.87890625, 0.2734375, -0.400390625
74, 470369443, -7.270867347717285, -1.383194923400879, 6.28286075592041, -0.30299824476242065, -0.7161951065063477, -1.2124028205871582, 0.8759765625, 0.27294921875, -0.3994140625
75, 470386110, -7.27298641204834, -1.3849961757659912, 6.277468681335449, -0.30135902762413025, -0.7394642233848572, -1.2364788055419922, 0.8779296875, 0.27294921875, -0.40087890625
76, 470402777, -7.267098426818848, -1.3850940465927124, 6.249943733215332, -0.3819621801376343, -0.6550960540771484, -1.277177333831787, 0.8798828125, 0.271484375, -0.397216796875
77, 470419444, -7.2513108253479, -1.3838696479797363, 6.260443687438965, -0.41160890460014343, -0.5630183815956116, -1.398671269416809, 0.8798828125, 0.2705078125, -0.39794921875
78, 470436111, -7.259464263916016, -1.3990306854248047, 6.254988193511963, -0.49365919828414917, -0.4938769042491913, -1.3581774234771729, 0.8779296875, 0.271484375, -0.39990234375
79, 470452778, -7.276327133178711, -1.397863507270813, 6.294634819030762, -0.6341960430145264, -0.2638748288154602, -1.4033197164535522, 0.87841796875, 0.27197265625, -0.3974609375
80, 470469445, -7.256284236907959, -1.3933659791946411, 6.260327339172363, -0.47427037358283997, -0.4444827437400818, -1.4008609056472778, 0.880615234375, 0.2724609375, -0.396728515625
81, 470486112, -7.260804653167725, -1.4083095788955688, 6.276750087738037, -0.43101051449775696, -0.6970880627632141, -1.3185930252075195, 0.87744140625, 0.27294921875, -0.39794921875
82, 470502779, -7.266183853149414, -1.3790690898895264, 6.306021690368652, -0.32835477590560913, -0.71029132604599, -1.3029435873031616, 0.88134765625, 0.2724609375, -0.3994140625
83, 470519446, -7.276909351348877, -1.388584852218628, 6.282703876495361, -0.32246389985084534, -0.7607868313789368, -1.2824405431747437, 0.8798828125, 0.271484375, -0.3984375
84, 470536113, -7.254909515380859, -1.4066636562347412, 6.276651859283447, -0.2809073030948639, -0.8130752444267273, -1.2524354457855225, 0.87841796875, 0.2724609375, -0.39892578125
85, 470552780, -7.270307540893555, -1.392643690109253, 6.27824592590332, -0.2092045247554779, -0.8422351479530334, -1.2987943887710571, 0.87939453125, 0.2724609375, -0.39794921875
86, 470569447, -7.270120620727539, -1.4027864933013916, 6.2685770988464355, -0.19661590456962585, -0.9334548711776733, -1.1649936437606812, 0.876953125, 0.2734375, -0.39794921875
87, 470586114, -7.259649276733398, -1.3822999000549316, 6.277439594268799, -0.315574049949646, -0.7677919268608093, -1.206575870513916, 0.87841796875, 0.2724609375, -0.397216796875
88, 470602781, -7.263660907745361, -1.4006239175796509, 6.294179439544678, -0.3304678797721863, -0.6605131030082703, -1.2054744958877563, 0.87939453125, 0.27099609375, -0.39892578125
89, 470619448, -7.260366439819336, -1.3982603549957275, 6.266259670257568, -0.26683309674263, -0.7394386529922485, -1.2352877855300903, 0.87939453125, 0.271484375, -0.3984375
90, 470636115, -7.2731146812438965, -1.3903453350067139, 6.275835990905762, -0.21004974842071533, -0.7276440262794495, -1.1728439331054688, 0.87744140625, 0.27197265625, -0.39892578125
91, 470652782, -7.266298770904541, -1.3909066915512085, 6.2607808113098145, -0.26067325472831726, -0.7556130290031433, -1.2238131761550903, 0.87841796875, 0.27490234375, -0.396728515625
92, 470669449, -7.260870456695557, -1.3798357248306274, 6.2740325927734375, -0.24479340016841888, -0.7639243602752686, -1.1849842071533203, 0.8759765625, 0.2734375, -0.3974609375
93, 470686116, -7.2526140213012695, -1.412023901939392, 6.26481294631958, -0.4007362723350525, -0.6463364362716675, -1.2167184352874756, 0.87890625, 0.2734375, -0.3994140625
94, 470702783, -7.263298511505127, -1.3944979906082153, 6.2653632164001465, -0.34116116166114807, -0.6413676142692566, -1.1566312313079834, 0.882080078125, 0.2734375, -0.3984375
95, 470719450, -7.249042987823486, -1.4028605222702026, 6.262811183929443, -0.30237069725990295, -0.6558899879455566, -1.1428642272949219, 0.88037109375, 0.2724609375, -0.39794921875
96, 470736117, -7.2607598304748535, -1.4012247323989868, 6.288090229034424, -0.21851477026939392, -0.6967678666114807, -1.1607420444488525, 0.8779296875, 0.27197265625, -0.396240234375
97, 470752784, -7.25874662399292, -1.3865692615509033, 6.244121074676514, -0.20116212964057922, -0.6439288258552551, -1.1087993383407593, 0.87890625, 0.27392578125, -0.3984375
98, 470769451, -7.260672092437744, -1.4052317142486572, 6.266284942626953, -0.3186924159526825, -0.5748451352119446, -1.234320878982544, 0.876953125, 0.27294921875, -0.39794921875
99, 470786118, -7.262189865112305, -1.3885788917541504, 6.260018348693848, -0.33941951394081116, -0.6285613179206848, -1.281646728515625, 0.87890625, 0.27294921875, -0.39892578125
100, 470802785, -7.270142555236816, -1.398420810699463, 6.265877723693848, -0.2629527747631073, -0.6409193873405457, -1.2716577053070068, 0.87939453125, 0.27197265625, -0.4013671875
101, 470819452, -7.264341831207275, -1.4112917184829712, 6.27574348449707, -0.2377498745918274, -0.7800987362861633, -1.2508347034454346, 0.880859375, 0.27294921875, -0.3984375
102, 470836119, -7.267301559448242, -1.381147861480713, 6.283544063568115, -0.22669798135757446, -0.7316651344299316, -1.2748849391937256, 0.87890625, 0.27392578125, -0.396728515625
103, 470852786, -7.256396770477295, -1.4028596878051758, 6.283658981323242, -0.21508263051509857, -0.7470839619636536, -1.2508602142333984, 0.8779296875, 0.27197265625, -0.400390625
104, 470869453, -7.2649827003479, -1.3924462795257568, 6.267525672912598, -0.2654884159564972, -0.8005377054214478, -1.2744110822677612, 0.8779296875, 0.2724609375, -0.39794921875
105, 470886120, -7.261110305786133, -1.3933840990066528, 6.2635722160339355, -0.34095627069473267, -0.6295217275619507, -1.2672909498214722, 0.880859375, 0.2734375, -0.39794921875
106, 470902787, -7.265078544616699, -1.407822847366333, 6.2778000831604, -0.24983906745910645, -0.7607611417770386, -1.3112804889678955, 0.8798828125, 0.27197265625, -0.40087890625
107, 470919454, -7.267803192138672, -1.4004948139190674, 6.276373386383057, -0.27646344900131226, -0.7645646333694458, -1.3471125364303589, 0.8798828125, 0.2734375, -0.3974609375
108, 470936121, -7.268589973449707, -1.3809316158294678, 6.248117923736572, -0.2677551805973053, -0.8115255832672119, -1.3201168775558472, 0.8798828125, 0.27294921875, -0.39794921875
109, 470952788, -7.269759178161621, -1.406111478805542, 6.257168769836426, -0.32817551493644714, -0.8107956647872925, -1.2910081148147583, 0.876953125, 0.27490234375, -0.3984375
110, 470969455, -7.252964019775391, -1.4040814638137817, 6.257274627685547, -0.31662416458129883, -0.7347387075424194, -1.2584929466247559, 0.87890625, 0.2734375, -0.39892578125
111, 470986122, -7.2712016105651855, -1.4026439189910889, 6.256689071655273, -0.3716018497943878, -0.730000376701355, -1.2895610332489014, 0.87939453125, 0.2734375, -0.3984375
112, 471002789, -7.263017654418945, -1.4049369096755981, 6.25777530670166, -0.27167388796806335, -0.7180007696151733, -1.2834522724151611, 0.88134765625, 0.2724609375, -0.39990234375
113, 471019456, -7.268167018890381, -1.4096320867538452, 6.280452251434326, -0.292087197303772, -0.6295729875564575, -1.2961434125900269, 0.87939453125, 0.2734375, -0.39794921875
114, 471036123, -7.263731956481934, -1.4085780382156372, 6.251974582672119, -0.339970201253891, -0.6529573798179626, -1.3097695112228394, 0.87939453125, 0.2744140625, -0.3974609375
115, 471052790, -7.27213716506958, -1.3956793546676636, 6.250601291656494, -0.2703164219856262, -0.6621139049530029, -1.339787483215332, 0.87744140625, 0.2724609375, -0.3994140625
116, 471069457, -7.265857696533203, -1.4046072959899902, 6.260030746459961, -0.3654676079750061, -0.6669931411743164, -1.3395824432373047, 0.8779296875, 0.27294921875, -0.39794921875
117, 471086124, -7.251837730407715, -1.4122530221939087, 6.276656150817871, -0.32893106341362, -0.6378457546234131, -1.3492640256881714, 0.8779296875, 0.2724609375, -0.396728515625
118, 471102791, -7.278027534484863, -1.3961808681488037, 6.290335178375244, -0.35357049107551575, -0.633863091468811, -1.357818841934204, 0.87841796875, 0.27294921875, -0.3984375
119, 471119458, -7.275458335876465, -1.4055495262145996, 6.269420623779297, -0.24553614854812622, -0.740399181842804, -1.344385027885437, 0.87939453125, 0.2734375, -0.39794921875
120, 471136125, -7.274979114532471, -1.4139703512191772, 6.269106864929199, -0.16999147832393646, -0.895368754863739, -1.341823697090149, 0.8798828125, 0.27392578125, -0.39892578125
121, 471152792, -7.274507522583008, -1.40461266040802, 6.264285564422607, -0.1863452047109604, -0.7618625164031982, -1.2622963190078735, 0.87744140625, 0.27392578125, -0.39892578125
122, 471169459, -7.275609016418457, -1.4137390851974487, 6.268855094909668, -0.22024358808994293, -0.8171091079711914, -1.3156729936599731, 0.87646484375, 0.271484375, -0.3994140625
123, 471186126, -7.27830171585083, -1.4012655019760132, 6.26247501373291, -0.1587218940258026, -0.7452015280723572, -1.3026747703552246, 0.87890625, 0.2724609375, -0.39794921875
124, 471202793, -7.273505687713623, -1.3966200351715088, 6.262362003326416, -0.23973488807678223, -0.776538610458374, -1.2624884843826294, 0.88134765625, 0.27392578125, -0.39892578125
125, 471219460, -7.261354923248291, -1.4131649732589722, 6.280431270599365, -0.1994204819202423, -0.8722148537635803, -1.2585824728012085, 0.880859375, 0.2734375, -0.39892578125
126, 471236127, -7.261916637420654, -1.3932411670684814, 6.261821746826172, -0.2909218668937683, -0.8635321259498596, -1.2490545511245728, 0.87939453125, 0.27392578125, -0.3984375
127, 471252794, -7.255688190460205, -1.396561861038208, 6.265125751495361, -0.2524771988391876, -0.8333731889724731, -1.226656198501587, 0.87841796875, 0.27099609375, -0.39794921875
128, 471269461, -7.250296115875244, -1.4179526567459106, 6.28190279006958, -0.1249515637755394, -0.824805736541748, -1.2470438480377197, 0.8759765625, 0.2734375, -0.3984375
129, 471286128, -7.27076530456543, -1.4095858335494995, 6.28141975402832, -0.17662519216537476, -0.8477675318717957, -1.2213927507400513, 0.880859375, 0.27392578125, -0.39794921875
130, 471302795, -7.267343044281006, -1.392380952835083, 6.267787933349609, -0.21983379125595093, -0.7471224069595337, -1.215886116027832, 0.87939453125, 0.27392578125, -0.39990234375
131, 471319462, -7.2674102783203125, -1.4016283750534058, 6.287527084350586, -0.25736919045448303, -0.8007425665855408, -1.209559679031372, 0.87939453125, 0.2724609375, -0.39794921875
132, 471336129, -7.273057460784912, -1.3915327787399292, 6.269859790802002, -0.18922661244869232, -0.7670235633850098, -1.1801692247390747, 0.87841796875, 0.27294921875, -0.39794921875
133, 471352796, -7.262850761413574, -1.39913809299469, 6.288412094116211, -0.2997966706752777, -0.7936094999313354, -1.221892237663269, 0.87744140625, 0.2724609375, -0.39794921875
134, 471369463, -7.261821746826172, -1.4132455587387085, 6.246136665344238, -0.24098989367485046, -0.7646159529685974, -1.1932189464569092, 0.87890625, 0.275146484375, -0.3984375
135, 471386130, -7.272704124450684, -1.4281076192855835, 6.249279975891113, -0.21587665379047394, -0.7610173225402832, -1.220778226852417, 0.87744140625, 0.2724609375, -0.3984375
136, 471402797, -7.28063440322876, -1.4000983238220215, 6.2679266929626465, -0.18100494146347046, -0.6963964104652405, -1.1591154336929321, 0.87841796875, 0.27197265625, -0.39794921875
137, 471419464, -7.258891582489014, -1.3953454494476318, 6.283294677734375, -0.24916033446788788, -0.6745361089706421, -1.233392357826233, 0.87939453125, 0.271484375, -0.39892578125
138, 471436131, -7.262695789337158, -1.4031962156295776, 6.282349109649658, -0.2554994821548462, -0.6444539427757263, -1.2787139415740967, 0.87841796875, 0.2734375, -0.3984375
139, 471452798, -7.261700630187988, -1.424898386001587, 6.266486167907715, -0.2363155633211136, -0.6706044673919678, -1.231202483177185, 0.87744140625, 0.27392578125, -0.39794921875
140, 471469465, -7.26055383682251, -1.4147580862045288, 6.280371189117432, -0.13222557306289673, -0.6411755084991455, -1.3054025173187256, 0.87451171875, 0.2734375, -0.39697265625
141, 471486132, -7.25689697265625, -1.3950611352920532, 6.273139953613281, -0.24462687969207764, -0.7981301546096802, -1.24454665184021, 0.87939453125, 0.27392578125, -0.3974609375
142, 471502799, -7.254868030548096, -1.3910044431686401, 6.276217460632324, -0.19566820561885834, -0.7140308618545532, -1.2108402252197266, 0.880859375, 0.2724609375, -0.3984375
143, 471519466, -7.261412620544434, -1.3941036462783813, 6.262317657470703, -0.21765673160552979, -0.6168050169944763, -1.3223453760147095, 0.87890625, 0.2734375, -0.39892578125
144, 471536133, -7.264901638031006, -1.407120704650879, 6.245794773101807, -0.26924070715904236, -0.7136979103088379, -1.3363938331604004, 0.87890625, 0.2734375, -0.3984375
145, 471552800, -7.265459060668945, -1.4102814197540283, 6.24762487411499, -0.3016919791698456, -0.7201266884803772, -1.3197840452194214, 0.87744140625, 0.2734375, -0.3984375
146, 471569467, -7.273641586303711, -1.422228455543518, 6.269592761993408, -0.20392833650112152, -0.8492787480354309, -1.272631049156189, 0.87646484375, 0.27392578125, -0.396728515625
147, 471586134, -7.275605201721191, -1.413983941078186, 6.272471904754639, -0.19218489527702332, -0.8283787369728088, -1.2902015447616577, 0.87744140625, 0.275390625, -0.3994140625
148, 471602801, -7.257620334625244, -1.4130438566207886, 6.2810959815979, -0.2023659348487854, -0.8102064728736877, -1.2211111783981323, 0.8798828125, 0.2734375, -0.39892578125
149, 471619468, -7.255612850189209, -1.415761113166809, 6.248305320739746, -0.3268820643424988, -0.7049127221107483, -1.2446364164352417, 0.87841796875, 0.27294921875, -0.3984375
150, 471636135, -7.266853332519531, -1.4062694311141968, 6.239641189575195, -0.2739790380001068, -0.6705532670021057, -1.2866666316986084, 0.876953125, 0.27490234375, -0.39697265625
151, 471652802, -7.279292583465576, -1.41068696975708, 6.2754693031311035, -0.22476424276828766, -0.7096510529518127, -1.2355310916900635, 0.87841796875, 0.275634765625, -0.396728515625
152, 471669469, -7.260008335113525, -1.4228284358978271, 6.268103122711182, -0.2755926549434662, -0.6786852478981018, -1.2571481466293335, 0.87841796875, 0.27294921875, -0.3974609375
153, 471686136, -7.262866020202637, -1.4056575298309326, 6.264063835144043, -0.27157145738601685, -0.6697335839271545, -1.2499380111694336, 0.87841796875, 0.2744140625, -0.39794921875
154, 471702803, -7.266445636749268, -1.407817006111145, 6.272373199462891, -0.21241894364356995, -0.7585713267326355, -1.1391761302947998, 0.880859375, 0.2734375, -0.3994140625
155, 471719470, -7.2597808837890625, -1.397351861000061, 6.238349914550781, -0.12134016305208206, -0.7853237986564636, -1.1728824377059937, 0.8818359375, 0.274658203125, -0.3974609375
156, 471736137, -7.273351192474365, -1.399595022201538, 6.28351354598999, -0.17978835105895996, -0.8012933731079102, -1.2432788610458374, 0.88037109375, 0.275634765625, -0.39990234375
157, 471752804, -7.272907733917236, -1.4005450010299683, 6.261693000793457, -0.22219017148017883, -0.762016236782074, -1.2038609981536865, 0.87744140625, 0.27197265625, -0.3974609375
158, 471769471, -7.266939640045166, -1.390186071395874, 6.27134895324707, -0.2332548350095749, -0.8160589933395386, -1.182102918624878, 0.875244140625, 0.275390625, -0.39990234375
159, 471786138, -7.260941028594971, -1.416435718536377, 6.251662731170654, -0.23265297710895538, -0.7256590723991394, -1.1506506204605103, 0.87939453125, 0.271484375, -0.39794921875
160, 471802805, -7.276090621948242, -1.3907437324523926, 6.244150638580322, -0.26064765453338623, -0.82088702917099, -1.1961771249771118, 0.87939453125, 0.2734375, -0.3974609375
161, 471819472, -7.263965129852295, -1.4142343997955322, 6.274598121643066, -0.18110740184783936, -0.8462691307067871, -1.1278423070907593, 0.87841796875, 0.27294921875, -0.397216796875
162, 471836139, -7.258701801300049, -1.399395227432251, 6.280178546905518, -0.20892278850078583, -0.7771021127700806, -1.1398804187774658, 0.87744140625, 0.275390625, -0.39892578125
163, 471852806, -7.264649391174316, -1.4024395942687988, 6.256017684936523, -0.20097005367279053, -0.7453551888465881, -1.1083511114120483, 0.8759765625, 0.27490234375, -0.3994140625
164, 471869473, -7.258629322052002, -1.404374122619629, 6.280158519744873, -0.23097532987594604, -0.8634809851646423, -1.171768307685852, 0.87646484375, 0.27294921875, -0.39990234375
165, 471886140, -7.2599921226501465, -1.4171024560928345, 6.276625156402588, -0.25187528133392334, -0.7068976759910583, -1.199570894241333, 0.8798828125, 0.27490234375, -0.397216796875
166, 471902807, -7.253533363342285, -1.4238942861557007, 6.266294956207275, -0.2874257266521454, -0.6961531639099121, -1.2348651885986328, 0.87744140625, 0.27294921875, -0.3974609375
167, 471919474, -7.262045860290527, -1.4183259010314941, 6.27847957611084, -0.2665513753890991, -0.7105346918106079, -1.2115318775177002, 0.88037109375, 0.274658203125, -0.396240234375
168, 471936141, -7.278625011444092, -1.4023538827896118, 6.291362762451172, -0.28267455101013184, -0.663100004196167, -1.0693557262420654, 0.8798828125, 0.2744140625, -0.395751953125
169, 471952808, -7.271292686462402, -1.4014554023742676, 6.296408653259277, -0.22835002839565277, -0.721688985824585, -1.1863290071487427, 0.87890625, 0.27392578125, -0.397216796875
170, 471969475, -7.267762184143066, -1.3986468315124512, 6.2452006340026855, -0.3365252614021301, -0.7365956902503967, -1.1366019248962402, 0.876953125, 0.27392578125, -0.396240234375
171, 471986142, -7.2743682861328125, -1.3967677354812622, 6.286904335021973, -0.1874849647283554, -0.7128270864486694, -1.1624835729599, 0.87841796875, 0.27392578125, -0.39892578125
172, 472002809, -7.268373489379883, -1.3876891136169434, 6.253626346588135, -0.2328834980726242, -0.8201571106910706, -1.1277145147323608, 0.8779296875, 0.2744140625, -0.3984375
173, 472019476, -7.257130146026611, -1.4012649059295654, 6.278268814086914, -0.22482827305793762, -0.7830058932304382, -1.1464756727218628, 0.87939453125, 0.2724609375, -0.3974609375
174, 472036143, -7.258286476135254, -1.3979517221450806, 6.288351535797119, -0.18745937943458557, -0.8442330360412598, -1.213171124458313, 0.8798828125, 0.27490234375, -0.3974609375
175, 472052810, -7.2536492347717285, -1.4184181690216064, 6.306565761566162, -0.18183736503124237, -0.8400070071220398, -1.1935135126113892, 0.87646484375, 0.2744140625, -0.39892578125
176, 472069477, -7.256959915161133, -1.407118320465088, 6.288830757141113, -0.18672938644886017, -0.7632583975791931, -1.213299036026001, 0.87646484375, 0.27392578125, -0.39892578125
177, 472086144, -7.268615245819092, -1.4034022092819214, 6.2796711921691895, -0.22199806571006775, -0.7525011301040649, -1.1404311656951904, 0.87841796875, 0.2724609375, -0.3994140625
178, 472102811, -7.262728691101074, -1.395185947418213, 6.274992942810059, -0.1980758160352707, -0.6923496723175049, -1.1813346147537231, 0.87939453125, 0.275634765625, -0.396728515625
179, 472119478, -7.253818988800049, -1.4058903455734253, 6.25872278213501, -0.16407494246959686, -0.7631816267967224, -1.2292686700820923, 0.88037109375, 0.27294921875, -0.397216796875
180, 472136145, -7.2584052085876465, -1.3996679782867432, 6.286960124969482, -0.25779181718826294, -0.8972512483596802, -1.2104690074920654, 0.8798828125, 0.27197265625, -0.396240234375
181, 472152812, -7.262886047363281, -1.3998032808303833, 6.279167175292969, -0.12075107544660568, -0.8714592456817627, -1.264755129814148, 0.87646484375, 0.27392578125, -0.395751953125
182, 472169479, -7.266088962554932, -1.408847689628601, 6.260429382324219, -0.13506856560707092, -0.8771068453788757, -1.1598069667816162, 0.87646484375, 0.275390625, -0.396240234375
183, 472186146, -7.260838508605957, -1.3977024555206299, 6.282714366912842, -0.1510636955499649, -0.8662598729133606, -1.1314408779144287, 0.88037109375, 0.27294921875, -0.39990234375
184, 472202813, -7.25784969329834, -1.4036545753479004, 6.275941371917725, -0.1303430199623108, -0.7857592701911926, -1.2006465196609497, 0.87939453125, 0.27294921875, -0.4013671875
185, 472219480, -7.26719331741333, -1.387763261795044, 6.304081916809082, -0.16284553706645966, -0.6706044673919678, -1.1132816076278687, 0.87939453125, 0.27099609375, -0.39892578125
186, 472236147, -7.270460605621338, -1.395592451095581, 6.254758834838867, -0.13449229300022125, -0.5708558559417725, -1.0853766202926636, 0.87744140625, 0.27490234375, -0.395751953125
187, 472252814, -7.270153045654297, -1.3940110206604004, 6.2535271644592285, -0.19793494045734406, -0.7427938580513, -1.0862985849380493, 0.8779296875, 0.2744140625, -0.39697265625
188, 472269481, -7.258743762969971, -1.4057029485702515, 6.269567966461182, -0.13702793419361115, -0.9192398190498352, -1.073197603225708, 0.87841796875, 0.27294921875, -0.397216796875
189, 472286148, -7.279401779174805, -1.387824296951294, 6.256831645965576, -0.14816948771476746, -0.7896907329559326, -1.0633881092071533, 0.880859375, 0.27294921875, -0.3984375
190, 472302815, -7.24893045425415, -1.4079939126968384, 6.270102024078369, -0.1871519833803177, -0.8016390204429626, -1.2080485820770264, 0.88037109375, 0.275146484375, -0.3994140625
191, 472319482, -7.2721028327941895, -1.397910714149475, 6.2809157371521, -0.153189554810524, -0.7809696197509766, -1.1702314615249634, 0.8818359375, 0.2744140625, -0.400390625
192, 472336149, -7.279966831207275, -1.4018970727920532, 6.263815402984619, -0.20437651872634888, -0.7602362036705017, -1.1670171022415161, 0.87939453125, 0.27197265625, -0.3994140625
193, 472352816, -7.257603645324707, -1.4011820554733276, 6.282837867736816, -0.18824054300785065, -0.8353966474533081, -1.148550271987915, 0.87939453125, 0.275634765625, -0.39892578125
194, 472369483, -7.25870418548584, -1.4075573682785034, 6.260138988494873, -0.1387311816215515, -0.78750079870224, -1.1376264095306396, 0.87744140625, 0.27392578125, -0.39990234375
195, 472386150, -7.270432472229004, -1.4020873308181763, 6.286370754241943, -0.15439334511756897, -0.8794119954109192, -1.1731256246566772, 0.8779296875, 0.27392578125, -0.395751953125
196, 472402817, -7.2637810707092285, -1.389797568321228, 6.256051063537598, -0.280804842710495, -0.8630199432373047, -1.14212167263031, 0.87890625, 0.27099609375, -0.3984375
197, 472419484, -7.268747329711914, -1.3956272602081299, 6.287586212158203, -0.19803741574287415, -0.9253740906715393, -1.183678150177002, 0.88037109375, 0.27197265625, -0.397216796875
198, 472436151, -7.268359184265137, -1.3855321407318115, 6.270470142364502, -0.16367796063423157, -0.7973105907440186, -1.1139988899230957, 0.88037109375, 0.2724609375, -0.3994140625
199, 472452818, -7.268441200256348, -1.392640471458435, 6.26248836517334, -0.2851718068122864, -0.8346282243728638, -1.1698471307754517, 0.87841796875, 0.2724609375, -0.396728515625
200, 472469485, -7.266836643218994, -1.401212215423584, 6.294661045074463, -0.2140965461730957, -0.7540379762649536, -1.0694327354431152, 0.8779296875, 0.2734375, -0.3974609375
201, 472486152, -7.275247573852539, -1.4112902879714966, 6.271713733673096, -0.23233281075954437, -0.6990218162536621, -1.1068785190582275, 0.8779296875, 0.27294921875, -0.3974609375
202, 472502819, -7.275925636291504, -1.399054765701294, 6.262696743011475, -0.186550110578537, -0.744036078453064, -1.0626068115234375, 0.87744140625, 0.27197265625, -0.397216796875
203, 472519486, -7.275230407714844, -1.3873275518417358, 6.250701904296875, -0.1925690770149231, -0.7629126906394958, -1.0978500843048096, 0.87939453125, 0.2705078125, -0.3994140625
204, 472536153, -7.265353679656982, -1.3974783420562744, 6.266355514526367, -0.18566647171974182, -0.8002944588661194, -1.13064706325531, 0.88134765625, 0.27197265625, -0.39990234375
205, 472552820, -7.256946563720703, -1.3993260860443115, 6.2750372886657715, -0.1246313825249672, -0.8600232005119324, -1.1106562614440918, 0.8759765625, 0.2724609375, -0.3994140625
206, 472569487, -7.2746100425720215, -1.4058040380477905, 6.259463310241699, -0.1565576195716858, -0.7150297164916992, -1.1272789239883423, 0.87548828125, 0.27197265625, -0.39892578125
207, 472586154, -7.267040729522705, -1.4133014678955078, 6.273649215698242, -0.22822196781635284, -0.7063854932785034, -1.1479483842849731, 0.880859375, 0.27197265625, -0.3984375
208, 472602821, -7.261980056762695, -1.3937500715255737, 6.2605881690979, -0.23794199526309967, -0.7801500558853149, -1.1757125854492188, 0.87841796875, 0.27197265625, -0.394287109375
209, 472619488, -7.264126777648926, -1.3986366987228394, 6.273581504821777, -0.25201615691185, -0.6806318163871765, -1.1426721811294556, 0.8798828125, 0.27294921875, -0.39892578125
210, 472636155, -7.266820430755615, -1.3939331769943237, 6.298428058624268, -0.17926329374313354, -0.644710123538971, -1.151559829711914, 0.88037109375, 0.27294921875, -0.3994140625
211, 472652822, -7.275482654571533, -1.4033559560775757, 6.273096084594727, -0.09695687890052795, -0.7401942610740662, -1.0692534446716309, 0.876953125, 0.2744140625, -0.3984375
212, 472669489, -7.26134729385376, -1.384083867073059, 6.254421234130859, -0.10360336303710938, -0.7609020471572876, -1.12174654006958, 0.8779296875, 0.27099609375, -0.3984375
213, 472686156, -7.278533458709717, -1.3848607540130615, 6.284553050994873, -0.19187752902507782, -0.8674508333206177, -1.1776975393295288, 0.8798828125, 0.27294921875, -0.3994140625
214, 472702823, -7.260800361633301, -1.4078763723373413, 6.272516250610352, -0.19090424478054047, -0.8139331340789795, -1.1790038347244263, 0.87939453125, 0.27099609375, -0.40087890625
215, 472719490, -7.26091194152832, -1.3992267847061157, 6.288386821746826, -0.23626436293125153, -0.8380860090255737, -1.138689398765564, 0.882080078125, 0.2724609375, -0.3994140625
216, 472736157, -7.254705429077148, -1.3928165435791016, 6.258488178253174, -0.23319081962108612, -0.7091644406318665, -1.2076900005340576, 0.8798828125, 0.27197265625, -0.3994140625
217, 472752824, -7.260335922241211, -1.3826854228973389, 6.28106689453125, -0.18592259287834167, -0.6897884607315063, -1.0415148735046387, 0.87744140625, 0.27099609375, -0.396240234375
218, 472769491, -7.27112340927124, -1.3922090530395508, 6.274293422698975, -0.1601306051015854, -0.6591300368309021, -1.146424412727356, 0.8779296875, 0.27294921875, -0.39794921875
219, 472786158, -7.272718906402588, -1.3898532390594482, 6.2693915367126465, -0.2237013280391693, -0.7576621174812317, -1.1226943731307983, 0.8779296875, 0.27099609375, -0.396728515625
220, 472802825, -7.2542948722839355, -1.3818936347961426, 6.284987926483154, -0.2305143028497696, -0.8074404001235962, -1.1086585521697998, 0.8779296875, 0.268798828125, -0.39892578125
221, 472819492, -7.259481906890869, -1.4271196126937866, 6.286940097808838, -0.23687905073165894, -0.7530390024185181, -0.9780465960502625, 0.880615234375, 0.27197265625, -0.397705078125
222, 472836159, -7.282479763031006, -1.3854187726974487, 6.274233341217041, -0.2212553173303604, -0.6732938885688782, -1.0418094396591187, 0.87744140625, 0.271484375, -0.3994140625
223, 472852826, -7.263298988342285, -1.3983104228973389, 6.2855730056762695, -0.11656339466571808, -0.7109956741333008, -1.086516261100769, 0.876953125, 0.27197265625, -0.39990234375
224, 472869493, -7.259090900421143, -1.3962606191635132, 6.292444229125977, -0.024127161130309105, -0.8762617111206055, -1.0814834833145142, 0.87841796875, 0.27197265625, -0.39794921875
225, 472886160, -7.250626087188721, -1.3810898065567017, 6.287168979644775, -0.06011300906538963, -1.008474349975586, -0.9907121062278748, 0.87744140625, 0.27490234375, -0.3994140625
226, 472902827, -7.269741535186768, -1.3804184198379517, 6.295307636260986, -0.04054490476846695, -0.968275249004364, -0.9696713089942932, 0.87744140625, 0.27197265625, -0.3974609375
227, 472919494, -7.253890037536621, -1.3696644306182861, 6.291815757751465, -0.07411034405231476, -0.9152699112892151, -1.1218875646591187, 0.87939453125, 0.2724609375, -0.400390625
228, 472936161, -7.279567718505859, -1.3712158203125, 6.291882038116455, 0.11390607804059982, -0.29676154255867004, -1.120017647743225, 0.87841796875, 0.2705078125, -0.3994140625
229, 472952828, -7.270651340484619, -1.4060062170028687, 6.2829389572143555, -0.23053988814353943, -0.78522127866745, -1.2940945625305176, 0.8779296875, 0.271484375, -0.39794921875
230, 472969495, -7.262160301208496, -1.410798192024231, 6.254447937011719, -0.1672765463590622, -0.8017671704292297, -1.2298963069915771, 0.8779296875, 0.27099609375, -0.3974609375
231, 472986162, -7.254948616027832, -1.3914726972579956, 6.254134178161621, -0.17426881194114685, -0.7958506345748901, -1.172370195388794, 0.87890625, 0.27197265625, -0.3984375
232, 473002829, -7.258280277252197, -1.3923357725143433, 6.266261577606201, -0.1771758496761322, -0.8781057000160217, -1.2104177474975586, 0.8798828125, 0.271484375, -0.40185546875
233, 473019496, -7.256089210510254, -1.3970789909362793, 6.296067714691162, -0.18123547732830048, -0.8711646795272827, -1.1337974071502686, 0.87890625, 0.27197265625, -0.3984375
234, 473036163, -7.26185417175293, -1.3681055307388306, 6.285935401916504, -0.13278262317180634, -0.8818131685256958, -1.2380601167678833, 0.8779296875, 0.2724609375, -0.39892578125
235, 473052830, -7.270393371582031, -1.3742907047271729, 6.269157886505127, -0.23199981451034546, -0.7758598923683167, -1.175584316253662, 0.87841796875, 0.27197265625, -0.3974609375
236, 473069497, -7.262460231781006, -1.374380350112915, 6.2961812019348145, -0.26077571511268616, -0.7523730397224426, -1.2065118551254272, 0.87890625, 0.2705078125, -0.39892578125
237, 473086164, -7.253994464874268, -1.3621313571929932, 6.281569957733154, -0.23507337272167206, -0.6279210448265076, -1.2448285818099976, 0.87890625, 0.27294921875, -0.3984375
238, 473102831, -7.261720657348633, -1.3847203254699707, 6.258363246917725, -0.2786661684513092, -0.5804734230041504, -1.2129278182983398, 0.87890625, 0.27001953125, -0.3984375
239, 473119498, -7.26441764831543, -1.4000502824783325, 6.286049842834473, -0.22627539932727814, -0.5694855451583862, -1.2299987077713013, 0.881103515625, 0.271484375, -0.3994140625
240, 473136165, -7.262450218200684, -1.3805158138275146, 6.272250652313232, -0.3278169631958008, -0.6498198509216309, -1.184933066368103, 0.8779296875, 0.27099609375, -0.39892578125
241, 473152832, -7.259416580200195, -1.3862333297729492, 6.280745506286621, -0.24563860893249512, -0.7669338583946228, -1.223928451538086, 0.87890625, 0.2724609375, -0.3974609375
242, 473169499, -7.254683971405029, -1.3860176801681519, 6.265799045562744, -0.1881764978170395, -0.7235331535339355, -1.2223660945892334, 0.87841796875, 0.2724609375, -0.395263671875
243, 473186166, -7.253461837768555, -1.3942724466323853, 6.273808479309082, -0.2652963399887085, -0.7546014189720154, -1.2218667268753052, 0.87890625, 0.2734375, -0.3994140625
244, 473202833, -7.254337787628174, -1.3897883892059326, 6.269084930419922, -0.254910409450531, -0.7330355048179626, -1.1947427988052368, 0.8779296875, 0.27197265625, -0.39990234375
245, 473219500, -7.251772403717041, -1.3887680768966675, 6.301190376281738, -0.29850319027900696, -0.7408344745635986, -1.3049670457839966, 0.87939453125, 0.27294921875, -0.396728515625
246, 473236167, -7.261771202087402, -1.3950526714324951, 6.300643444061279, -0.29659503698349, -0.6261280179023743, -1.2518078088760376, 0.876953125, 0.27197265625, -0.3974609375
247, 473252834, -7.269206523895264, -1.3762245178222656, 6.267918109893799, -0.26708924770355225, -0.6476683020591736, -1.258121371269226, 0.87841796875, 0.2734375, -0.3974609375
248, 473269501, -7.272335529327393, -1.4013206958770752, 6.287322521209717, -0.2673453390598297, -0.6957561373710632, -1.22234046459198, 0.876953125, 0.271484375, -0.39794921875
249, 473286168, -7.2622456550598145, -1.3927686214447021, 6.269927501678467, -0.18142755329608917, -0.9042692184448242, -1.2245815992355347, 0.87890625, 0.2724609375, -0.396728515625
250, 473302835, -7.277286529541016, -1.3874051570892334, 6.271968841552734, -0.22353485226631165, -0.8989161849021912, -1.1821285486221313, 0.87841796875, 0.271484375, -0.3974609375
251, 473319502, -7.245843410491943, -1.386702537536621, 6.315366268157959, -0.19085301458835602, -0.8776191473007202, -1.171051025390625, 0.88134765625, 0.27392578125, -0.400390625
252, 473336169, -7.256326675415039, -1.3845659494400024, 6.269617557525635, -0.14906591176986694, -0.8983141779899597, -1.1965100765228271, 0.8779296875, 0.271484375, -0.39794921875
253, 473352836, -7.259439468383789, -1.3877620697021484, 6.26813268661499, -0.16480492055416107, -0.8299282789230347, -1.230203628540039, 0.8779296875, 0.27197265625, -0.3984375
254, 473369503, -7.258965492248535, -1.3934495449066162, 6.277965068817139, -0.26798564195632935, -0.8480236530303955, -1.231356143951416, 0.8759765625, 0.2734375, -0.39990234375
255, 473386170, -7.258212089538574, -1.387840747833252, 6.270424842834473, -0.25925177335739136, -0.7320749759674072, -1.1756229400634766, 0.87646484375, 0.27294921875, -0.3974609375
256, 473402837, -7.256306171417236, -1.38735032081604, 6.268372058868408, -0.30146142840385437, -0.702556312084198, -1.2603751420974731, 0.88037109375, 0.27099609375, -0.400390625
257, 473419504, -7.267042636871338, -1.3896287679672241, 6.256832122802734, -0.33409205079078674, -0.6339271068572998, -1.245814323425293, 0.87890625, 0.27001953125, -0.3984375
258, 473436171, -7.261707782745361, -1.3879199028015137, 6.289176940917969, -0.31891652941703796, -0.5689988732337952, -1.2872557640075684, 0.87744140625, 0.27099609375, -0.3984375
259, 473452838, -7.282994747161865, -1.3792603015899658, 6.259538173675537, -0.24547211825847626, -0.7039650082588196, -1.2953366041183472, 0.87841796875, 0.2724609375, -0.39794921875
260, 473469505, -7.24539041519165, -1.3927396535873413, 6.269554615020752, -0.2653219401836395, -0.8359856605529785, -1.2641147375106812, 0.8779296875, 0.27197265625, -0.396240234375
261, 473486172, -7.2729811668396, -1.38160240650177, 6.258657932281494, -0.2736460864543915, -0.8002816438674927, -1.271196722984314, 0.87744140625, 0.27197265625, -0.400390625
262, 473502839, -7.262844085693359, -1.3823068141937256, 6.261873722076416, -0.21906542778015137, -0.876966118812561, -1.2481580972671509, 0.87841796875, 0.2705078125, -0.3994140625
263, 473519506, -7.266035556793213, -1.3980555534362793, 6.287006855010986, -0.16403652727603912, -0.906266987323761, -1.2397828102111816, 0.87841796875, 0.2734375, -0.3984375
264, 473536173, -7.275670528411865, -1.3944315910339355, 6.291971206665039, -0.1907505840063095, -0.8770045042037964, -1.3137521743774414, 0.87841796875, 0.27197265625, -0.39794921875
265, 473552840, -7.268295764923096, -1.3941121101379395, 6.279473781585693, -0.2114456444978714, -0.747160792350769, -1.1928986310958862, 0.87841796875, 0.27294921875, -0.396728515625
266, 473569507, -7.2636613845825195, -1.3940119743347168, 6.278581142425537, -0.2255198359489441, -0.7117128968238831, -1.2595685720443726, 0.87841796875, 0.27099609375, -0.400390625
267, 473586174, -7.255621433258057, -1.393234372138977, 6.263937473297119, -0.3316204249858856, -0.8770429491996765, -1.1451053619384766, 0.87890625, 0.27197265625, -0.397216796875
268, 473602841, -7.257515907287598, -1.3944659233093262, 6.274704933166504, -0.26301679015159607, -0.8464228510856628, -1.1834988594055176, 0.880615234375, 0.271484375, -0.397216796875
269, 473619508, -7.255095958709717, -1.381120204925537, 6.272569179534912, -0.28567126393318176, -0.8793352842330933, -1.2341607809066772, 0.8779296875, 0.271484375, -0.3994140625
270, 473636175, -7.27496337890625, -1.39584481716156, 6.290041923522949, -0.25392428040504456, -0.7622595429420471, -1.244136929512024, 0.880615234375, 0.27099609375, -0.39892578125
271, 473652842, -7.274880886077881, -1.3884005546569824, 6.267312049865723, -0.2414253056049347, -0.7669723033905029, -1.1563494205474854, 0.8779296875, 0.2724609375, -0.39990234375
272, 473669509, -7.25901985168457, -1.3950989246368408, 6.2822794914245605, -0.3895563781261444, -0.6554674506187439, -1.2563029527664185, 0.876953125, 0.2724609375, -0.39794921875
273, 473686176, -7.271711349487305, -1.3874518871307373, 6.278412818908691, -0.3499335050582886, -0.6563509702682495, -1.1916052103042603, 0.8779296875, 0.27294921875, -0.39892578125
274, 473702843, -7.258987903594971, -1.3823696374893188, 6.255152702331543, -0.3177383244037628, -0.6905695796012878, -1.1839598417282104, 0.8798828125, 0.27197265625, -0.400390625
275, 473719510, -7.2508463859558105, -1.3973561525344849, 6.267226696014404, -0.3093501925468445, -0.7705069184303284, -1.2658437490463257, 0.87841796875, 0.27099609375, -0.3994140625
276, 473736177, -7.265152454376221, -1.388270616531372, 6.246906757354736, -0.32213094830513, -0.7147736549377441, -1.279802680015564, 0.87841796875, 0.2705078125, -0.39892578125
277, 473752844, -7.271274089813232, -1.3806843757629395, 6.280272960662842, -0.27993398904800415, -0.7726455330848694, -1.2115063667297363, 0.87890625, 0.27099609375, -0.3994140625
278, 473769511, -7.257594585418701, -1.3996288776397705, 6.28517484664917, -0.21704202890396118, -0.7426915168762207, -1.241844654083252, 0.87890625, 0.2705078125, -0.3984375
279, 473786178, -7.260782718658447, -1.3958587646484375, 6.261368274688721, -0.2080903798341751, -0.7518608570098877, -1.2235442399978638, 0.87841796875, 0.2724609375, -0.3974609375
280, 473802845, -7.273813724517822, -1.3927216529846191, 6.268551349639893, -0.35244354605674744, -0.6838462948799133, -1.202836513519287, 0.87890625, 0.2705078125, -0.397705078125
281, 473819512, -7.2615275382995605, -1.3927364349365234, 6.274357318878174, -0.2963133156299591, -0.6557875871658325, -1.2259262800216675, 0.87841796875, 0.2724609375, -0.39794921875
282, 473836179, -7.241697311401367, -1.373261570930481, 6.28070592880249, -0.41071248054504395, -0.6311097741127014, -1.2128766775131226, 0.87646484375, 0.271484375, -0.3994140625
283, 473852846, -7.260972499847412, -1.3975449800491333, 6.280154705047607, -0.2744144797325134, -0.6974593997001648, -1.2531013488769531, 0.87890625, 0.2724609375, -0.397216796875
284, 473869513, -7.256389617919922, -1.4006470441818237, 6.296323299407959, -0.32562705874443054, -0.7619394063949585, -1.2557905912399292, 0.87890625, 0.27392578125, -0.395263671875
285, 473886180, -7.275452136993408, -1.4069029092788696, 6.250879287719727, -0.30983683466911316, -0.7333300709724426, -1.2578269243240356, 0.876953125, 0.2734375, -0.39892578125
286, 473902847, -7.255645751953125, -1.3920997381210327, 6.289588451385498, -0.29240739345550537, -0.731344997882843, -1.2701466083526611, 0.87890625, 0.27001953125, -0.39794921875
287, 473919514, -7.250223636627197, -1.3774867057800293, 6.279270648956299, -0.29596757888793945, -0.8004224896430969, -1.2517567873001099, 0.8798828125, 0.27099609375, -0.39892578125
288, 473936181, -7.2581939697265625, -1.3783823251724243, 6.272218704223633, -0.3106820583343506, -0.66558438539505, -1.2737195491790771, 0.880859375, 0.27294921875, -0.397705078125
289, 473952848, -7.259450912475586, -1.3863328695297241, 6.274322032928467, -0.38631632924079895, -0.6365652680397034, -1.264268398284912, 0.87890625, 0.271484375, -0.396240234375
290, 473969515, -7.260132312774658, -1.3927905559539795, 6.2565412521362305, -0.44028228521347046, -0.5765162110328674, -1.2869868278503418, 0.87841796875, 0.2734375, -0.3984375
291, 473986182, -7.256103515625, -1.3932019472122192, 6.26973819732666, -0.28442904353141785, -0.5906416773796082, -1.2223917245864868, 0.876953125, 0.2724609375, -0.394775390625
292, 474002849, -7.252799987792969, -1.3873366117477417, 6.271913051605225, -0.3544797897338867, -0.5988249182701111, -1.211442232131958, 0.876953125, 0.271484375, -0.40087890625
293, 474019516, -7.266430854797363, -1.3769057989120483, 6.258187770843506, -0.3947429358959198, -0.706859290599823, -1.3552831411361694, 0.87841796875, 0.2724609375, -0.39990234375
294, 474036183, -7.277579307556152, -1.3957431316375732, 6.248758316040039, -0.34345346689224243, -0.7645774483680725, -1.3556801080703735, 0.87841796875, 0.27099609375, -0.39794921875
295, 474052850, -7.27158784866333, -1.4061362743377686, 6.255372524261475, -0.2617233395576477, -0.7477242350578308, -1.2549453973770142, 0.87841796875, 0.2744140625, -0.39990234375
296, 474069517, -7.2599592208862305, -1.4105596542358398, 6.2715935707092285, -0.3299812078475952, -0.7531542181968689, -1.3209238052368164, 0.87744140625, 0.2705078125, -0.396240234375
297, 474086184, -7.261992454528809, -1.3847366571426392, 6.258241653442383, -0.38745608925819397, -0.7072434425354004, -1.320321798324585, 0.88037109375, 0.27392578125, -0.3974609375
298, 474102851, -7.270861625671387, -1.4033671617507935, 6.259541034698486, -0.34224966168403625, -0.7493634819984436, -1.3547836542129517, 0.87890625, 0.27392578125, -0.39794921875
299, 474119518, -7.268450736999512, -1.4102725982666016, 6.262502193450928, -0.26068606972694397, -0.75849449634552, -1.3837388753890991, 0.87841796875, 0.27392578125, -0.39892578125
300, 474136185, -7.261254787445068, -1.3974769115447998, 6.26520299911499, -0.36613351106643677, -0.7251211404800415, -1.3236770629882812, 0.87890625, 0.27197265625, -0.39794921875
301, 474152852, -7.250904083251953, -1.3979847431182861, 6.26270866394043, -0.30512410402297974, -0.6896347403526306, -1.2779330015182495, 0.87646484375, 0.2734375, -0.39794921875
302, 474169519, -7.260913848876953, -1.3850617408752441, 6.2527594566345215, -0.286106675863266, -0.8680272698402405, -1.2304596900939941, 0.876953125, 0.2724609375, -0.3974609375
303, 474186186, -7.250720500946045, -1.3837792873382568, 6.289644241333008, -0.1962444931268692, -0.7705067992210388, -1.193410873413086, 0.876953125, 0.2724609375, -0.3984375
304, 474202853, -7.259976863861084, -1.3852348327636719, 6.2745866775512695, -0.3121163547039032, -0.7539738416671753, -1.2156811952590942, 0.87939453125, 0.2724609375, -0.3974609375
305, 474219520, -7.273609638214111, -1.3883572816848755, 6.271337032318115, -0.3442346453666687, -0.6474122405052185, -1.2462114095687866, 0.87890625, 0.2705078125, -0.3994140625
306, 474236187, -7.259579181671143, -1.4136987924575806, 6.283088684082031, -0.2448958456516266, -0.7577133178710938, -1.318131923675537, 0.87841796875, 0.2724609375, -0.397216796875
307, 474252854, -7.257988929748535, -1.3862510919570923, 6.287416458129883, -0.30790308117866516, -0.7628871202468872, -1.241281270980835, 0.8779296875, 0.2724609375, -0.3984375
308, 474269521, -7.268594741821289, -1.3930702209472656, 6.289700984954834, -0.34952372312545776, -0.7215354442596436, -1.179221510887146, 0.876953125, 0.2724609375, -0.39794921875
309, 474286188, -7.2610392570495605, -1.3963165283203125, 6.263146877288818, -0.225327730178833, -0.718449056148529, -1.2506681680679321, 0.8798828125, 0.2724609375, -0.39794921875
310, 474302855, -7.269604206085205, -1.3956284523010254, 6.292975425720215, -0.28451865911483765, -0.8597414493560791, -1.2672268152236938, 0.8798828125, 0.2724609375, -0.39794921875
311, 474319522, -7.261717319488525, -1.3954277038574219, 6.287327289581299, -0.23014290630817413, -0.7714928984642029, -1.2786883115768433, 0.87939453125, 0.271484375, -0.396728515625
312, 474336189, -7.273643970489502, -1.394732117652893, 6.274229049682617, -0.22869578003883362, -0.7749378681182861, -1.297961950302124, 0.8779296875, 0.27294921875, -0.39794921875
313, 474352856, -7.265897750854492, -1.3950799703598022, 6.2851104736328125, -0.23120582103729248, -0.7495172023773193, -1.273758053779602, 0.87646484375, 0.27197265625, -0.39990234375
314, 474369523, -7.2483110427856445, -1.3906055688858032, 6.28679084777832, -0.25575560331344604, -0.7894986867904663, -1.322204351425171, 0.8779296875, 0.2744140625, -0.39892578125
315, 474386190, -7.264285087585449, -1.4052152633666992, 6.288999080657959, -0.26708921790122986, -0.7513101696968079, -1.2785476446151733, 0.8759765625, 0.2724609375, -0.396728515625
316, 474402857, -7.263875961303711, -1.4094535112380981, 6.2748799324035645, -0.3064175546169281, -0.8707548975944519, -1.2785987854003906, 0.88037109375, 0.2744140625, -0.39794921875
317, 474419524, -7.274620056152344, -1.3935308456420898, 6.24180269241333, -0.3087226450443268, -0.811935305595398, -1.2447643280029297, 0.87841796875, 0.2744140625, -0.39892578125
318, 474436191, -7.2740607261657715, -1.3973151445388794, 6.268400192260742, -0.21713164448738098, -0.7764105796813965, -1.2539336681365967, 0.87890625, 0.271484375, -0.39990234375
319, 474452858, -7.278010845184326, -1.390386700630188, 6.259224891662598, -0.2989257872104645, -0.784414529800415, -1.2971680164337158, 0.8779296875, 0.27392578125, -0.3974609375
320, 474469525, -7.256336212158203, -1.39883553981781, 6.297337055206299, -0.3362562954425812, -0.7806110382080078, -1.3211671113967896, 0.8779296875, 0.2734375, -0.39697265625
321, 474486192, -7.255651950836182, -1.4099177122116089, 6.267579078674316, -0.2071683257818222, -0.7330866456031799, -1.3487136363983154, 0.87841796875, 0.2734375, -0.39794921875
322, 474502859, -7.254971981048584, -1.417527675628662, 6.264251708984375, -0.21651697158813477, -0.7617344856262207, -1.3260592222213745, 0.8798828125, 0.27490234375, -0.3994140625
323, 474519526, -7.2628092765808105, -1.4054137468338013, 6.2667107582092285, -0.24950608611106873, -0.8202210664749146, -1.2210086584091187, 0.8779296875, 0.27392578125, -0.3984375
324, 474536193, -7.254181385040283, -1.388521671295166, 6.286271572113037, -0.25686976313591003, -0.7719667553901672, -1.2123386859893799, 0.87646484375, 0.27294921875, -0.39990234375
325, 474552860, -7.259754180908203, -1.386389136314392, 6.281083583831787, -0.26647454500198364, -0.7117128968238831, -1.2865771055221558, 0.8779296875, 0.27490234375, -0.396240234375
326, 474569527, -7.259076118469238, -1.3910620212554932, 6.2717061042785645, -0.275387704372406, -0.6929515600204468, -1.326468825340271, 0.876953125, 0.2724609375, -0.39794921875
327, 474586194, -7.270841598510742, -1.4156665802001953, 6.278312683105469, -0.3350781202316284, -0.6288942694664001, -1.3013429641723633, 0.87744140625, 0.27294921875, -0.3974609375
328, 474602861, -7.257181167602539, -1.4022341966629028, 6.266646862030029, -0.3557731807231903, -0.7293856143951416, -1.2187162637710571, 0.88037109375, 0.27294921875, -0.3984375
329, 474619528, -7.266695022583008, -1.3947268724441528, 6.253847599029541, -0.2607116997241974, -0.7610557675361633, -1.172370195388794, 0.882080078125, 0.2734375, -0.39794921875
330, 474636195, -7.264840602874756, -1.4002453088760376, 6.288131237030029, -0.19958695769309998, -0.7592628598213196, -1.2327264547348022, 0.87939453125, 0.27197265625, -0.3974609375
331, 474652862, -7.266589641571045, -1.3984450101852417, 6.279391765594482, -0.26206910610198975, -0.8546701073646545, -1.2716190814971924, 0.876953125, 0.2734375, -0.396240234375
332, 474669529, -7.261911392211914, -1.406537413597107, 6.2549872398376465, -0.23906895518302917, -0.7776271104812622, -1.2516028881072998, 0.87744140625, 0.27490234375, -0.39794921875
333, 474686196, -7.260544300079346, -1.4041081666946411, 6.260961532592773, -0.22231821715831757, -0.7953766584396362, -1.1812576055526733, 0.8779296875, 0.27392578125, -0.40087890625
334, 474702863, -7.260433197021484, -1.399562120437622, 6.273592472076416, -0.18701112270355225, -0.8006657958030701, -1.226195216178894, 0.87890625, 0.2734375, -0.396728515625
335, 474719530, -7.253316402435303, -1.4098129272460938, 6.274311542510986, -0.24688081443309784, -0.765179455280304, -1.2641277313232422, 0.87939453125, 0.2724609375, -0.39990234375
336, 474736197, -7.261003017425537, -1.3947889804840088, 6.260763645172119, -0.2861195206642151, -0.7458034753799438, -1.2117369174957275, 0.8779296875, 0.27490234375, -0.39892578125
337, 474752864, -7.274098873138428, -1.3952311277389526, 6.254116058349609, -0.29720979928970337, -0.7141077518463135, -1.178939700126648, 0.87890625, 0.27490234375, -0.39794921875
338, 474769531, -7.255212306976318, -1.398746371269226, 6.265410423278809, -0.2899101674556732, -0.7372615933418274, -1.3248552083969116, 0.876953125, 0.271484375, -0.39990234375
339, 474786198, -7.26478910446167, -1.4211597442626953, 6.281655788421631, -0.27117446064949036, -0.7496452927589417, -1.2895739078521729, 0.87841796875, 0.27294921875, -0.3994140625
340, 474802865, -7.266458034515381, -1.4211530685424805, 6.2462944984436035, -0.32635700702667236, -0.7167201638221741, -1.2422032356262207, 0.88134765625, 0.27294921875, -0.39990234375
341, 474819532, -7.2635908126831055, -1.3865530490875244, 6.261023044586182, -0.32237428426742554, -0.7862331867218018, -1.289381742477417, 0.87939453125, 0.27294921875, -0.39892578125
342, 474836199, -7.259713649749756, -1.4164904356002808, 6.266607761383057, -0.28168848156929016, -0.7893450856208801, -1.2506041526794434, 0.8798828125, 0.27392578125, -0.3974609375
343, 474852866, -7.27286958694458, -1.4176033735275269, 6.271237373352051, -0.28013890981674194, -0.6995084285736084, -1.2178454399108887, 0.87841796875, 0.2724609375, -0.3984375
344, 474869533, -7.269301891326904, -1.406897783279419, 6.270106315612793, -0.2782435715198517, -0.6893402338027954, -1.2328417301177979, 0.87890625, 0.27392578125, -0.3974609375
345, 474886200, -7.266138553619385, -1.4102894067764282, 6.262921333312988, -0.2809201180934906, -0.7466102242469788, -1.2486575841903687, 0.87939453125, 0.2724609375, -0.3974609375
346, 474902867, -7.267086505889893, -1.4034855365753174, 6.260471820831299, -0.2746962010860443, -0.7511565089225769, -1.2283210754394531, 0.87890625, 0.27490234375, -0.3994140625
347, 474919534, -7.270339012145996, -1.3952301740646362, 6.278887748718262, -0.23728883266448975, -0.8248825073242188, -1.1467828750610352, 0.881103515625, 0.27197265625, -0.39892578125
348, 474936201, -7.270699501037598, -1.407706618309021, 6.270342826843262, -0.22322747111320496, -0.7192045450210571, -1.220765233039856, 0.87939453125, 0.2724609375, -0.39892578125
349, 474952868, -7.251602649688721, -1.3907393217086792, 6.306224346160889, -0.2881172299385071, -0.6279081702232361, -1.1981749534606934, 0.8779296875, 0.27490234375, -0.39892578125
350, 474969535, -7.2711181640625, -1.399200677871704, 6.258303165435791, -0.29808059334754944, -0.5510187745094299, -1.1926937103271484, 0.876953125, 0.2734375, -0.395263671875
351, 474986202, -7.275996208190918, -1.386334776878357, 6.273589134216309, -0.21075411140918732, -0.6640092730522156, -1.1565415859222412, 0.87744140625, 0.27294921875, -0.39892578125
352, 475002869, -7.269787311553955, -1.4144822359085083, 6.273675918579102, -0.18452668190002441, -0.6740750074386597, -1.1327087879180908, 0.8798828125, 0.2744140625, -0.3974609375
353, 475019536, -7.26242208480835, -1.408376932144165, 6.271204471588135, -0.30777502059936523, -0.7201778888702393, -1.225951910018921, 0.8779296875, 0.27294921875, -0.3984375
354, 475036203, -7.261622428894043, -1.391306757926941, 6.24589729309082, -0.2760921120643616, -0.6658790111541748, -1.1745984554290771, 0.87939453125, 0.2744140625, -0.39892578125
355, 475052870, -7.2587571144104, -1.400415062904358, 6.2812347412109375, -0.30389469861984253, -0.5769644379615784, -1.1999037265777588, 0.87890625, 0.27294921875, -0.39794921875
356, 475069537, -7.258498191833496, -1.4126392602920532, 6.276373386383057, -0.22066619992256165, -0.6301236152648926, -1.2077027559280396, 0.87646484375, 0.27294921875, -0.3974609375
357, 475086204, -7.258175849914551, -1.393721342086792, 6.263184070587158, -0.2869518995285034, -0.6814515590667725, -1.256725549697876, 0.87646484375, 0.2744140625, -0.3974609375
358, 475102871, -7.243400573730469, -1.403151512145996, 6.266389846801758, -0.17175878584384918, -0.7431269288063049, -1.2704411745071411, 0.8759765625, 0.27197265625, -0.3994140625
359, 475119538, -7.268646240234375, -1.3932722806930542, 6.287712097167969, -0.22002588212490082, -0.7675100564956665, -1.1981877088546753, 0.88134765625, 0.27294921875, -0.39892578125
360, 475136205, -7.265310764312744, -1.388234257698059, 6.259849548339844, -0.20666886866092682, -0.7484543323516846, -1.2288075685501099, 0.8798828125, 0.27294921875, -0.396728515625
361, 475152872, -7.276564121246338, -1.4079227447509766, 6.273758411407471, -0.22869578003883362, -0.7081015110015869, -1.2992424964904785, 0.87744140625, 0.2734375, -0.39697265625
362, 475169539, -7.269652843475342, -1.4144424200057983, 6.252345085144043, -0.29717135429382324, -0.7446123361587524, -1.299409031867981, 0.87841796875, 0.27392578125, -0.396240234375
363, 475186206, -7.272383213043213, -1.4035638570785522, 6.259032249450684, -0.2924202084541321, -0.7044644355773926, -1.2664070129394531, 0.8779296875, 0.27392578125, -0.396728515625
364, 475202873, -7.253785133361816, -1.3908308744430542, 6.268405914306641, -0.2909986972808838, -0.7086650133132935, -1.2753331661224365, 0.88037109375, 0.27197265625, -0.3984375
365, 475219540, -7.276602745056152, -1.390528678894043, 6.280381202697754, -0.2420400083065033, -0.792085587978363, -1.3429890871047974, 0.87939453125, 0.275146484375, -0.40087890625
366, 475236207, -7.266733169555664, -1.4037270545959473, 6.262811183929443, -0.2996045649051666, -0.7551008462905884, -1.411413550376892, 0.87841796875, 0.27099609375, -0.39892578125
367, 475252874, -7.269306659698486, -1.409150242805481, 6.268928050994873, -0.3316973149776459, -0.7571755051612854, -1.4636120796203613, 0.8779296875, 0.27392578125, -0.3974609375
368, 475269541, -7.253696918487549, -1.413337230682373, 6.2511162757873535, -0.2956858277320862, -0.8515070676803589, -1.4530596733093262, 0.87744140625, 0.27294921875, -0.39794921875
369, 475286208, -7.264005184173584, -1.4149045944213867, 6.273665428161621, -0.2820214331150055, -0.7675613760948181, -1.4107601642608643, 0.87744140625, 0.275390625, -0.39990234375
370, 475302875, -7.268243312835693, -1.410280704498291, 6.277153968811035, -0.237045556306839, -0.7596215009689331, -1.3183624744415283, 0.88037109375, 0.27294921875, -0.3984375
371, 475319542, -7.268006324768066, -1.4091777801513672, 6.271708965301514, -0.30240917205810547, -0.8358703851699829, -1.2893561124801636, 0.87841796875, 0.27392578125, -0.39892578125
372, 475336209, -7.268752098083496, -1.3976826667785645, 6.260310649871826, -0.24078500270843506, -0.7701611518859863, -1.275743007659912, 0.880859375, 0.2744140625, -0.39990234375
373, 475352876, -7.254796028137207, -1.3966639041900635, 6.274737358093262, -0.26455357670783997, -0.7518224120140076, -1.2386045455932617, 0.87646484375, 0.27490234375, -0.39892578125
374, 475369543, -7.256319999694824, -1.4020891189575195, 6.267080307006836, -0.24452443420886993, -0.7462772727012634, -1.3016245365142822, 0.87646484375, 0.27392578125, -0.3974609375
375, 475386210, -7.265961647033691, -1.4144521951675415, 6.259308815002441, -0.35602936148643494, -0.692682683467865, -1.2638075351715088, 0.88037109375, 0.27392578125, -0.396728515625
376, 475402877, -7.257619380950928, -1.4152919054031372, 6.279737949371338, -0.30308789014816284, -0.6642141342163086, -1.272029161453247, 0.87939453125, 0.2734375, -0.3984375
377, 475419544, -7.268430709838867, -1.405521035194397, 6.284945487976074, -0.2440890371799469, -0.6378202438354492, -1.2434197664260864, 0.88037109375, 0.27392578125, -0.396240234375
378, 475436211, -7.257726669311523, -1.394114375114441, 6.271477699279785, -0.2970176637172699, -0.6472201347351074, -1.2522305250167847, 0.87939453125, 0.2724609375, -0.396728515625
379, 475452878, -7.255353927612305, -1.4161432981491089, 6.259397029876709, -0.34939563274383545, -0.7022361755371094, -1.2500150203704834, 0.876953125, 0.2724609375, -0.39794921875
380, 475469545, -7.267498016357422, -1.414870023727417, 6.297304153442383, -0.21866844594478607, -0.7595190405845642, -1.3277239799499512, 0.87646484375, 0.2734375, -0.3984375
381, 475486212, -7.256300449371338, -1.4243285655975342, 6.285084247589111, -0.31257742643356323, -0.6901214718818665, -1.3512109518051147, 0.880126953125, 0.27197265625, -0.396240234375
382, 475502879, -7.268164157867432, -1.4136312007904053, 6.297497749328613, -0.326293021440506, -0.5465750098228455, -1.2990761995315552, 0.87890625, 0.2734375, -0.39990234375
383, 475519546, -7.252560138702393, -1.4167803525924683, 6.269840717315674, -0.29860568046569824, -0.6633689403533936, -1.3396466970443726, 0.8779296875, 0.2744140625, -0.39892578125
384, 475536213, -7.257415294647217, -1.4225988388061523, 6.278785705566406, -0.3070834279060364, -0.775603711605072, -1.3017140626907349, 0.8798828125, 0.27392578125, -0.396240234375
385, 475552880, -7.261343002319336, -1.4116719961166382, 6.2539825439453125, -0.2714177966117859, -0.7872831225395203, -1.2934669256210327, 0.8779296875, 0.27490234375, -0.39794921875
386, 475569547, -7.2603559494018555, -1.4203654527664185, 6.24557638168335, -0.28371188044548035, -0.7277464866638184, -1.35514235496521, 0.87744140625, 0.2734375, -0.396728515625
387, 475586214, -7.260887145996094, -1.424113154411316, 6.250202178955078, -0.27903756499290466, -0.8309400677680969, -1.358856201171875, 0.8779296875, 0.27197265625, -0.3974609375
388, 475602881, -7.263760089874268, -1.3978036642074585, 6.248142242431641, -0.27369728684425354, -0.8325535655021667, -1.2859110832214355, 0.87744140625, 0.27392578125, -0.39990234375
389, 475619548, -7.258391380310059, -1.3964264392852783, 6.266242980957031, -0.31664982438087463, -0.8295697569847107, -1.3514541387557983, 0.8779296875, 0.27392578125, -0.396240234375
390, 475636215, -7.279090881347656, -1.4055010080337524, 6.25924015045166, -0.3738173544406891, -0.8159437775611877, -1.2894970178604126, 0.87744140625, 0.27392578125, -0.395751953125
391, 475652882, -7.250427722930908, -1.414315104484558, 6.267754077911377, -0.2745041251182556, -0.660666823387146, -1.4221580028533936, 0.87646484375, 0.2744140625, -0.394775390625
392, 475669549, -7.2656426429748535, -1.4130301475524902, 6.263762950897217, -0.4226735532283783, -0.6336069107055664, -1.4613838195800781, 0.876953125, 0.2744140625, -0.39697265625
393, 475686216, -7.258502006530762, -1.4170072078704834, 6.253573894500732, -0.33288827538490295, -0.6528804898262024, -1.4002206325531006, 0.87841796875, 0.27490234375, -0.39697265625
394, 475702883, -7.25921630859375, -1.4248127937316895, 6.270501613616943, -0.368643581867218, -0.7050408124923706, -1.4030765295028687, 0.87939453125, 0.27392578125, -0.39892578125
395, 475719550, -7.263744831085205, -1.4133899211883545, 6.258577823638916, -0.25494879484176636, -0.787091076374054, -1.280084252357483, 0.87890625, 0.2744140625, -0.3974609375
396, 475736217, -7.255688667297363, -1.4244227409362793, 6.267241954803467, -0.23507334291934967, -0.7156316637992859, -1.2297810316085815, 0.87744140625, 0.27392578125, -0.3974609375
397, 475752884, -7.255440711975098, -1.4129219055175781, 6.280903339385986, -0.259917676448822, -0.6079174280166626, -1.2562006711959839, 0.87548828125, 0.2734375, -0.39794921875
398, 475769551, -7.253572463989258, -1.4056652784347534, 6.2544989585876465, -0.3967023193836212, -0.48396480083465576, -1.30727219581604, 0.876953125, 0.275390625, -0.39697265625
399, 475786218, -7.270009517669678, -1.4240092039108276, 6.274189472198486, -0.4055770933628082, -0.5309000611305237, -1.3618911504745483, 0.87890625, 0.2744140625, -0.3984375
400, 475802885, -7.252647876739502, -1.416137456893921, 6.264288425445557, -0.3962668478488922, -0.5252907872200012, -1.2790981531143188, 0.87890625, 0.276611328125, -0.3974609375
401, 475819552, -7.253734588623047, -1.4313908815383911, 6.247597694396973, -0.30126941204071045, -0.6637915968894958, -1.279239296913147, 0.8779296875, 0.2744140625, -0.39794921875
402, 475836219, -7.261989116668701, -1.4227745532989502, 6.256738662719727, -0.22984835505485535, -0.7597751617431641, -1.3487136363983154, 0.87841796875, 0.2744140625, -0.3974609375
403, 475852886, -7.262290954589844, -1.4205615520477295, 6.25986385345459, -0.3272150158882141, -0.7451246380805969, -1.233059287071228, 0.87890625, 0.276123046875, -0.3984375
404, 475869553, -7.252667427062988, -1.4156146049499512, 6.267210483551025, -0.31420376896858215, -0.841338574886322, -1.2987301349639893, 0.87841796875, 0.275634765625, -0.3974609375
405, 475886220, -7.265787124633789, -1.409243106842041, 6.268308162689209, -0.27902472019195557, -0.7703787684440613, -1.2735402584075928, 0.87890625, 0.27490234375, -0.39697265625
406, 475902887, -7.273825168609619, -1.4203227758407593, 6.272761344909668, -0.15589170157909393, -0.8697176575660706, -1.2763705253601074, 0.88134765625, 0.275634765625, -0.3984375
407, 475919554, -7.268803596496582, -1.4206634759902954, 6.268743991851807, -0.17128492891788483, -0.9052041172981262, -1.2672779560089111, 0.87939453125, 0.27197265625, -0.397216796875
408, 475936221, -7.256539344787598, -1.4195821285247803, 6.266064167022705, -0.1962316930294037, -0.7972977757453918, -1.3327569961547852, 0.87890625, 0.2744140625, -0.396728515625
409, 475952888, -7.262322902679443, -1.4184603691101074, 6.279135227203369, -0.19856245815753937, -0.7400020956993103, -1.2031694650650024, 0.8779296875, 0.276611328125, -0.39697265625
410, 475969555, -7.251754283905029, -1.4215601682662964, 6.27522087097168, -0.28731048107147217, -0.6085449457168579, -1.194678783416748, 0.87939453125, 0.2744140625, -0.397216796875
411, 475986222, -7.265946865081787, -1.4114725589752197, 6.271974563598633, -0.38376787304878235, -0.5561925768852234, -1.2191901206970215, 0.876953125, 0.2744140625, -0.39697265625
412, 476002889, -7.270584583282471, -1.417783260345459, 6.2584028244018555, -0.4856424033641815, -0.5803582072257996, -1.3189514875411987, 0.8798828125, 0.275634765625, -0.3984375
413, 476019556, -7.262613296508789, -1.4140201807022095, 6.255562782287598, -0.5244583487510681, -0.6015397906303406, -1.4736137390136719, 0.87841796875, 0.27490234375, -0.396728515625
414, 476036223, -7.276604652404785, -1.4271867275238037, 6.270092487335205, -0.41591185331344604, -0.6222733855247498, -1.5208181142807007, 0.87744140625, 0.275390625, -0.396728515625
415, 476052890, -7.2757487297058105, -1.4251869916915894, 6.24553108215332, -0.4372856616973877, -0.7494148015975952, -1.5024921894073486, 0.8779296875, 0.27490234375, -0.396728515625
416, 476069557, -7.268105506896973, -1.4353253841400146, 6.25458288192749, -0.4546510577201843, -0.7057707905769348, -1.4547502994537354, 0.8779296875, 0.275390625, -0.3974609375
417, 476086224, -7.273523330688477, -1.4232869148254395, 6.271215438842773, -0.4971297085285187, -0.689314603805542, -1.4891223907470703, 0.87939453125, 0.275634765625, -0.3974609375
418, 476102891, -7.2614970207214355, -1.424141764640808, 6.268357753753662, -0.4764602482318878, -0.7097278237342834, -1.4198015928268433, 0.88134765625, 0.276123046875, -0.39794921875
419, 476119558, -7.261406421661377, -1.4413594007492065, 6.25036096572876, -0.44621166586875916, -0.7469687461853027, -1.3276728391647339, 0.880859375, 0.274658203125, -0.396728515625
420, 476136225, -7.260767936706543, -1.4347202777862549, 6.264821529388428, -0.2644895017147064, -0.6675180792808533, -1.244098424911499, 0.8798828125, 0.277099609375, -0.396240234375
421, 476152892, -7.262788772583008, -1.4277945756912231, 6.273138523101807, -0.24904510378837585, -0.4732970595359802, -1.1374727487564087, 0.87939453125, 0.277587890625, -0.400390625
422, 476169559, -7.250113010406494, -1.4295676946640015, 6.26705265045166, -0.32574227452278137, -0.2912035584449768, -1.0023400783538818, 0.8759765625, 0.27587890625, -0.39794921875
423, 476186226, -7.2611403465271, -1.4179259538650513, 6.2530035972595215, -0.1584017425775528, -0.29596754908561707, -0.8203620314598083, 0.87890625, 0.277587890625, -0.3974609375
424, 476202893, -7.286404609680176, -1.4381935596466064, 6.2629265785217285, 0.15205618739128113, -0.7121483087539673, -0.415770947933197, 0.8798828125, 0.27490234375, -0.3974609375
425, 476219560, -7.263065338134766, -1.424586534500122, 6.243232250213623, 0.2415853887796402, -0.8072483539581299, -0.28012609481811523, 0.880859375, 0.276123046875, -0.39697265625
426, 476236227, -7.272432327270508, -1.389392375946045, 6.258358478546143, -0.0343722440302372, -0.495029479265213, -0.5432453155517578, 0.8798828125, 0.275146484375, -0.3974609375
427, 476252894, -7.2538251876831055, -1.430361270904541, 6.2734293937683105, -0.1281019002199173, -0.5519408583641052, -0.41253089904785156, 0.87841796875, 0.275146484375, -0.396240234375
428, 476269561, -7.251860618591309, -1.4469939470291138, 6.231744766235352, -0.19783246517181396, -0.20966553688049316, -0.5231649875640869, 0.87744140625, 0.27197265625, -0.396728515625
429, 476286228, -7.279831409454346, -1.3689364194869995, 6.25971794128418, -0.25036412477493286, 0.21432065963745117, -0.6676846146583557, 0.88037109375, 0.2734375, -0.394775390625
430, 476302895, -7.304234981536865, -1.3761627674102783, 6.238141059875488, -0.3733307421207428, 0.24405701458454132, -0.9643694758415222, 0.882568359375, 0.275146484375, -0.39794921875
431, 476319562, -7.285048484802246, -1.4156643152236938, 6.2194132804870605, -0.5280185341835022, 0.13324366509914398, -1.132964849472046, 0.8798828125, 0.27490234375, -0.3974609375
432, 476336229, -7.2693352699279785, -1.4694002866744995, 6.239557266235352, -0.2938545048236847, -0.638319730758667, -1.0627222061157227, 0.88037109375, 0.275634765625, -0.395751953125
433, 476352896, -7.233621597290039, -1.4613598585128784, 6.284335613250732, -0.4384894073009491, -0.38264092803001404, -0.6340039372444153, 0.87841796875, 0.2744140625, -0.395263671875
434, 476369563, -7.264157295227051, -1.3880083560943604, 6.290174961090088, -0.8512765169143677, 0.46577340364456177, -0.8234611749649048, 0.88037109375, 0.2744140625, -0.395751953125
435, 476386230, -7.254685878753662, -1.3511128425598145, 6.271932601928711, -1.0412588119506836, 1.499873399734497, -1.1265490055084229, 0.880859375, 0.275634765625, -0.393798828125
436, 476402897, -7.290576457977295, -1.3680380582809448, 6.259321212768555, -1.4073410034179688, 2.4477224349975586, -1.4532132148742676, 0.88037109375, 0.2744140625, -0.394775390625
437, 476419564, -7.348805904388428, -1.323722004890442, 6.298349857330322, -1.7169218063354492, 2.416282892227173, -2.142310380935669, 0.8818359375, 0.275634765625, -0.395263671875
438, 476436231, -7.329078674316406, -1.4661352634429932, 6.172554016113281, -2.3334710597991943, 0.8938769698143005, -3.0738446712493896, 0.88134765625, 0.275634765625, -0.394287109375
439, 476452898, -7.274014949798584, -1.4227482080459595, 6.225830078125, -3.039548873901367, -0.507093071937561, -3.8420581817626953, 0.88037109375, 0.276123046875, -0.396240234375
440, 476469565, -7.233121871948242, -1.6144016981124878, 6.221359729766846, -3.885664701461792, -1.5480060577392578, -4.693540573120117, 0.87890625, 0.277587890625, -0.390869140625
441, 476486232, -7.312070369720459, -1.4369747638702393, 6.080514907836914, -4.964370250701904, -4.283020973205566, -6.2126688957214355, 0.87890625, 0.277587890625, -0.394287109375
442, 476502899, -7.270174026489258, -1.373193383216858, 6.072118759155273, -6.7651143074035645, -8.0816068649292, -9.883987426757812, 0.8798828125, 0.2822265625, -0.395263671875
443, 476519566, -7.101905822753906, -1.3912959098815918, 6.174272060394287, -10.003473281860352, -9.167806625366211, -12.201661109924316, 0.878173828125, 0.285888671875, -0.39990234375
444, 476536233, -6.9108662605285645, -1.5775554180145264, 6.412402153015137, -12.61018180847168, -1.8148536682128906, -11.394229888916016, 0.876708984375, 0.290283203125, -0.39697265625
445, 476552900, -6.99074125289917, -1.0930380821228027, 6.614365100860596, -16.529502868652344, 8.724705696105957, -11.849106788635254, 0.87646484375, 0.29443359375, -0.392822265625
446, 476569567, -7.172743797302246, -1.1493438482284546, 6.606173992156982, -19.864748001098633, 25.469867706298828, -20.310707092285156, 0.87646484375, 0.300048828125, -0.386474609375
447, 476586234, -7.302375793457031, -1.8232883214950562, 6.376611232757568, -18.453922271728516, 40.02845001220703, -24.40926170349121, 0.880126953125, 0.306884765625, -0.375244140625
448, 476602901, -7.467645168304443, -2.324216604232788, 5.930817604064941, -13.002723693847656, 43.71795654296875, -22.080842971801758, 0.88671875, 0.314208984375, -0.364013671875
449, 476619568, -7.578758716583252, -2.254741668701172, 5.722232818603516, -7.9868597984313965, 38.799102783203125, -16.2343807220459, 0.891357421875, 0.318359375, -0.349609375
450, 476636235, -7.6924238204956055, -2.2911410331726074, 5.5930562019348145, -5.151194095611572, 30.35319709777832, -11.283191680908203, 0.891357421875, 0.327392578125, -0.33642578125
451, 476652902, -7.8126220703125, -1.9917374849319458, 5.749643325805664, -4.488633155822754, 19.268409729003906, -8.738375663757324, 0.8896484375, 0.334228515625, -0.33251953125
452, 476669569, -7.9446563720703125, -2.1456949710845947, 6.130793571472168, -11.696637153625488, 14.931150436401367, -13.011236190795898, 0.885986328125, 0.3408203125, -0.329345703125
453, 476686236, -7.636256217956543, -2.2371883392333984, 6.185328960418701, -17.049957275390625, 11.752351760864258, -12.353629112243652, 0.887939453125, 0.3427734375, -0.327392578125
454, 476702903, -7.596710681915283, -2.641439437866211, 5.740296363830566, -17.401649475097656, 1.898422122001648, -7.608248710632324, 0.888671875, 0.34326171875, -0.325439453125
455, 476719570, -7.539705276489258, -2.544520854949951, 5.0908589363098145, -12.203693389892578, -9.41103458404541, 0.7351939082145691, 0.88720703125, 0.341796875, -0.32421875
456, 476736237, -7.747446537017822, -2.230830430984497, 5.552935600280762, -7.016480922698975, -18.026514053344727, 8.758986473083496, 0.884521484375, 0.3408203125, -0.326904296875
457, 476752904, -7.3999152183532715, -2.174643039703369, 5.5000433921813965, -3.442150115966797, -22.077484130859375, 13.603110313415527, 0.882080078125, 0.3349609375, -0.330810546875
458, 476769571, -7.542167663574219, -1.8520348072052002, 5.408675193786621, 0.9187487959861755, -18.418466567993164, 16.147106170654297, 0.880615234375, 0.33203125, -0.33251953125
459, 476786238, -7.554373741149902, -1.9775946140289307, 5.584304332733154, 2.423125743865967, -16.565492630004883, 14.581304550170898, 0.881591796875, 0.324951171875, -0.338623046875
460, 476802905, -7.389413833618164, -2.2267870903015137, 5.906734466552734, 3.0332837104797363, -11.370938301086426, 14.43138599395752, 0.880615234375, 0.32275390625, -0.342041015625
461, 476819572, -7.339413642883301, -2.051071882247925, 6.093325614929199, 3.2959792613983154, -3.984250783920288, 14.4320707321167, 0.8828125, 0.3203125, -0.341064453125
462, 476836239, -7.279690265655518, -1.3076159954071045, 6.194393634796143, 2.474219560623169, 4.266507148742676, 10.022541046142578, 0.8818359375, 0.314697265625, -0.341552734375
463, 476852906, -7.589677333831787, -1.6046185493469238, 6.049376964569092, 1.433344841003418, 9.88204288482666, 5.769628047943115, 0.883544921875, 0.3095703125, -0.3388671875
464, 476869573, -7.697278022766113, -1.5142656564712524, 5.765315532684326, -0.5943683981895447, 7.8199238777160645, 0.7860347032546997, 0.882568359375, 0.31005859375, -0.335693359375
465, 476886240, -7.733493804931641, -1.8603442907333374, 5.087436199188232, -0.5006771087646484, 1.8220044374465942, -1.3218715190887451, 0.883544921875, 0.31201171875, -0.334716796875
466, 476902907, -7.414092540740967, -2.3327476978302, 4.982808589935303, 3.8248794078826904, -5.916931629180908, 4.638710021972656, 0.884033203125, 0.30859375, -0.335205078125
467, 476919574, -7.203062534332275, -2.2370738983154297, 5.1236042976379395, 9.958123207092285, -11.92452335357666, 13.620898246765137, 0.883056640625, 0.305419921875, -0.33837890625
468, 476936241, -7.782588481903076, -1.2702369689941406, 6.1246795654296875, 11.853781700134277, -16.048351287841797, 16.285991668701172, 0.883056640625, 0.30126953125, -0.344482421875
469, 476952908, -7.8204522132873535, -1.0724912881851196, 6.407103061676025, 6.6889519691467285, -17.867971420288086, 8.294602394104004, 0.879638671875, 0.297607421875, -0.34912109375
470, 476969575, -7.371313571929932, -1.0573761463165283, 6.390665531158447, -0.4767164885997772, -8.67039966583252, -3.141782522201538, 0.879638671875, 0.297607421875, -0.35302734375
471, 476986242, -7.274650573730469, -1.3675097227096558, 5.976047039031982, -3.0986764430999756, 1.2319005727767944, -7.93868350982666, 0.883056640625, 0.30078125, -0.35205078125
472, 477002909, -7.195094108581543, -1.804618239402771, 5.354401588439941, 1.7839564085006714, 2.022397994995117, -5.495512008666992, 0.884521484375, 0.2998046875, -0.3544921875
473, 477019576, -7.4399638175964355, -2.0040528774261475, 5.732900142669678, 11.521974563598633, -3.1824944019317627, 0.15381072461605072, 0.883544921875, 0.30224609375, -0.353515625
474, 477036243, -7.792448997497559, -2.1163299083709717, 6.567623138427734, 8.444093704223633, -5.956106662750244, 2.0311455726623535, 0.884033203125, 0.298583984375, -0.356201171875
475, 477052910, -7.608653545379639, -1.7033389806747437, 6.191479682922363, 0.957434892654419, -4.441972732543945, -0.9148473739624023, 0.88134765625, 0.299560546875, -0.35986328125
476, 477069577, -7.452725887298584, -1.7002201080322266, 6.100636959075928, -0.5061325430870056, -1.3595222234725952, -2.8402435779571533, 0.88232421875, 0.3017578125, -0.356689453125
477, 477086244, -7.347912311553955, -1.8612490892410278, 6.093000411987305, -0.31401172280311584, 2.2674989700317383, -3.2604715824127197, 0.88232421875, 0.3017578125, -0.356689453125
478, 477102911, -7.530147075653076, -1.835871696472168, 5.91901159286499, 2.0269951820373535, 1.5724339485168457, -0.9135921597480774, 0.885009765625, 0.302734375, -0.357666015625
479, 477119578, -7.585936546325684, -1.8612351417541504, 5.81943416595459, 3.344653844833374, -1.4329538345336914, -0.7207926511764526, 0.885986328125, 0.3017578125, -0.356201171875
480, 477136245, -7.492578029632568, -1.983884572982788, 5.898200511932373, 4.172071933746338, -3.904578924179077, -0.08504696190357208, 0.887939453125, 0.30126953125, -0.355224609375
481, 477152912, -7.445223331451416, -1.642383098602295, 6.110668182373047, 3.8149032592773438, -4.177470684051514, 0.7082104682922363, 0.885986328125, 0.29931640625, -0.357177734375
482, 477169579, -7.428259372711182, -1.2970337867736816, 6.283771991729736, 1.191214680671692, -1.3808319568634033, -1.070918321609497, 0.888671875, 0.295654296875, -0.360107421875
483, 477186246, -7.449786186218262, -1.3936983346939087, 6.164349555969238, -0.28117620944976807, 1.9702504873275757, -3.636823892593384, 0.88720703125, 0.29248046875, -0.358642578125
484, 477202913, -7.519701957702637, -1.9096040725708008, 5.932590484619141, -0.21619677543640137, 3.583965539932251, -3.2902839183807373, 0.88916015625, 0.29150390625, -0.359619140625
485, 477219580, -7.5057053565979, -2.2046384811401367, 5.828429698944092, 1.1338165998458862, 1.553890585899353, 0.8742959499359131, 0.88818359375, 0.293701171875, -0.359130859375
486, 477236247, -7.668203830718994, -1.9017359018325806, 5.806698322296143, 3.634922981262207, -3.5255119800567627, 3.644578695297241, 0.8876953125, 0.29052734375, -0.359130859375
487, 477252914, -7.662155628204346, -1.8338700532913208, 5.800294399261475, 6.247203350067139, -11.004502296447754, 4.504360198974609, 0.88623046875, 0.2900390625, -0.361083984375
488, 477269581, -7.433462619781494, -1.776835560798645, 6.0421366691589355, 8.528406143188477, -16.71161651611328, 4.978583335876465, 0.885009765625, 0.2880859375, -0.36669921875
489, 477286248, -7.352380752563477, -1.5462586879730225, 6.137071132659912, 9.4253511428833, -15.685647010803223, 5.5459699630737305, 0.883544921875, 0.283935546875, -0.371337890625
490, 477302915, -7.361546039581299, -1.234972596168518, 6.0990824699401855, 7.683708667755127, -12.967158317565918, 4.564757823944092, 0.883544921875, 0.283203125, -0.373779296875
491, 477319582, -7.356944561004639, -1.5462467670440674, 6.022866725921631, 6.613094806671143, -11.483898162841797, 3.292060136795044, 0.883056640625, 0.279296875, -0.3779296875
492, 477336249, -7.339509010314941, -1.707851529121399, 6.115499019622803, 8.454368591308594, -12.350390434265137, 4.797243595123291, 0.880615234375, 0.277099609375, -0.382080078125
493, 477352916, -7.245046615600586, -1.7640544176101685, 6.199498176574707, 10.950614929199219, -13.56314468383789, 7.605759143829346, 0.880615234375, 0.274169921875, -0.382568359375
494, 477369583, -7.28916072845459, -1.412850022315979, 6.150590896606445, 11.606415748596191, -13.163189888000488, 8.676383018493652, 0.880615234375, 0.27197265625, -0.386474609375
495, 477386250, -7.2013678550720215, -0.9442067742347717, 6.258415699005127, 8.729743003845215, -10.617355346679688, 5.845725059509277, 0.878173828125, 0.268798828125, -0.3896484375
496, 477402917, -7.108172416687012, -0.8700525164604187, 6.256758213043213, 4.292682647705078, -6.304055213928223, 0.8623733520507812, 0.878173828125, 0.267333984375, -0.3896484375
497, 477419584, -7.119659423828125, -1.1772315502166748, 6.204108715057373, 2.4747822284698486, -3.026742696762085, -1.6599591970443726, 0.879150390625, 0.26416015625, -0.39208984375
498, 477436251, -7.27391242980957, -1.4585402011871338, 6.229736804962158, 3.473281145095825, -2.7524564266204834, -1.6447454690933228, 0.879150390625, 0.265869140625, -0.395263671875
499, 477452918, -7.350789546966553, -1.5198336839675903, 6.3871355056762695, 3.3194892406463623, -4.2610955238342285, -0.3287646472454071, 0.877197265625, 0.26416015625, -0.396728515625
500, 477469585, -7.3211517333984375, -1.4356002807617188, 6.311861038208008, 2.124772071838379, -5.067831993103027, 0.5270901918411255, 0.875, 0.265625, -0.397216796875
501, 477486252, -7.274691581726074, -1.1655957698822021, 6.394247531890869, 0.9781169295310974, -4.231666088104248, -0.0539531484246254, 0.875, 0.266357421875, -0.396728515625
502, 477502919, -7.221755504608154, -1.2316352128982544, 6.3729681968688965, 0.07717747241258621, -2.3057703971862793, -1.0221772193908691, 0.876953125, 0.26416015625, -0.400390625
503, 477519586, -7.233043193817139, -1.2393240928649902, 6.354228973388672, -0.3229120969772339, -0.04840800166130066, -1.530333161354065, 0.877197265625, 0.26318359375, -0.398681640625
504, 477536253, -7.259912967681885, -1.2770634889602661, 6.314891815185547, -0.07790102064609528, 1.3164608478546143, -1.5858741998672485, 0.8759765625, 0.265380859375, -0.396728515625
505, 477552920, -7.293860912322998, -1.363071322441101, 6.218383312225342, 0.44993188977241516, 1.0837180614471436, -1.4100686311721802, 0.876953125, 0.26513671875, -0.398193359375
506, 477569587, -7.278686046600342, -1.3251796960830688, 6.210167407989502, 0.9145910739898682, 0.05257006362080574, -1.281505823135376, 0.8759765625, 0.2646484375, -0.397705078125
507, 477586254, -7.235931396484375, -1.428767204284668, 6.222107410430908, 1.2079142332077026, -1.373020052909851, -1.0394657850265503, 0.878173828125, 0.263671875, -0.39892578125
508, 477602921, -7.241268634796143, -1.4586851596832275, 6.2953691482543945, 1.1772428750991821, -2.3467252254486084, -0.5158141255378723, 0.878173828125, 0.263671875, -0.3994140625
509, 477619588, -7.232609748840332, -1.3342293500900269, 6.293845176696777, 0.8963676691055298, -2.823601722717285, -0.20550991594791412, 0.877197265625, 0.26318359375, -0.398681640625
510, 477636255, -7.181544780731201, -1.3893111944198608, 6.383584499359131, 0.6991946697235107, -2.7154970169067383, -0.05500327795743942, 0.877197265625, 0.263671875, -0.39990234375
511, 477652922, -7.195017337799072, -1.2459996938705444, 6.355190753936768, 0.38088005781173706, -1.2082791328430176, 0.05465110391378403, 0.87451171875, 0.2646484375, -0.397705078125
512, 477669589, -7.253254413604736, -1.1831834316253662, 6.330167770385742, -0.30044978857040405, 0.4443355202674866, -0.9829898476600647, 0.87451171875, 0.26318359375, -0.398193359375
513, 477686256, -7.243202209472656, -1.300542950630188, 6.276652812957764, -0.3945380449295044, 0.7318381071090698, -1.6013699769973755, 0.8740234375, 0.2626953125, -0.39892578125
514, 477702923, -7.260478496551514, -1.4103853702545166, 6.264540195465088, -0.07814434915781021, 0.36384764313697815, -1.2500277757644653, 0.879638671875, 0.263671875, -0.3994140625
515, 477719590, -7.243479251861572, -1.4047914743423462, 6.300483226776123, 0.13442184031009674, -0.16864682734012604, -0.7571626305580139, 0.879150390625, 0.2646484375, -0.400390625
516, 477736257, -7.255037307739258, -1.3523181676864624, 6.302705764770508, 0.17396146059036255, -0.2741071283817291, -0.1479005515575409, 0.876220703125, 0.263671875, -0.397705078125
517, 477752924, -7.2532243728637695, -1.285424828529358, 6.324501037597656, -0.24083618819713593, -0.14833594858646393, -0.26287591457366943, 0.87548828125, 0.2626953125, -0.397705078125
518, 477769591, -7.248682022094727, -1.2676805257797241, 6.3282880783081055, -0.4855399429798126, 0.4047767221927643, -0.7041059732437134, 0.878173828125, 0.26318359375, -0.397705078125
519, 477786258, -7.2285356521606445, -1.2520232200622559, 6.326559066772461, -0.7674846053123474, 1.831084132194519, -1.0914596319198608, 0.876220703125, 0.2626953125, -0.395751953125
520, 477802925, -7.297565937042236, -1.2893753051757812, 6.281901836395264, -0.8248313665390015, 2.3518221378326416, -1.3338837623596191, 0.879150390625, 0.2626953125, -0.394775390625
521, 477819592, -7.284941673278809, -1.3990509510040283, 6.282773017883301, -0.6671596765518188, 1.8824118375778198, -1.1305317878723145, 0.880126953125, 0.263671875, -0.395751953125
522, 477836259, -7.280871868133545, -1.3148093223571777, 6.300557613372803, -0.7150425314903259, 2.0135746002197266, -0.6784291863441467, 0.878173828125, 0.26171875, -0.394775390625
523, 477852926, -7.302897930145264, -1.24069344997406, 6.283171653747559, -0.7603641748428345, 2.2958390712738037, -0.8452062606811523, 0.878173828125, 0.26220703125, -0.394287109375
524, 477869593, -7.327154159545898, -1.3105911016464233, 6.234914779663086, -0.7551007270812988, 2.0569238662719727, -1.0216906070709229, 0.878662109375, 0.2626953125, -0.394287109375
525, 477886260, -7.318009376525879, -1.3783231973648071, 6.219843864440918, -0.275182843208313, 0.7991738319396973, -0.669247031211853, 0.8798828125, 0.2607421875, -0.392578125
526, 477902927, -7.312442779541016, -1.3590803146362305, 6.185186386108398, 0.14114518463611603, -0.6931436061859131, -0.22486668825149536, 0.880859375, 0.26171875, -0.3916015625
527, 477919594, -7.279600620269775, -1.2937791347503662, 6.274950981140137, 0.4310937225818634, -1.2513213157653809, -0.0976100042462349, 0.87939453125, 0.26171875, -0.39013671875
528, 477936261, -7.30127477645874, -1.2535845041275024, 6.260096073150635, 0.38432496786117554, -1.021626591682434, -0.17338517308235168, 0.88037109375, 0.26123046875, -0.3935546875
529, 477952928, -7.325449466705322, -1.244478464126587, 6.252090930938721, 0.1699722856283188, -0.7861177921295166, -0.6647135615348816, 0.877685546875, 0.26025390625, -0.395263671875
530, 477969595, -7.31336784362793, -1.2904771566390991, 6.2596635818481445, 0.036837462335824966, -0.8629429340362549, -0.9862552881240845, 0.879638671875, 0.26171875, -0.39306640625
531, 477986262, -7.310042858123779, -1.2986599206924438, 6.233078479766846, -0.12715426087379456, -0.9156925082206726, -1.2780097723007202, 0.88134765625, 0.26025390625, -0.392578125
532, 478002929, -7.29679536819458, -1.3263280391693115, 6.241537570953369, -0.1847316026687622, -0.9477596282958984, -1.4318524599075317, 0.880126953125, 0.26220703125, -0.39306640625
533, 478019596, -7.293342590332031, -1.2971560955047607, 6.277959823608398, -0.1980758160352707, -0.7943907976150513, -1.5780627727508545, 0.879638671875, 0.26220703125, -0.393798828125
534, 478036263, -7.309668064117432, -1.2857186794281006, 6.267064094543457, -0.22030764818191528, -0.5850452780723572, -1.5874239206314087, 0.879150390625, 0.2607421875, -0.3935546875
535, 478052930, -7.290284156799316, -1.306821346282959, 6.253561973571777, -0.23101375997066498, -0.46403810381889343, -1.6300435066223145, 0.881103515625, 0.26220703125, -0.39404296875
536, 478069597, -7.308626174926758, -1.3332734107971191, 6.2364020347595215, -0.06509467959403992, -0.687585711479187, -1.4592963457107544, 0.876708984375, 0.2607421875, -0.3935546875
537, 478086264, -7.305363178253174, -1.3334628343582153, 6.263672351837158, 0.16636088490486145, -1.0627861022949219, -1.1833837032318115, 0.878173828125, 0.26171875, -0.393798828125
538, 478102931, -7.30657434463501, -1.28722083568573, 6.243898391723633, 0.26522591710090637, -1.2558674812316895, -1.0120474100112915, 0.880126953125, 0.26123046875, -0.394775390625
539, 478119598, -7.315313339233398, -1.2688978910446167, 6.238857746124268, 0.23201905190944672, -1.1441705226898193, -1.0003423690795898, 0.8828125, 0.26123046875, -0.395263671875
540, 478136265, -7.313210964202881, -1.2566866874694824, 6.269327163696289, 0.15073712170124054, -1.0864906311035156, -1.1263312101364136, 0.880615234375, 0.26220703125, -0.39306640625
541, 478152932, -7.314215660095215, -1.2751942873001099, 6.263612270355225, 0.15103167295455933, -1.153262734413147, -1.4104783535003662, 0.880126953125, 0.259765625, -0.395263671875
542, 478169599, -7.323434829711914, -1.2713932991027832, 6.240030765533447, 0.2642398178577423, -1.5181031227111816, -1.7110693454742432, 0.878173828125, 0.26220703125, -0.394287109375
543, 478186266, -7.322158336639404, -1.28449285030365, 6.235376358032227, 0.5695816278457642, -2.2951667308807373, -1.6914499998092651, 0.878173828125, 0.26025390625, -0.392578125
544, 478202933, -7.297347545623779, -1.3568111658096313, 6.2431721687316895, 0.9940994381904602, -3.20869517326355, -1.4315835237503052, 0.879150390625, 0.259765625, -0.396240234375
545, 478219600, -7.289263725280762, -1.3452794551849365, 6.286259174346924, 1.1737210750579834, -3.4661152362823486, -1.0249817371368408, 0.880126953125, 0.259765625, -0.395751953125
546, 478236267, -7.2961931228637695, -1.2639179229736328, 6.312104225158691, 0.8870381712913513, -3.2273919582366943, -0.9709389209747314, 0.878662109375, 0.26220703125, -0.397216796875
547, 478252934, -7.279273509979248, -1.2204691171646118, 6.303883075714111, 0.46935904026031494, -2.1306052207946777, -1.3032252788543701, 0.876220703125, 0.26171875, -0.397705078125
548, 478269601, -7.27184534072876, -1.2535725831985474, 6.325949192047119, 0.17006191611289978, -1.4357199668884277, -1.7037696838378906, 0.879150390625, 0.26123046875, -0.396728515625
549, 478286268, -7.253979682922363, -1.3224800825119019, 6.284000396728516, 0.3051304817199707, -1.1223613023757935, -1.7073681354522705, 0.877197265625, 0.2607421875, -0.397216796875
550, 478302935, -7.241097450256348, -1.3224570751190186, 6.274059772491455, 0.510377824306488, -1.299396276473999, -1.329298973083496, 0.878662109375, 0.26123046875, -0.396240234375
551, 478319602, -7.252041816711426, -1.3504974842071533, 6.281845569610596, 0.5445963144302368, -1.6661571264266968, -0.9295616745948792, 0.878662109375, 0.259765625, -0.396240234375
552, 478336269, -7.25226354598999, -1.2451530694961548, 6.283677577972412, 0.4706653952598572, -1.8281065225601196, -0.9111846089363098, 0.878173828125, 0.258544921875, -0.398193359375
553, 478352936, -7.257122039794922, -1.2608555555343628, 6.292708396911621, 0.23574568331241608, -1.5019285678863525, -1.2688019275665283, 0.877197265625, 0.26123046875, -0.398193359375
554, 478369603, -7.252415657043457, -1.2893450260162354, 6.278031349182129, 0.03149721771478653, -1.3457937240600586, -1.496537208557129, 0.876708984375, 0.260009765625, -0.3994140625
555, 478386270, -7.245898723602295, -1.289652705192566, 6.2995805740356445, -0.07685089856386185, -0.9553151726722717, -1.423284888267517, 0.878662109375, 0.259033203125, -0.400390625
556, 478402937, -7.229763984680176, -1.331023931503296, 6.3070969581604, -0.28851422667503357, -0.9261680245399475, -1.464867115020752, 0.879638671875, 0.259765625, -0.40087890625
557, 478419604, -7.2398905754089355, -1.312087059020996, 6.2957940101623535, -0.18856069445610046, -0.9221724271774292, -1.2944146394729614, 0.880126953125, 0.25927734375, -0.397705078125
558, 478436271, -7.244656085968018, -1.26590895652771, 6.307169437408447, -0.14211206138134003, -0.8675917387008667, -1.2468903064727783, 0.878173828125, 0.26123046875, -0.397216796875
559, 478452938, -7.251765727996826, -1.300033450126648, 6.295481204986572, -0.24731624126434326, -0.9367844462394714, -1.3439111709594727, 0.875732421875, 0.2607421875, -0.39892578125
560, 478469605, -7.251218795776367, -1.301668643951416, 6.2773847579956055, -0.24212321639060974, -0.8896121382713318, -1.2188762426376343, 0.876708984375, 0.258544921875, -0.398681640625
561, 478486272, -7.252468585968018, -1.316467523574829, 6.283946514129639, 0.009406263008713722, -1.2079588174819946, -0.9874719381332397, 0.877197265625, 0.2607421875, -0.4013671875
562, 478502939, -7.250096321105957, -1.2795779705047607, 6.301667213439941, 0.06466566026210785, -1.3759911060333252, -0.8718051314353943, 0.879638671875, 0.26025390625, -0.40087890625
563, 478519606, -7.266148090362549, -1.2549000978469849, 6.31340217590332, 0.021200912073254585, -1.2984998226165771, -0.9389742612838745, 0.877197265625, 0.260009765625, -0.399169921875
564, 478536273, -7.265714645385742, -1.2752224206924438, 6.288146018981934, -0.08313881605863571, -1.1716912984848022, -1.0406054258346558, 0.877197265625, 0.258056640625, -0.40087890625
565, 478552940, -7.248263835906982, -1.2467589378356934, 6.337362289428711, -0.20752687752246857, -1.0101392269134521, -1.2989095449447632, 0.877685546875, 0.259521484375, -0.399169921875
566, 478569607, -7.250004768371582, -1.276649832725525, 6.3310627937316895, -0.24297486245632172, -0.8273541927337646, -1.4298545122146606, 0.878662109375, 0.26171875, -0.398681640625
567, 478586274, -7.261990547180176, -1.2792917490005493, 6.290264129638672, -0.37924724817276, -0.8418383002281189, -1.453559160232544, 0.878662109375, 0.26025390625, -0.399169921875
568, 478602941, -7.245945930480957, -1.3067142963409424, 6.315577507019043, -0.3997502326965332, -0.9054601788520813, -1.4308406114578247, 0.881103515625, 0.259765625, -0.399169921875
569, 478619608, -7.257762432098389, -1.2755399942398071, 6.312021255493164, -0.28076642751693726, -1.0241621732711792, -1.4446330070495605, 0.881103515625, 0.26025390625, -0.400390625
570, 478636275, -7.2481303215026855, -1.2724641561508179, 6.308876037597656, -0.32460254430770874, -1.1037664413452148, -1.4975999593734741, 0.877685546875, 0.2607421875, -0.4013671875
571, 478652942, -7.237130641937256, -1.2811452150344849, 6.303539752960205, -0.3241415023803711, -1.2074209451675415, -1.501185655593872, 0.876708984375, 0.259033203125, -0.39990234375
572, 478669609, -7.243258953094482, -1.2776055335998535, 6.319855690002441, -0.3308776021003723, -1.0777950286865234, -1.5319209098815918, 0.877685546875, 0.26171875, -0.4013671875
573, 478686276, -7.248618125915527, -1.2794066667556763, 6.319396495819092, -0.3682977557182312, -0.8745455145835876, -1.7197643518447876, 0.879150390625, 0.26220703125, -0.400390625
574, 478702943, -7.241159439086914, -1.2573966979980469, 6.32219934463501, -0.38928741216659546, -0.8416717052459717, -1.822843074798584, 0.880126953125, 0.258544921875, -0.4013671875
575, 478719610, -7.250526428222656, -1.3006566762924194, 6.318169593811035, -0.487973153591156, -0.7542427778244019, -1.9104129076004028, 0.878662109375, 0.26220703125, -0.40283203125
576, 478736277, -7.242445468902588, -1.2772910594940186, 6.29280424118042, -0.41264617443084717, -0.8120505213737488, -1.8538471460342407, 0.877197265625, 0.26171875, -0.40185546875
577, 478752944, -7.234487533569336, -1.3229550123214722, 6.290694236755371, -0.4355567395687103, -0.8162127137184143, -1.8741326332092285, 0.875244140625, 0.260498046875, -0.398681640625
578, 478769611, -7.239625930786133, -1.2660666704177856, 6.335746765136719, -0.6172276735305786, -0.5589972138404846, -2.0412938594818115, 0.87548828125, 0.26416015625, -0.398193359375
579, 478786278, -7.240070819854736, -1.2680413722991943, 6.331349849700928, -0.7978484034538269, 0.05772462487220764, -2.444655418395996, 0.878662109375, 0.2626953125, -0.399169921875
580, 478802945, -7.241662979125977, -1.314414143562317, 6.306044101715088, -0.8029453754425049, 0.25229790806770325, -2.606476306915283, 0.878173828125, 0.26171875, -0.3994140625
581, 478819612, -7.248299598693848, -1.3334431648254395, 6.297214984893799, -0.8126140832901001, 0.2303221970796585, -2.3980400562286377, 0.879638671875, 0.26318359375, -0.4013671875
582, 478836279, -7.271069049835205, -1.3219326734542847, 6.280551910400391, -0.8481389880180359, 0.15016086399555206, -2.2335684299468994, 0.878173828125, 0.26171875, -0.3994140625
583, 478852946, -7.2462944984436035, -1.3350753784179688, 6.278420925140381, -0.5842256546020508, -0.20615659654140472, -1.9717680215835571, 0.877197265625, 0.26416015625, -0.39892578125
584, 478869613, -7.259352684020996, -1.3426730632781982, 6.282242774963379, -0.4186779856681824, -0.4414604902267456, -1.6735849380493164, 0.876708984375, 0.26318359375, -0.396728515625
585, 478886280, -7.256833553314209, -1.3286550045013428, 6.300029754638672, -0.32735592126846313, -0.5658485293388367, -1.4998797178268433, 0.877685546875, 0.26318359375, -0.39892578125
586, 478902947, -7.25738525390625, -1.311244010925293, 6.280834674835205, -0.30809515714645386, -0.5572298765182495, -1.5614142417907715, 0.879150390625, 0.263671875, -0.39892578125
587, 478919614, -7.267495155334473, -1.318954348564148, 6.295767784118652, -0.31927505135536194, -0.6682608723640442, -1.6120504140853882, 0.877197265625, 0.2646484375, -0.39892578125
588, 478936281, -7.26572847366333, -1.2996771335601807, 6.2795515060424805, -0.33441218733787537, -0.682873010635376, -1.729292631149292, 0.877685546875, 0.264892578125, -0.3984375
589, 478952948, -7.261641502380371, -1.3010196685791016, 6.287894248962402, -0.44445711374282837, -0.7212278842926025, -1.782118558883667, 0.87744140625, 0.266357421875, -0.398193359375
590, 478969615, -7.254856586456299, -1.3312901258468628, 6.2975029945373535, -0.4904191792011261, -0.6884181499481201, -1.84317946434021, 0.8759765625, 0.265625, -0.3984375
591, 478986282, -7.246136665344238, -1.310463547706604, 6.3315348625183105, -0.40437325835227966, -0.5358048677444458, -1.8504276275634766, 0.877197265625, 0.265380859375, -0.397705078125
592, 479002949, -7.24564266204834, -1.3094767332077026, 6.295912265777588, -0.7058348059654236, -0.18957240879535675, -2.084848165512085, 0.877685546875, 0.2646484375, -0.40087890625
593, 479019616, -7.264284133911133, -1.3360092639923096, 6.311751842498779, -0.6399205327033997, -0.025727959349751472, -2.040999174118042, 0.878173828125, 0.265869140625, -0.397216796875
594, 479036283, -7.268202781677246, -1.3603547811508179, 6.253212928771973, -0.5860569477081299, -0.2922920882701874, -1.9508168697357178, 0.878662109375, 0.265380859375, -0.39990234375
595, 479052950, -7.268574237823486, -1.3453782796859741, 6.314084529876709, -0.4779329001903534, -0.41574525833129883, -1.8186806440353394, 0.877197265625, 0.265869140625, -0.397216796875
596, 479069617, -7.255127429962158, -1.3265790939331055, 6.277090549468994, -0.44473889470100403, -0.45708420872688293, -1.763639211654663, 0.87646484375, 0.267822265625, -0.397705078125
597, 479086284, -7.26434326171875, -1.3274667263031006, 6.293332099914551, -0.42615681886672974, -0.505376935005188, -1.807039737701416, 0.878662109375, 0.265380859375, -0.398193359375
598, 479102951, -7.24105167388916, -1.3199925422668457, 6.301823139190674, -0.5662327408790588, -0.29749149084091187, -1.9285850524902344, 0.876953125, 0.266845703125, -0.3994140625
599, 479119618, -7.271779537200928, -1.3656690120697021, 6.284274101257324, -0.5844817757606506, -0.09187275171279907, -1.926523208618164, 0.879150390625, 0.267333984375, -0.398193359375
600, 479136285, -7.260390758514404, -1.370173454284668, 6.264852046966553, -0.49700164794921875, -0.29299649596214294, -1.6805006265640259, 0.878173828125, 0.265869140625, -0.397216796875
601, 479152952, -7.265115261077881, -1.3213005065917969, 6.29103422164917, -0.28440338373184204, -0.5718803405761719, -1.5511435270309448, 0.87841796875, 0.267822265625, -0.3984375
602, 479169619, -7.267086505889893, -1.3311034440994263, 6.3036274909973145, -0.2727496922016144, -0.4859241545200348, -1.6785413026809692, 0.8759765625, 0.267822265625, -0.3994140625
603, 479186286, -7.264065742492676, -1.3465989828109741, 6.279289722442627, -0.33706310391426086, -0.4662535786628723, -1.73486328125, 0.877685546875, 0.266357421875, -0.397705078125
604, 479202953, -7.258774280548096, -1.3755348920822144, 6.288694381713867, -0.2814195454120636, -0.5374441146850586, -1.6930636167526245, 0.878662109375, 0.265380859375, -0.397216796875
605, 479219620, -7.263331890106201, -1.3709796667099, 6.294504642486572, -0.2213577777147293, -0.5913972854614258, -1.3821381330490112, 0.878173828125, 0.265869140625, -0.39892578125
606, 479236287, -7.2606964111328125, -1.3776100873947144, 6.26766300201416, -0.10415405035018921, -0.7287581562995911, -1.2773950099945068, 0.879638671875, 0.266845703125, -0.397705078125
607, 479252954, -7.270198822021484, -1.3559322357177734, 6.27714729309082, -0.13723284006118774, -0.6803500652313232, -1.0743629932403564, 0.879150390625, 0.265380859375, -0.397705078125
608, 479269621, -7.270108222961426, -1.3424584865570068, 6.271268844604492, -0.07112646847963333, -0.7873344421386719, -1.0486736297607422, 0.878173828125, 0.267333984375, -0.396728515625
609, 479286288, -7.248441219329834, -1.3593370914459229, 6.300865173339844, -0.1215834766626358, -0.940062940120697, -1.028119444847107, 0.876953125, 0.266357421875, -0.398193359375
610, 479302955, -7.266332626342773, -1.3583511114120483, 6.2951979637146, 0.06435830891132355, -1.1861882209777832, -0.9225694537162781, 0.87890625, 0.266357421875, -0.40087890625
611, 479319622, -7.268454074859619, -1.364811897277832, 6.270435333251953, 0.2193663865327835, -1.2693781852722168, -0.842581033706665, 0.880126953125, 0.266357421875, -0.397705078125
612, 479336289, -7.2654709815979, -1.3479969501495361, 6.306875705718994, 0.16199392080307007, -1.2328672409057617, -0.7645262479782104, 0.879638671875, 0.266845703125, -0.397216796875
613, 479352956, -7.262940883636475, -1.3416621685028076, 6.293149948120117, 0.22306741774082184, -1.3407350778579712, -0.8272645473480225, 0.8779296875, 0.267333984375, -0.39892578125
614, 479369623, -7.257662773132324, -1.3433489799499512, 6.284884452819824, 0.14263072609901428, -1.4468870162963867, -0.8883765935897827, 0.878173828125, 0.266845703125, -0.398193359375
615, 479386290, -7.2494988441467285, -1.3279167413711548, 6.300354957580566, 0.13447308540344238, -1.427639126777649, -0.8728808164596558, 0.87744140625, 0.266845703125, -0.39990234375
616, 479402957, -7.238646507263184, -1.3422592878341675, 6.3080573081970215, 0.20165519416332245, -1.306414246559143, -0.9496420621871948, 0.878173828125, 0.266357421875, -0.39892578125
617, 479419624, -7.250688076019287, -1.336000680923462, 6.306910037994385, 0.1355103850364685, -1.4318650960922241, -0.9789301753044128, 0.87744140625, 0.267333984375, -0.3994140625
618, 479436291, -7.265635967254639, -1.316774845123291, 6.297093868255615, 0.08708958327770233, -1.3654770851135254, -1.0224462747573853, 0.878173828125, 0.266357421875, -0.397216796875
619, 479452958, -7.245704174041748, -1.348709225654602, 6.277158737182617, -0.011064685881137848, -1.3153785467147827, -1.026249647140503, 0.87744140625, 0.267822265625, -0.39892578125
620, 479469625, -7.245467185974121, -1.3268370628356934, 6.299471855163574, -0.05618146061897278, -1.3042627573013306, -1.046125054359436, 0.875, 0.2646484375, -0.39892578125
621, 479486292, -7.236674785614014, -1.3433146476745605, 6.292510509490967, -0.1591060906648636, -1.1559268236160278, -1.1372935771942139, 0.877197265625, 0.26416015625, -0.39990234375
622, 479502959, -7.236090660095215, -1.320192575454712, 6.314332008361816, -0.2485712319612503, -0.7948645353317261, -1.177070140838623, 0.877685546875, 0.26416015625, -0.40087890625
623, 479519626, -7.249410629272461, -1.3322796821594238, 6.2963433265686035, -0.2272743135690689, -0.7523602247238159, -1.194000005722046, 0.87841796875, 0.266357421875, -0.3994140625
624, 479536293, -7.248854637145996, -1.3193285465240479, 6.291661739349365, -0.2670252025127411, -0.6715649962425232, -1.2360177040100098, 0.876953125, 0.267822265625, -0.40185546875
625, 479552960, -7.25375509262085, -1.3283770084381104, 6.294662952423096, -0.301717609167099, -0.6876626014709473, -1.2105586528778076, 0.87646484375, 0.266845703125, -0.3994140625
626, 479569627, -7.26369047164917, -1.3244551420211792, 6.305262088775635, -0.23435619473457336, -0.8234994411468506, -1.160588264465332, 0.876953125, 0.265380859375, -0.40087890625
627, 479586294, -7.261578559875488, -1.3257277011871338, 6.308027744293213, -0.1259632408618927, -0.9261295795440674, -1.262142539024353, 0.876953125, 0.26513671875, -0.400390625
628, 479602961, -7.24380350112915, -1.3290454149246216, 6.319935321807861, -0.21738781034946442, -0.8287885189056396, -1.2591586112976074, 0.878662109375, 0.2646484375, -0.40087890625
629, 479619628, -7.2402191162109375, -1.326528787612915, 6.2867045402526855, -0.2511325180530548, -0.8404551148414612, -1.3066575527191162, 0.87744140625, 0.266845703125, -0.40087890625
630, 479636295, -7.254535675048828, -1.336844563484192, 6.306236743927002, -0.233472540974617, -0.8614445924758911, -1.3066318035125732, 0.8779296875, 0.266845703125, -0.39990234375
631, 479652962, -7.245004177093506, -1.3522768020629883, 6.323575973510742, -0.315369188785553, -0.7349692583084106, -1.3406583070755005, 0.876953125, 0.266357421875, -0.39892578125
632, 479669629, -7.256989479064941, -1.3437211513519287, 6.312167644500732, -0.3054826557636261, -0.699828565120697, -1.3197070360183716, 0.877685546875, 0.26416015625, -0.400390625
633, 479686296, -7.257115364074707, -1.3375180959701538, 6.308797359466553, -0.2739918529987335, -0.6618705987930298, -1.2093933820724487, 0.87646484375, 0.266357421875, -0.3994140625
634, 479702963, -7.2385334968566895, -1.3326034545898438, 6.2956647872924805, -0.2615184485912323, -0.7668570280075073, -1.2981541156768799, 0.878173828125, 0.266357421875, -0.3984375
635, 479719630, -7.257516860961914, -1.3394955396652222, 6.28158712387085, -0.16434389352798462, -0.8525826930999756, -1.2404230833053589, 0.87646484375, 0.2646484375, -0.39892578125
636, 479736297, -7.242764472961426, -1.3346840143203735, 6.29973030090332, -0.13424897193908691, -0.8967902064323425, -1.2132222652435303, 0.87744140625, 0.266845703125, -0.3984375
637, 479752964, -7.253785610198975, -1.335635781288147, 6.291351795196533, -0.11961131542921066, -0.9804285168647766, -1.094545841217041, 0.87744140625, 0.267333984375, -0.400390625
638, 479769631, -7.24429178237915, -1.3384045362472534, 6.303020000457764, -0.18008290231227875, -0.9364003539085388, -1.1845617294311523, 0.87744140625, 0.266357421875, -0.40185546875
639, 479786298, -7.257328510284424, -1.3287357091903687, 6.309345245361328, -0.17005552351474762, -0.8087082505226135, -1.1722676753997803, 0.87548828125, 0.266845703125, -0.4013671875
640, 479802965, -7.247087478637695, -1.3453505039215088, 6.306204795837402, -0.25995609164237976, -0.7466358542442322, -1.2216745615005493, 0.878173828125, 0.265869140625, -0.39990234375
641, 479819632, -7.25905179977417, -1.3489675521850586, 6.313371181488037, -0.16447195410728455, -0.7886790633201599, -1.1458994150161743, 0.87890625, 0.266357421875, -0.4013671875
642, 479836299, -7.253750324249268, -1.3361161947250366, 6.277459144592285, -0.16562451422214508, -0.9099039435386658, -1.226195216178894, 0.879638671875, 0.265380859375, -0.40234375
643, 479852966, -7.253756999969482, -1.329054832458496, 6.288091659545898, -0.13395442068576813, -0.9543420076370239, -1.1258831024169922, 0.876953125, 0.265380859375, -0.400390625
644, 479869633, -7.251980781555176, -1.3371319770812988, 6.321094989776611, -0.04434838891029358, -1.0767195224761963, -1.051708698272705, 0.87744140625, 0.267333984375, -0.40087890625
645, 479886300, -7.2570719718933105, -1.314355731010437, 6.32488489151001, -0.161417618393898, -0.9218714833259583, -1.197361707687378, 0.8779296875, 0.26513671875, -0.4013671875
646, 479902967, -7.251457214355469, -1.344462275505066, 6.3052191734313965, -0.13766826689243317, -0.8915395736694336, -1.227462887763977, 0.87744140625, 0.265380859375, -0.4013671875
647, 479919634, -7.245932579040527, -1.3055087327957153, 6.305563926696777, -0.1895211637020111, -0.8284940123558044, -1.2559316158294678, 0.878173828125, 0.264892578125, -0.400390625
648, 479936301, -7.246216297149658, -1.342949390411377, 6.298341751098633, -0.10955832898616791, -0.9040899276733398, -1.2615536451339722, 0.878173828125, 0.265869140625, -0.3994140625
649, 479952968, -7.2484049797058105, -1.3296610116958618, 6.31241512298584, -0.1287294328212738, -0.9473626017570496, -1.2198817729949951, 0.87744140625, 0.265869140625, -0.4013671875
650, 479969635, -7.242722988128662, -1.3301763534545898, 6.304881572723389, -0.15286941826343536, -1.0104210376739502, -1.1754692792892456, 0.87646484375, 0.267822265625, -0.3984375
651, 479986302, -7.239527225494385, -1.3273063898086548, 6.31959342956543, -0.15824806690216064, -0.979468047618866, -1.1886597871780396, 0.875, 0.266357421875, -0.400390625
652, 480002969, -7.239527702331543, -1.3407419919967651, 6.326645374298096, -0.19182631373405457, -1.0963387489318848, -1.2200865745544434, 0.87646484375, 0.26513671875, -0.40087890625
653, 480019636, -7.242967128753662, -1.3416762351989746, 6.319156646728516, -0.11395088583230972, -1.028221845626831, -1.0668072700500488, 0.87841796875, 0.265869140625, -0.40283203125
654, 480036303, -7.245894432067871, -1.3259938955307007, 6.334934234619141, -0.16022025048732758, -1.0617871284484863, -1.1434277296066284, 0.87646484375, 0.266357421875, -0.40087890625
655, 480052970, -7.246131420135498, -1.3194522857666016, 6.312812328338623, -0.1797371208667755, -0.8858152031898499, -1.2735915184020996, 0.87646484375, 0.267333984375, -0.4013671875
656, 480069637, -7.242896556854248, -1.325648546218872, 6.292691230773926, -0.17131054401397705, -0.8881331086158752, -1.2324062585830688, 0.880126953125, 0.265869140625, -0.39990234375
657, 480086304, -7.234376907348633, -1.3348716497421265, 6.312567234039307, -0.20330080389976501, -0.8612654209136963, -1.1947684288024902, 0.87744140625, 0.267333984375, -0.40283203125
