sep=,
DeviceTag:,A,,,,,,,,,,,,,,,,,
FirmwareVersion:,2.2.1,,,,,,,,,,,,,,,,,
AppVersion:,2023.6.1,,,,,,,,,,,,,,,,,
SyncStatus:,Synced,,,,,,,,,,,,,,,,,
OutputRate:,60Hz,,,,,,,,,,,,,,,,,
FilterProfile:,General,,,,,,,,,,,,,,,,,
Measurement Mode:,Inertial Mode - Rate quantities (with mag),,,,,,,,,,,,,,,,,
StartTime:,2023-12-05 15:32:12.847 +0200,,,,,,,,,,,,,,,,,
 2023,,,,,,,,,,,,,,,,,,,

PacketCounter,SampleTimeFine,Acc_X,Acc_Y,Acc_Z,Gyr_X,Gyr_Y,Gyr_Z,Mag_X,Mag_Y,Mag_Z
1, 595638615, -6.73873233795166, 1.8421132564544678, 6.994272232055664, -2.363731861114502, -1.4291245937347412, -2.160904884338379, 1.108642578125, -0.586181640625, 0.085205078125
2, 595655282, -6.74774694442749, 1.8385382890701294, 7.004176139831543, -2.4403140544891357, -1.5468919277191162, -2.196762800216675, 1.107666015625, -0.58740234375, 0.088134765625
3, 595671949, -6.761041641235352, 1.8474849462509155, 6.98435115814209, -2.3814048767089844, -1.6582303047180176, -2.211336851119995, 1.109375, -0.5888671875, 0.087158203125
4, 595688616, -6.739444255828857, 1.8268539905548096, 7.004080772399902, -2.475083112716675, -1.6361134052276611, -2.234131336212158, 1.109619140625, -0.586181640625, 0.086669921875
5, 595705283, -6.757036209106445, 1.8381654024124146, 7.01885986328125, -2.4326560497283936, -1.5845168828964233, -2.1015477180480957, 1.108154296875, -0.586181640625, 0.086669921875
6, 595721950, -6.753021240234375, 1.8391804695129395, 6.993606090545654, -2.4589598178863525, -1.6071584224700928, -2.1167101860046387, 1.108642578125, -0.58740234375, 0.087158203125
7, 595738617, -6.7526469230651855, 1.8407690525054932, 7.009433746337891, -2.3933403491973877, -1.5913938283920288, -2.164401054382324, 1.107666015625, -0.584716796875, 0.085693359375
8, 595755284, -6.756336212158203, 1.8320753574371338, 7.000304698944092, -2.4402759075164795, -1.6021385192871094, -2.233107566833496, 1.109130859375, -0.5888671875, 0.087158203125
9, 595771951, -6.746796607971191, 1.833715796470642, 6.991212844848633, -2.3979506492614746, -1.6368052959442139, -2.1477785110473633, 1.1103515625, -0.58740234375, 0.0888671875
10, 595788618, -6.736273288726807, 1.8423768281936646, 7.022061347961426, -2.468641757965088, -1.6969822645187378, -2.134946584701538, 1.109130859375, -0.585693359375, 0.086181640625
11, 595805285, -6.739523887634277, 1.8403338193893433, 7.017637729644775, -2.467578649520874, -1.6744558811187744, -2.179243803024292, 1.108154296875, -0.586669921875, 0.085693359375
12, 595821952, -6.756051063537598, 1.832755208015442, 6.983591556549072, -2.4795656204223633, -1.6147401332855225, -2.198735237121582, 1.107177734375, -0.587890625, 0.085205078125
13, 595838619, -6.749416351318359, 1.842322587966919, 6.989660739898682, -2.433257579803467, -1.6272004842758179, -2.13584303855896, 1.107666015625, -0.587158203125, 0.085205078125
14, 595855286, -6.744490146636963, 1.840362310409546, 6.9995551109313965, -2.3793046474456787, -1.6492146253585815, -2.1229727268218994, 1.107177734375, -0.58740234375, 0.087158203125
15, 595871953, -6.7354044914245605, 1.8380825519561768, 7.011344909667969, -2.377460241317749, -1.580892562866211, -2.073936939239502, 1.109130859375, -0.586669921875, 0.086181640625
16, 595888620, -6.751768589019775, 1.8644126653671265, 6.988367080688477, -2.4238195419311523, -1.576051950454712, -2.1730968952178955, 1.10986328125, -0.5888671875, 0.086669921875
17, 595905287, -6.740001678466797, 1.8375452756881714, 6.999292850494385, -2.451174020767212, -1.671830654144287, -2.140965700149536, 1.106689453125, -0.585205078125, 0.086669921875
18, 595921954, -6.74155330657959, 1.8265596628189087, 7.004462242126465, -2.3924179077148438, -1.7060874700546265, -2.202730417251587, 1.108642578125, -0.585205078125, 0.085693359375
19, 595938621, -6.746726036071777, 1.846773624420166, 6.987915992736816, -2.489259958267212, -1.5895113945007324, -2.1581006050109863, 1.106201171875, -0.587158203125, 0.087158203125
20, 595955288, -6.746524810791016, 1.8328015804290771, 6.998405933380127, -2.3587372303009033, -1.5300129652023315, -2.126250743865967, 1.109130859375, -0.5888671875, 0.084716796875
21, 595971955, -6.73971700668335, 1.8418354988098145, 7.005247116088867, -2.4735848903656006, -1.6526594161987305, -2.1166720390319824, 1.108642578125, -0.587158203125, 0.086669921875
22, 595988622, -6.7529988288879395, 1.8557807207107544, 6.996501445770264, -2.440595865249634, -1.7061773538589478, -2.2190840244293213, 1.110107421875, -0.586181640625, 0.087158203125
23, 596005289, -6.740672588348389, 1.8423370122909546, 7.005500793457031, -2.5152058601379395, -1.6879281997680664, -2.238255739212036, 1.108154296875, -0.586669921875, 0.085205078125
24, 596021956, -6.742137908935547, 1.8305187225341797, 7.010632038116455, -2.4835357666015625, -1.6112565994262695, -2.2135519981384277, 1.105712890625, -0.586181640625, 0.087646484375
25, 596038623, -6.753786087036133, 1.8295599222183228, 7.0044660568237305, -2.5718095302581787, -1.6396994590759277, -2.213475227355957, 1.108642578125, -0.586181640625, 0.086181640625
26, 596055290, -6.74515962600708, 1.837253212928772, 7.019440174102783, -2.5413689613342285, -1.7049479484558105, -2.2324414253234863, 1.107177734375, -0.585693359375, 0.084228515625
27, 596071957, -6.740848541259766, 1.829156517982483, 7.013627529144287, -2.5563395023345947, -1.6019333600997925, -2.244389533996582, 1.10986328125, -0.587890625, 0.085693359375
28, 596088624, -6.745297431945801, 1.8406399488449097, 6.991949558258057, -2.4544777870178223, -1.6422864198684692, -2.196263551712036, 1.107666015625, -0.587158203125, 0.088623046875
29, 596105291, -6.742859363555908, 1.826493263244629, 6.994936943054199, -2.530639410018921, -1.6625871658325195, -2.192955732345581, 1.108642578125, -0.587890625, 0.086669921875
30, 596121958, -6.736600875854492, 1.8261985778808594, 6.99185037612915, -2.50197696685791, -1.6492146253585815, -2.2400996685028076, 1.108642578125, -0.584228515625, 0.088623046875
31, 596138625, -6.746460914611816, 1.8341782093048096, 7.005044937133789, -2.49372935295105, -1.5109699964523315, -2.208916187286377, 1.107666015625, -0.587158203125, 0.085205078125
32, 596155292, -6.726321697235107, 1.8516066074371338, 7.014876842498779, -2.454772472381592, -1.5122507810592651, -2.182253360748291, 1.108642578125, -0.585693359375, 0.084228515625
33, 596171959, -6.736571788787842, 1.8519550561904907, 6.993046760559082, -2.5382442474365234, -1.566997766494751, -2.2493844032287598, 1.108642578125, -0.587158203125, 0.086181640625
34, 596188626, -6.735938549041748, 1.8247594833374023, 6.989591121673584, -2.5435073375701904, -1.5427168607711792, -2.282130002975464, 1.109619140625, -0.586181640625, 0.085693359375
35, 596205293, -6.734931468963623, 1.8396847248077393, 6.996360778808594, -2.540459632873535, -1.5580077171325684, -2.3313064575195312, 1.105224609375, -0.58837890625, 0.085693359375
36, 596221960, -6.748183250427246, 1.850358486175537, 7.0070414543151855, -2.4813201427459717, -1.6063644886016846, -2.2942192554473877, 1.107666015625, -0.586669921875, 0.084228515625
37, 596238627, -6.733240127563477, 1.8411035537719727, 7.0105791091918945, -2.5882017612457275, -1.6220139265060425, -2.2869579792022705, 1.107177734375, -0.58837890625, 0.086669921875
38, 596255294, -6.7323832511901855, 1.833524465560913, 7.002479076385498, -2.6124188899993896, -1.6299283504486084, -2.3182952404022217, 1.107177734375, -0.587158203125, 0.086181640625
39, 596271961, -6.740687370300293, 1.829250454902649, 6.987603187561035, -2.6096014976501465, -1.5028507709503174, -2.2620112895965576, 1.108154296875, -0.585205078125, 0.085693359375
40, 596288628, -6.730620384216309, 1.8292315006256104, 7.015969753265381, -2.5534582138061523, -1.4984071254730225, -2.262497901916504, 1.108642578125, -0.58740234375, 0.085205078125
41, 596305295, -6.7437744140625, 1.8279805183410645, 7.0138678550720215, -2.504563570022583, -1.5176806449890137, -2.284665584564209, 1.107177734375, -0.586669921875, 0.086669921875
42, 596321962, -6.757449150085449, 1.8287733793258667, 6.986998081207275, -2.485686779022217, -1.446976661682129, -2.345329761505127, 1.107177734375, -0.587158203125, 0.088134765625
43, 596338629, -6.746685028076172, 1.841483235359192, 7.00367546081543, -2.474583864212036, -1.5626949071884155, -2.3148245811462402, 1.106201171875, -0.586181640625, 0.087158203125
44, 596355296, -6.761411666870117, 1.805755853652954, 6.986400604248047, -2.4821524620056152, -1.5421534776687622, -2.1628260612487793, 1.108642578125, -0.586669921875, 0.085693359375
45, 596371963, -6.754598617553711, 1.8192049264907837, 7.003835201263428, -2.528306484222412, -1.6415692567825317, -2.250549793243408, 1.1103515625, -0.586669921875, 0.087158203125
46, 596388630, -6.740749835968018, 1.8355265855789185, 7.003528118133545, -2.4029195308685303, -1.6102321147918701, -2.224642515182495, 1.109130859375, -0.586669921875, 0.085205078125
47, 596405297, -6.731874942779541, 1.8380600214004517, 7.0259857177734375, -2.4715232849121094, -1.634026288986206, -2.2617549896240234, 1.108642578125, -0.585205078125, 0.085693359375
48, 596421964, -6.740826606750488, 1.8328572511672974, 7.019546031951904, -2.465299367904663, -1.585310935974121, -2.2548909187316895, 1.105712890625, -0.586181640625, 0.085693359375
49, 596438631, -6.7454633712768555, 1.824720859527588, 6.988831996917725, -2.414048194885254, -1.6046998500823975, -2.1506729125976562, 1.110107421875, -0.584716796875, 0.087646484375
50, 596455298, -6.739201545715332, 1.8284019231796265, 6.997259140014648, -2.449073553085327, -1.6263936758041382, -2.2155752182006836, 1.107666015625, -0.585693359375, 0.086669921875
51, 596471965, -6.738001346588135, 1.834004282951355, 7.018276214599609, -2.4039440155029297, -1.5446507930755615, -2.2480010986328125, 1.107666015625, -0.584716796875, 0.086669921875
52, 596488632, -6.730234146118164, 1.8381725549697876, 7.013324737548828, -2.460484027862549, -1.6264578104019165, -2.2146408557891846, 1.110107421875, -0.586669921875, 0.085693359375
53, 596505299, -6.736421585083008, 1.8344089984893799, 6.984865188598633, -2.448484182357788, -1.6116278171539307, -2.241879463195801, 1.109619140625, -0.585205078125, 0.087158203125
54, 596521966, -6.748295783996582, 1.8280768394470215, 6.991600513458252, -2.5146291255950928, -1.546930193901062, -2.1744284629821777, 1.107666015625, -0.586181640625, 0.084716796875
55, 596538633, -6.737575054168701, 1.8346993923187256, 7.013550758361816, -2.460766077041626, -1.5882436037063599, -2.1738524436950684, 1.108642578125, -0.584716796875, 0.087646484375
56, 596555300, -6.746962547302246, 1.8213953971862793, 7.013486385345459, -2.461162805557251, -1.6003201007843018, -2.1992602348327637, 1.109130859375, -0.586669921875, 0.086669921875
57, 596571967, -6.730599880218506, 1.8453118801116943, 7.026953220367432, -2.370007038116455, -1.6856356859207153, -2.126340627670288, 1.109375, -0.58837890625, 0.087158203125
58, 596588634, -6.751547813415527, 1.8134433031082153, 7.027773857116699, -2.3422815799713135, -1.7130156755447388, -2.1365087032318115, 1.109130859375, -0.58740234375, 0.085693359375
59, 596605301, -6.7369704246521, 1.8372504711151123, 6.996228218078613, -2.396644353866577, -1.6495858430862427, -2.105274200439453, 1.107666015625, -0.586181640625, 0.087158203125
60, 596621968, -6.743439674377441, 1.8322614431381226, 7.0253005027771, -2.309819221496582, -1.5194973945617676, -2.1435647010803223, 1.106201171875, -0.587158203125, 0.08935546875
61, 596638635, -6.731121063232422, 1.828971266746521, 6.998063564300537, -2.4284937381744385, -1.440330147743225, -2.1792819499969482, 1.106201171875, -0.585205078125, 0.086669921875
62, 596655302, -6.751034259796143, 1.8279396295547485, 7.024901390075684, -2.426547050476074, -1.4088135957717896, -2.2674665451049805, 1.106689453125, -0.585205078125, 0.085205078125
63, 596671969, -6.750776767730713, 1.8398244380950928, 7.00862455368042, -2.4269697666168213, -1.4408936500549316, -2.3535637855529785, 1.1103515625, -0.587890625, 0.085693359375
64, 596688636, -6.750382423400879, 1.8281341791152954, 7.014034271240234, -2.5121572017669678, -1.61037278175354, -2.2903900146484375, 1.109130859375, -0.584716796875, 0.087158203125
65, 596705303, -6.751729488372803, 1.8124127388000488, 7.001106262207031, -2.47019100189209, -1.5310375690460205, -2.2676589488983154, 1.108154296875, -0.584228515625, 0.085693359375
66, 596721970, -6.744373321533203, 1.8219348192214966, 7.00893497467041, -2.4149956703186035, -1.5335090160369873, -2.285677194595337, 1.106201171875, -0.585693359375, 0.083984375
67, 596738637, -6.752396583557129, 1.8469771146774292, 7.006564140319824, -2.383312702178955, -1.388938069343567, -2.1691393852233887, 1.107177734375, -0.586669921875, 0.087158203125
68, 596755304, -6.763772964477539, 1.8197021484375, 7.014431476593018, -2.490553379058838, -1.4885845184326172, -2.2050998210906982, 1.110107421875, -0.584716796875, 0.087158203125
69, 596771971, -6.762221813201904, 1.8221189975738525, 6.998723030090332, -2.289980173110962, -1.5590704679489136, -2.222708225250244, 1.109130859375, -0.585205078125, 0.084716796875
70, 596788638, -6.7474188804626465, 1.8146253824234009, 7.020566463470459, -2.4229612350463867, -1.572120189666748, -2.0562899112701416, 1.110107421875, -0.586669921875, 0.084228515625
71, 596805305, -6.736486911773682, 1.840571403503418, 7.004437446594238, -2.432976007461548, -1.6786692142486572, -2.143296241760254, 1.107177734375, -0.586181640625, 0.085693359375
72, 596821972, -6.7522969245910645, 1.8463267087936401, 7.025412082672119, -2.4564881324768066, -1.645065188407898, -2.147880792617798, 1.106689453125, -0.586669921875, 0.088623046875
73, 596838639, -6.746525287628174, 1.8262460231781006, 7.016030788421631, -2.4653375148773193, -1.6767354011535645, -2.1429378986358643, 1.107666015625, -0.585205078125, 0.086181640625
74, 596855306, -6.738469123840332, 1.8458839654922485, 7.012388229370117, -2.511478900909424, -1.613087773323059, -2.2222347259521484, 1.11083984375, -0.585693359375, 0.084716796875
75, 596871973, -6.744032382965088, 1.830194115638733, 7.002317428588867, -2.5338001251220703, -1.4886996746063232, -2.251087188720703, 1.108642578125, -0.587158203125, 0.087158203125
76, 596888640, -6.737882137298584, 1.8203952312469482, 7.012582778930664, -2.375372886657715, -1.4158059358596802, -2.1579337120056152, 1.109130859375, -0.585693359375, 0.086181640625
77, 596905307, -6.750104904174805, 1.8321174383163452, 7.045880317687988, -2.4302098751068115, -1.4745101928710938, -2.090111494064331, 1.108642578125, -0.585693359375, 0.086181640625
78, 596921974, -6.751611709594727, 1.8228284120559692, 7.009276866912842, -2.4320924282073975, -1.562848687171936, -2.128108263015747, 1.106689453125, -0.584716796875, 0.087158203125
79, 596938641, -6.75283670425415, 1.8438042402267456, 6.99177885055542, -2.371659517288208, -1.638482928276062, -2.1387245655059814, 1.107666015625, -0.585693359375, 0.088134765625
80, 596955308, -6.735758304595947, 1.8307744264602661, 7.023777484893799, -2.4325790405273438, -1.5839790105819702, -2.0955543518066406, 1.109619140625, -0.587158203125, 0.086669921875
81, 596971975, -6.752190113067627, 1.8343769311904907, 7.012533187866211, -2.408003807067871, -1.6092971563339233, -2.2353739738464355, 1.109619140625, -0.585693359375, 0.084716796875
82, 596988642, -6.754601955413818, 1.83101487159729, 7.016236305236816, -2.450277328491211, -1.70310378074646, -2.1302084922790527, 1.1103515625, -0.586669921875, 0.086669921875
83, 597005309, -6.738223552703857, 1.820216178894043, 7.017727375030518, -2.4375734329223633, -1.6217706203460693, -2.1437063217163086, 1.107666015625, -0.586181640625, 0.086181640625
84, 597021976, -6.734045505523682, 1.8269990682601929, 7.005716800689697, -2.37959885597229, -1.6329632997512817, -2.072618007659912, 1.107177734375, -0.584716796875, 0.086181640625
85, 597038643, -6.738692760467529, 1.838086485862732, 7.00183629989624, -2.342947244644165, -1.6409032344818115, -2.0766775608062744, 1.105712890625, -0.586669921875, 0.088623046875
86, 597055310, -6.741727828979492, 1.8274760246276855, 7.002425193786621, -2.3768584728240967, -1.5243141651153564, -2.081134080886841, 1.108642578125, -0.584228515625, 0.086669921875
87, 597071977, -6.739988327026367, 1.8393675088882446, 7.023550987243652, -2.3859126567840576, -1.5309351682662964, -2.140901803970337, 1.110107421875, -0.585693359375, 0.083740234375
88, 597088644, -6.741086006164551, 1.8508613109588623, 7.016961574554443, -2.448791980743408, -1.6027531623840332, -2.2234771251678467, 1.109130859375, -0.586181640625, 0.085693359375
89, 597105311, -6.742398262023926, 1.83175528049469, 7.01986837387085, -2.402855634689331, -1.5106881856918335, -2.2819764614105225, 1.107666015625, -0.585205078125, 0.086669921875
90, 597121978, -6.738179683685303, 1.8377511501312256, 7.012090682983398, -2.4042258262634277, -1.5092796087265015, -2.220083236694336, 1.106201171875, -0.585693359375, 0.087158203125
91, 597138645, -6.746049880981445, 1.835341215133667, 7.006931781768799, -2.451545238494873, -1.604546070098877, -2.183457136154175, 1.106689453125, -0.586669921875, 0.086181640625
92, 597155312, -6.739157199859619, 1.839424729347229, 7.0017876625061035, -2.4501047134399414, -1.720916509628296, -2.2870898246765137, 1.108642578125, -0.584228515625, 0.087158203125
93, 597171979, -6.744307518005371, 1.8545234203338623, 7.011016368865967, -2.4205920696258545, -1.6181974411010742, -2.2486157417297363, 1.109130859375, -0.586669921875, 0.086181640625
94, 597188646, -6.743164539337158, 1.8202133178710938, 6.996931076049805, -2.547208547592163, -1.613254189491272, -2.3038368225097656, 1.109130859375, -0.58740234375, 0.086669921875
95, 597205313, -6.739354610443115, 1.815886378288269, 6.997532367706299, -2.450161933898926, -1.6074401140213013, -2.2914912700653076, 1.109619140625, -0.586669921875, 0.085693359375
96, 597221980, -6.736959934234619, 1.823626160621643, 7.011102676391602, -2.4974048137664795, -1.64979088306427, -2.3190250396728516, 1.107666015625, -0.585205078125, 0.087646484375
97, 597238647, -6.735630989074707, 1.8363605737686157, 6.996984481811523, -2.479642629623413, -1.6128829717636108, -2.2316091060638428, 1.109619140625, -0.586669921875, 0.085693359375
98, 597255314, -6.752232551574707, 1.825737476348877, 7.017214775085449, -2.5467731952667236, -1.553397536277771, -2.244889259338379, 1.110107421875, -0.584716796875, 0.085693359375
99, 597271981, -6.739910125732422, 1.8363279104232788, 7.020142078399658, -2.5155129432678223, -1.5955944061279297, -2.294680118560791, 1.1103515625, -0.58740234375, 0.0888671875
100, 597288648, -6.744673728942871, 1.8251807689666748, 6.98876428604126, -2.502424955368042, -1.5270291566848755, -2.249922037124634, 1.110107421875, -0.586669921875, 0.085693359375
101, 597305315, -6.732692718505859, 1.823488712310791, 7.028867721557617, -2.4394049644470215, -1.4343241453170776, -2.2648158073425293, 1.108642578125, -0.585693359375, 0.086181640625
102, 597321982, -6.747028827667236, 1.844822645187378, 6.985834121704102, -2.4286856651306152, -1.3546428680419922, -2.2580411434173584, 1.106689453125, -0.584716796875, 0.087158203125
103, 597338649, -6.739952087402344, 1.8198704719543457, 7.028550624847412, -2.3615803718566895, -1.451497197151184, -2.2038445472717285, 1.108154296875, -0.586669921875, 0.085205078125
104, 597355316, -6.751230716705322, 1.8204220533370972, 6.990939617156982, -2.3603124618530273, -1.5015828609466553, -2.208582878112793, 1.109619140625, -0.587158203125, 0.086669921875
105, 597371983, -6.762514114379883, 1.8305608034133911, 6.996917724609375, -2.4018819332122803, -1.5603896379470825, -2.0335967540740967, 1.109619140625, -0.587890625, 0.085693359375
106, 597388650, -6.747741222381592, 1.826697587966919, 7.0031046867370605, -2.4018056392669678, -1.659267544746399, -2.1119978427886963, 1.109130859375, -0.587890625, 0.084228515625
107, 597405317, -6.729837417602539, 1.8225783109664917, 7.02432107925415, -2.344944953918457, -1.6809102296829224, -2.0412936210632324, 1.105712890625, -0.587890625, 0.086181640625
108, 597421984, -6.74261999130249, 1.8348722457885742, 7.024586200714111, -2.41129469871521, -1.6565526723861694, -1.964506983757019, 1.105712890625, -0.586669921875, 0.086181640625
109, 597438651, -6.73729133605957, 1.8353359699249268, 7.012698650360107, -2.3674585819244385, -1.6309398412704468, -2.0955798625946045, 1.107666015625, -0.585693359375, 0.085693359375
110, 597455318, -6.744017124176025, 1.847052812576294, 7.007699489593506, -2.406351327896118, -1.5884995460510254, -2.1422975063323975, 1.106201171875, -0.586669921875, 0.085693359375
111, 597471985, -6.742438793182373, 1.8310967683792114, 7.006645202636719, -2.388205051422119, -1.6101680994033813, -2.097053050994873, 1.109130859375, -0.586181640625, 0.086669921875
112, 597488652, -6.749361991882324, 1.8394216299057007, 7.010604381561279, -2.4611756801605225, -1.708815336227417, -2.219993829727173, 1.107666015625, -0.585693359375, 0.086181640625
113, 597505319, -6.7499518394470215, 1.8392367362976074, 7.0034332275390625, -2.4223976135253906, -1.6480748653411865, -2.224757432937622, 1.108154296875, -0.584716796875, 0.086669921875
114, 597521986, -6.735114097595215, 1.8318229913711548, 6.987105846405029, -2.4977757930755615, -1.6101549863815308, -2.272716999053955, 1.106689453125, -0.586181640625, 0.088134765625
115, 597538653, -6.734861850738525, 1.8201005458831787, 7.00162935256958, -2.464543342590332, -1.6783617734909058, -2.2362704277038574, 1.107177734375, -0.586181640625, 0.085693359375
116, 597555320, -6.732233047485352, 1.8220182657241821, 6.995570659637451, -2.4785666465759277, -1.5745408535003662, -2.1633896827697754, 1.108154296875, -0.586669921875, 0.086181640625
117, 597571987, -6.732115745544434, 1.8342628479003906, 6.994441986083984, -2.5297789573669434, -1.6639033555984497, -2.1834442615509033, 1.107666015625, -0.587158203125, 0.084228515625
118, 597588654, -6.74309778213501, 1.834302306175232, 6.993514537811279, -2.377998113632202, -1.724413275718689, -2.1918575763702393, 1.109619140625, -0.585693359375, 0.086181640625
119, 597605321, -6.738155364990234, 1.8325613737106323, 7.002279281616211, -2.436241626739502, -1.7774189710617065, -2.135394811630249, 1.107177734375, -0.586181640625, 0.085693359375
120, 597621988, -6.743615627288818, 1.8131622076034546, 7.000218391418457, -2.4933321475982666, -1.5929688215255737, -2.19863224029541, 1.107177734375, -0.586669921875, 0.086181640625
121, 597638655, -6.733069896697998, 1.8306344747543335, 7.009681701660156, -2.4997997283935547, -1.6189020872116089, -2.1922168731689453, 1.108154296875, -0.584228515625, 0.086669921875
122, 597655322, -6.749382972717285, 1.8047993183135986, 6.998341083526611, -2.441274881362915, -1.6903998851776123, -2.1526196002960205, 1.106689453125, -0.587158203125, 0.084716796875
123, 597671989, -6.747391223907471, 1.8224867582321167, 6.999511241912842, -2.4447391033172607, -1.5817452669143677, -2.1459333896636963, 1.108642578125, -0.585205078125, 0.084228515625
124, 597688656, -6.717331886291504, 1.8486778736114502, 7.0301337242126465, -2.411742925643921, -1.6095789670944214, -2.1618144512176514, 1.108154296875, -0.585693359375, 0.083984375
125, 597705323, -6.7405476570129395, 1.83323073387146, 7.008005619049072, -2.459933280944824, -1.539015769958496, -2.253418207168579, 1.107177734375, -0.586181640625, 0.088623046875
126, 597721990, -6.744767189025879, 1.8221137523651123, 7.011862754821777, -2.4744043350219727, -1.5372356176376343, -2.281745672225952, 1.107666015625, -0.586669921875, 0.084716796875
127, 597738657, -6.743833541870117, 1.8194810152053833, 6.998847484588623, -2.5216598510742188, -1.5276949405670166, -2.314926862716675, 1.108642578125, -0.584716796875, 0.086181640625
128, 597755324, -6.749344825744629, 1.8208674192428589, 7.003856658935547, -2.516012668609619, -1.5471992492675781, -2.2616653442382812, 1.106689453125, -0.586181640625, 0.084228515625
129, 597771991, -6.742639064788818, 1.8263225555419922, 7.003041744232178, -2.4059805870056152, -1.521279215812683, -2.1632745265960693, 1.110107421875, -0.586181640625, 0.086181640625
130, 597788658, -6.739259719848633, 1.8196680545806885, 7.002310276031494, -2.4328219890594482, -1.5901260375976562, -2.19069242477417, 1.110107421875, -0.585693359375, 0.085693359375
131, 597805325, -6.740344524383545, 1.8333673477172852, 7.0228166580200195, -2.3884356021881104, -1.6164687871932983, -2.126840353012085, 1.107666015625, -0.586181640625, 0.085693359375
132, 597821992, -6.731165885925293, 1.8299075365066528, 7.000950813293457, -2.3976564407348633, -1.7076115608215332, -2.1383275985717773, 1.107177734375, -0.584228515625, 0.085205078125
133, 597838659, -6.73158073425293, 1.8205780982971191, 7.015504837036133, -2.3602614402770996, -1.592098355293274, -2.167846202850342, 1.107177734375, -0.587890625, 0.084716796875
134, 597855326, -6.742862224578857, 1.8354331254959106, 6.995205879211426, -2.439391851425171, -1.4692596197128296, -2.204139232635498, 1.108154296875, -0.586181640625, 0.08349609375
135, 597871993, -6.7370805740356445, 1.8487210273742676, 7.002480983734131, -2.4464354515075684, -1.509446144104004, -2.241098403930664, 1.10986328125, -0.58740234375, 0.086181640625
136, 597888660, -6.740398406982422, 1.8243117332458496, 7.011630535125732, -2.4997353553771973, -1.5330991744995117, -2.3416664600372314, 1.108642578125, -0.585205078125, 0.086181640625
137, 597905327, -6.736540794372559, 1.8249878883361816, 7.007614612579346, -2.5074703693389893, -1.4743307828903198, -2.318589448928833, 1.107666015625, -0.585693359375, 0.087158203125
138, 597921994, -6.740081310272217, 1.8323707580566406, 7.010301113128662, -2.4642746448516846, -1.504438877105713, -2.2631380558013916, 1.106689453125, -0.586181640625, 0.087646484375
139, 597938661, -6.741888999938965, 1.8261878490447998, 7.008538246154785, -2.4022152423858643, -1.6313883066177368, -2.2112083435058594, 1.108154296875, -0.586181640625, 0.085693359375
140, 597955328, -6.745636940002441, 1.8320236206054688, 7.011369228363037, -2.474699020385742, -1.6227566003799438, -2.2031660079956055, 1.108154296875, -0.587158203125, 0.086669921875
141, 597971995, -6.7345147132873535, 1.827559471130371, 7.005996227264404, -2.544083833694458, -1.688773512840271, -2.200143814086914, 1.109130859375, -0.586181640625, 0.084716796875
142, 597988662, -6.732842445373535, 1.8205747604370117, 7.011678695678711, -2.4295310974121094, -1.650226354598999, -2.1851603984832764, 1.108642578125, -0.587158203125, 0.085205078125
143, 598005329, -6.739419460296631, 1.8169065713882446, 6.9874138832092285, -2.3198318481445312, -1.6040977239608765, -2.0803143978118896, 1.107177734375, -0.584716796875, 0.086181640625
144, 598021996, -6.751725673675537, 1.8147417306900024, 7.014136791229248, -2.2963449954986572, -1.6143813133239746, -2.089125633239746, 1.107177734375, -0.582763671875, 0.085205078125
145, 598038663, -6.726736068725586, 1.8225167989730835, 6.9827165603637695, -2.25687575340271, -1.5409752130508423, -2.1202704906463623, 1.107666015625, -0.583740234375, 0.086181640625
146, 598055330, -6.750073432922363, 1.8396414518356323, 6.997003078460693, -2.296588182449341, -1.7028602361679077, -2.125520944595337, 1.109130859375, -0.586181640625, 0.084228515625
147, 598071997, -6.739422798156738, 1.8264806270599365, 6.9983439445495605, -2.3340213298797607, -1.6899259090423584, -2.0513339042663574, 1.10986328125, -0.58837890625, 0.083251953125
148, 598088664, -6.7227983474731445, 1.821458339691162, 7.00632381439209, -2.217010021209717, -1.686058521270752, -1.9370758533477783, 1.106689453125, -0.585693359375, 0.086181640625
149, 598105331, -6.744800090789795, 1.8411463499069214, 7.000566005706787, -2.236705780029297, -1.6426961421966553, -1.8990920782089233, 1.108642578125, -0.583251953125, 0.084716796875
150, 598121998, -6.739784240722656, 1.8479646444320679, 7.035523414611816, -2.4078755378723145, -1.6324766874313354, -2.100907564163208, 1.106201171875, -0.586181640625, 0.085693359375
151, 598138665, -6.732909202575684, 1.839860200881958, 7.022004127502441, -2.408964157104492, -1.554537296295166, -2.19459867477417, 1.107666015625, -0.585693359375, 0.087646484375
152, 598155332, -6.73187780380249, 1.8271232843399048, 7.025727272033691, -2.3896777629852295, -1.5340087413787842, -2.258476734161377, 1.108154296875, -0.586181640625, 0.086181640625
153, 598171999, -6.748744964599609, 1.8230962753295898, 7.018038749694824, -2.3558177947998047, -1.534495234489441, -2.2206082344055176, 1.109619140625, -0.585205078125, 0.085693359375
154, 598188666, -6.745307445526123, 1.833459496498108, 7.008462905883789, -2.3583011627197266, -1.569887399673462, -2.1719160079956055, 1.110107421875, -0.586669921875, 0.087646484375
155, 598205333, -6.73975133895874, 1.8399690389633179, 7.005064487457275, -2.438188076019287, -1.6612907648086548, -2.1297855377197266, 1.106689453125, -0.585205078125, 0.085693359375
156, 598222000, -6.737380504608154, 1.8341894149780273, 7.017312049865723, -2.389357566833496, -1.6322332620620728, -2.223604917526245, 1.107666015625, -0.586181640625, 0.086181640625
157, 598238667, -6.733800888061523, 1.8325955867767334, 7.017978668212891, -2.4698712825775146, -1.5929819345474243, -2.240816593170166, 1.104736328125, -0.586181640625, 0.087158203125
158, 598255334, -6.72892951965332, 1.8167243003845215, 7.004387855529785, -2.457961320877075, -1.5980788469314575, -2.2639577388763428, 1.107177734375, -0.586669921875, 0.084716796875
159, 598272001, -6.732200622558594, 1.8351119756698608, 7.009142875671387, -2.482178211212158, -1.6836124658584595, -2.276456832885742, 1.107666015625, -0.587158203125, 0.086181640625
160, 598288668, -6.738338470458984, 1.832501769065857, 7.0112152099609375, -2.4894521236419678, -1.597643494606018, -2.2848196029663086, 1.107177734375, -0.584716796875, 0.08349609375
161, 598305335, -6.736940383911133, 1.8390518426895142, 6.994640827178955, -2.4654018878936768, -1.5616320371627808, -2.293783664703369, 1.106201171875, -0.585205078125, 0.086669921875
162, 598322002, -6.7521443367004395, 1.8183950185775757, 6.99580192565918, -2.495112419128418, -1.5834156274795532, -2.238422393798828, 1.107177734375, -0.585693359375, 0.084228515625
163, 598338669, -6.740392208099365, 1.8158565759658813, 7.004250526428223, -2.3987960815429688, -1.5490049123764038, -2.1524789333343506, 1.107177734375, -0.585205078125, 0.085205078125
164, 598355336, -6.723987579345703, 1.8434810638427734, 7.030810832977295, -2.3266189098358154, -1.6162253618240356, -2.111344575881958, 1.107666015625, -0.586181640625, 0.085205078125
165, 598372003, -6.745968341827393, 1.8345946073532104, 7.021571159362793, -2.4971487522125244, -1.5830700397491455, -2.273075819015503, 1.109619140625, -0.586181640625, 0.084228515625
166, 598388670, -6.737661838531494, 1.8396103382110596, 7.001547813415527, -2.4552717208862305, -1.5825831890106201, -2.3656017780303955, 1.108642578125, -0.586669921875, 0.086669921875
167, 598405337, -6.730340003967285, 1.8331043720245361, 7.026170253753662, -2.5778801441192627, -1.4843456745147705, -2.314990997314453, 1.108154296875, -0.584716796875, 0.086181640625
168, 598422004, -6.727824687957764, 1.8337613344192505, 7.020349025726318, -2.5805823802948, -1.4117850065231323, -2.3952102661132812, 1.106689453125, -0.584716796875, 0.086669921875
169, 598438671, -6.744096755981445, 1.8263670206069946, 7.02145528793335, -2.571835517883301, -1.424437403678894, -2.402496814727783, 1.107666015625, -0.586181640625, 0.084228515625
170, 598455338, -6.749947547912598, 1.8221700191497803, 7.02923583984375, -2.5096988677978516, -1.5443305969238281, -2.338439464569092, 1.106201171875, -0.584716796875, 0.085693359375
171, 598472005, -6.751246452331543, 1.8239498138427734, 7.023887634277344, -2.4580767154693604, -1.4838078022003174, -2.207789182662964, 1.109130859375, -0.586669921875, 0.083740234375
172, 598488672, -6.728670120239258, 1.8302943706512451, 7.02753210067749, -2.457756280899048, -1.530896782875061, -2.1687939167022705, 1.107666015625, -0.585205078125, 0.084716796875
173, 598505339, -6.752885341644287, 1.826775074005127, 7.014692306518555, -2.44740891456604, -1.6482030153274536, -2.3367745876312256, 1.108154296875, -0.586181640625, 0.085693359375
174, 598522006, -6.7452192306518555, 1.8248589038848877, 7.030141830444336, -2.4827544689178467, -1.5485566854476929, -2.34144926071167, 1.106201171875, -0.585205078125, 0.086669921875
175, 598538673, -6.731030464172363, 1.8250380754470825, 7.034008026123047, -2.443528175354004, -1.489058256149292, -2.292490243911743, 1.106689453125, -0.586181640625, 0.085693359375
176, 598555340, -6.728382587432861, 1.8099240064620972, 7.030925273895264, -2.4304535388946533, -1.37058687210083, -2.2272419929504395, 1.105712890625, -0.585693359375, 0.086669921875
177, 598572007, -6.732275485992432, 1.8146194219589233, 7.0133056640625, -2.506894111633301, -1.4122074842453003, -2.2979843616485596, 1.108154296875, -0.586181640625, 0.086181640625
178, 598588674, -6.749320983886719, 1.8247820138931274, 7.000746250152588, -2.4281864166259766, -1.3985430002212524, -2.2846016883850098, 1.108154296875, -0.586181640625, 0.086181640625
179, 598605341, -6.732964515686035, 1.8254058361053467, 7.032398700714111, -2.5507047176361084, -1.4070721864700317, -2.308856964111328, 1.109619140625, -0.586181640625, 0.084228515625
180, 598622008, -6.747691631317139, 1.8152523040771484, 7.010852336883545, -2.547759532928467, -1.397416114807129, -2.358839988708496, 1.106689453125, -0.58740234375, 0.085205078125
181, 598638675, -6.731795787811279, 1.8217294216156006, 6.996022701263428, -2.5422396659851074, -1.3842895030975342, -2.3791122436523438, 1.105224609375, -0.585205078125, 0.087646484375
182, 598655342, -6.736199855804443, 1.8228296041488647, 7.0139007568359375, -2.6090378761291504, -1.4390242099761963, -2.3788180351257324, 1.109130859375, -0.586181640625, 0.084716796875
183, 598672009, -6.73597526550293, 1.8171361684799194, 7.017029762268066, -2.5118629932403564, -1.4577466249465942, -2.400946855545044, 1.111328125, -0.585693359375, 0.085693359375
184, 598688676, -6.731226921081543, 1.8253616094589233, 7.018328666687012, -2.478285074234009, -1.4192508459091187, -2.3258893489837646, 1.107177734375, -0.587158203125, 0.086669921875
185, 598705343, -6.749033451080322, 1.8171372413635254, 7.011424541473389, -2.490553379058838, -1.4196350574493408, -2.2919654846191406, 1.108154296875, -0.587890625, 0.085693359375
186, 598722010, -6.739381313323975, 1.8239299058914185, 6.996453762054443, -2.535517930984497, -1.538167953491211, -2.3740780353546143, 1.107666015625, -0.584228515625, 0.085205078125
187, 598738677, -6.744020938873291, 1.8272954225540161, 7.004753589630127, -2.5492193698883057, -1.5171555280685425, -2.339848518371582, 1.106689453125, -0.585205078125, 0.086669921875
188, 598755344, -6.751862049102783, 1.8066366910934448, 7.022453784942627, -2.572091579437256, -1.521586537361145, -2.2795560359954834, 1.109619140625, -0.586669921875, 0.086181640625
189, 598772011, -6.746334075927734, 1.8330632448196411, 7.009411811828613, -2.4934089183807373, -1.5043106079101562, -2.309471368789673, 1.108154296875, -0.585693359375, 0.088623046875
190, 598788678, -6.740857124328613, 1.83380126953125, 7.010583877563477, -2.5046534538269043, -1.4680944681167603, -2.375770092010498, 1.109619140625, -0.585693359375, 0.086669921875
191, 598805345, -6.748405933380127, 1.828244924545288, 7.015859603881836, -2.4018824100494385, -1.3805630207061768, -2.289250373840332, 1.1103515625, -0.586181640625, 0.085693359375
192, 598822012, -6.761861801147461, 1.8057918548583984, 7.00612735748291, -2.526923418045044, -1.3619552850723267, -2.352680206298828, 1.106201171875, -0.582763671875, 0.087158203125
193, 598838679, -6.729420185089111, 1.8210914134979248, 7.005801200866699, -2.495483875274658, -1.3143670558929443, -2.3627843856811523, 1.110595703125, -0.584228515625, 0.085693359375
194, 598855346, -6.741451740264893, 1.8177316188812256, 6.98464298248291, -2.491142511367798, -1.3675260543823242, -2.305680751800537, 1.110595703125, -0.585693359375, 0.084716796875
195, 598872013, -6.73468542098999, 1.8026474714279175, 7.010410785675049, -2.476402521133423, -1.2510908842086792, -2.2794151306152344, 1.108642578125, -0.584228515625, 0.085693359375
196, 598888680, -6.729515075683594, 1.819914698600769, 7.019125938415527, -2.3679451942443848, -1.2311896085739136, -2.2319161891937256, 1.110107421875, -0.585205078125, 0.085693359375
197, 598905347, -6.7550740242004395, 1.8078912496566772, 7.01324987411499, -2.372389078140259, -1.1570920944213867, -2.2303922176361084, 1.109619140625, -0.584716796875, 0.084228515625
198, 598922014, -6.740339756011963, 1.8275787830352783, 6.996549606323242, -2.220006227493286, -1.080369234085083, -2.1771175861358643, 1.107177734375, -0.583740234375, 0.086181640625
199, 598938681, -6.749042510986328, 1.817737340927124, 7.018170356750488, -2.3009040355682373, -1.0871437788009644, -2.189744710922241, 1.106689453125, -0.583251953125, 0.087646484375
200, 598955348, -6.746396541595459, 1.7879542112350464, 7.022373676300049, -2.266108989715576, -1.0766682624816895, -2.2053046226501465, 1.108642578125, -0.586669921875, 0.08837890625
201, 598972015, -6.756743907928467, 1.8105065822601318, 6.99341344833374, -2.2378199100494385, -1.0230096578598022, -2.1201937198638916, 1.1103515625, -0.586181640625, 0.087890625
202, 598988682, -6.744747161865234, 1.841214656829834, 6.99167013168335, -2.21820068359375, -1.1629060506820679, -2.035210371017456, 1.108154296875, -0.586181640625, 0.086181640625
203, 599005349, -6.753207206726074, 1.8103020191192627, 6.993074417114258, -2.1878366470336914, -1.280622124671936, -2.0446105003356934, 1.107666015625, -0.586669921875, 0.087158203125
204, 599022016, -6.7746806144714355, 1.8164955377578735, 6.975228786468506, -2.2726528644561768, -1.4931306838989258, -2.0337250232696533, 1.106689453125, -0.584228515625, 0.087158203125
205, 599038683, -6.773207664489746, 1.8240071535110474, 7.0010247230529785, -2.1923575401306152, -1.5549983978271484, -2.024351119995117, 1.107177734375, -0.586181640625, 0.0888671875
206, 599055350, -6.767294406890869, 1.822945237159729, 7.0065178871154785, -2.3337268829345703, -1.8028267621994019, -2.091238498687744, 1.107177734375, -0.584716796875, 0.08935546875
207, 599072017, -6.759196758270264, 1.8328139781951904, 6.997478008270264, -2.356355667114258, -1.8116759061813354, -2.09724497795105, 1.109130859375, -0.586181640625, 0.085693359375
208, 599088684, -6.753973484039307, 1.836341381072998, 6.987133979797363, -2.378805160522461, -1.9792089462280273, -2.0529732704162598, 1.109619140625, -0.585693359375, 0.087646484375
209, 599105351, -6.734377384185791, 1.8197908401489258, 6.998038291931152, -2.4223721027374268, -1.8242131471633911, -2.1868889331817627, 1.108642578125, -0.585693359375, 0.085693359375
210, 599122018, -6.7394490242004395, 1.8315683603286743, 7.0004377365112305, -2.459805488586426, -1.8409898281097412, -2.131117582321167, 1.106201171875, -0.586181640625, 0.086181640625
211, 599138685, -6.7438740730285645, 1.8174201250076294, 6.999875545501709, -2.428147792816162, -1.7276279926300049, -2.185403823852539, 1.107666015625, -0.584716796875, 0.087646484375
212, 599155352, -6.739239692687988, 1.8097161054611206, 7.004950046539307, -2.2912096977233887, -1.670985221862793, -2.1548986434936523, 1.109130859375, -0.584228515625, 0.086181640625
213, 599172019, -6.74774694442749, 1.811619520187378, 6.998393535614014, -2.2716288566589355, -1.6270980834960938, -1.9815651178359985, 1.110107421875, -0.586669921875, 0.087158203125
214, 599188686, -6.75191068649292, 1.8450636863708496, 7.005864143371582, -2.213026762008667, -1.6510841846466064, -2.12208890914917, 1.1103515625, -0.586181640625, 0.087158203125
215, 599205353, -6.753231048583984, 1.7931249141693115, 6.992522716522217, -2.2432243824005127, -1.6441560983657837, -1.9938592910766602, 1.108154296875, -0.586181640625, 0.087646484375
216, 599222020, -6.757160663604736, 1.8295767307281494, 7.01509952545166, -2.081416130065918, -1.651506781578064, -1.739857792854309, 1.107666015625, -0.584228515625, 0.088134765625
217, 599238687, -6.7610979080200195, 1.864619255065918, 7.001600742340088, -2.100064277648926, -1.5422272682189941, -1.7984925508499146, 1.108154296875, -0.585693359375, 0.088134765625
218, 599255354, -6.7492265701293945, 1.845233678817749, 7.009049892425537, -2.301147222518921, -1.7117606401443481, -2.035646438598633, 1.108642578125, -0.586669921875, 0.085205078125
219, 599272021, -6.743572235107422, 1.8055579662322998, 6.997427940368652, -2.2445693016052246, -1.7726550102233887, -1.9960747957229614, 1.1103515625, -0.586181640625, 0.087158203125
220, 599288688, -6.742378234863281, 1.839704990386963, 7.035569190979004, -2.2181365489959717, -1.7397937774658203, -1.9105663299560547, 1.107177734375, -0.585693359375, 0.087646484375
221, 599305355, -6.7529096603393555, 1.8303414583206177, 7.015127182006836, -2.3436131477355957, -1.6223723888397217, -2.0175249576568604, 1.108154296875, -0.585693359375, 0.088134765625
222, 599322022, -6.754707336425781, 1.8517581224441528, 6.991267681121826, -2.290569543838501, -1.5677534341812134, -2.0925192832946777, 1.105712890625, -0.586181640625, 0.085205078125
223, 599338689, -6.747828006744385, 1.8511408567428589, 7.009693622589111, -2.3647053241729736, -1.4742156267166138, -2.1772713661193848, 1.107666015625, -0.585205078125, 0.086181640625
224, 599355356, -6.746023178100586, 1.8349162340164185, 6.998702526092529, -2.4589602947235107, -1.3648111820220947, -2.274766445159912, 1.108642578125, -0.586669921875, 0.088134765625
225, 599372023, -6.7607574462890625, 1.8380045890808105, 6.978621959686279, -2.4981088638305664, -1.5108802318572998, -2.353858232498169, 1.108154296875, -0.587158203125, 0.086669921875
226, 599388690, -6.757789134979248, 1.8309623003005981, 7.0088419914245605, -2.5799803733825684, -1.6378810405731201, -2.4004993438720703, 1.110107421875, -0.585693359375, 0.085205078125
227, 599405357, -6.755463123321533, 1.8233519792556763, 7.012007236480713, -2.4406981468200684, -1.678041696548462, -2.321535110473633, 1.109130859375, -0.585693359375, 0.087646484375
228, 599422024, -6.768413543701172, 1.8224153518676758, 6.9942779541015625, -2.458037853240967, -1.6458079814910889, -2.2701942920684814, 1.109130859375, -0.586669921875, 0.087646484375
229, 599438691, -6.745051860809326, 1.8269981145858765, 7.008718490600586, -2.384094476699829, -1.5970158576965332, -2.160982131958008, 1.108154296875, -0.585693359375, 0.085693359375
230, 599455358, -6.7439398765563965, 1.8326618671417236, 7.022708892822266, -2.2776477336883545, -1.522764801979065, -2.1328976154327393, 1.107666015625, -0.585205078125, 0.087158203125
231, 599472025, -6.748998641967773, 1.8675265312194824, 7.005187034606934, -2.3755524158477783, -1.465968370437622, -2.2345542907714844, 1.109130859375, -0.587890625, 0.087158203125
232, 599488692, -6.734922409057617, 1.832782506942749, 6.981348514556885, -2.373067855834961, -1.4462467432022095, -2.275688409805298, 1.109130859375, -0.585693359375, 0.086181640625
233, 599505359, -6.748625755310059, 1.8232280015945435, 7.015364646911621, -2.346123218536377, -1.3918068408966064, -2.283909797668457, 1.107177734375, -0.586669921875, 0.088134765625
234, 599522026, -6.763399600982666, 1.8373799324035645, 7.015837669372559, -2.3234047889709473, -1.272208333015442, -2.3260810375213623, 1.106689453125, -0.586181640625, 0.086181640625
235, 599538693, -6.742363452911377, 1.8384020328521729, 6.996147632598877, -2.3940958976745605, -1.1578861474990845, -2.4038031101226807, 1.108154296875, -0.586669921875, 0.088134765625
236, 599555360, -6.769119739532471, 1.8284679651260376, 7.011279582977295, -2.34379243850708, -1.1223613023757935, -2.275188684463501, 1.109130859375, -0.586669921875, 0.086181640625
237, 599572027, -6.760374069213867, 1.8421721458435059, 7.003186225891113, -2.366971969604492, -1.2901756763458252, -2.1969549655914307, 1.109130859375, -0.587158203125, 0.085693359375
238, 599588694, -6.758749485015869, 1.8277883529663086, 7.0031280517578125, -2.319178819656372, -1.2873455286026, -2.2224268913269043, 1.108642578125, -0.585693359375, 0.087646484375
239, 599605361, -6.76688814163208, 1.8195655345916748, 7.0184245109558105, -2.3926100730895996, -1.463842511177063, -2.2057783603668213, 1.108154296875, -0.586181640625, 0.088623046875
240, 599622028, -6.756138324737549, 1.8063868284225464, 7.014059543609619, -2.4138433933258057, -1.5641803741455078, -2.1908464431762695, 1.105224609375, -0.586669921875, 0.087158203125
241, 599638695, -6.75016450881958, 1.8143771886825562, 6.998161792755127, -2.333752393722534, -1.5292062759399414, -2.045225143432617, 1.108642578125, -0.586669921875, 0.086181640625
242, 599655362, -6.745217800140381, 1.8188711404800415, 6.995908260345459, -2.2491791248321533, -1.6976991891860962, -1.939995527267456, 1.108642578125, -0.586181640625, 0.085693359375
243, 599672029, -6.752350807189941, 1.8233453035354614, 7.017789840698242, -2.2053301334381104, -1.6422606706619263, -1.8560115098953247, 1.109619140625, -0.586181640625, 0.086181640625
244, 599688696, -6.748536109924316, 1.8369429111480713, 6.9945855140686035, -2.2193403244018555, -1.6684751510620117, -1.8682414293289185, 1.1103515625, -0.585693359375, 0.087646484375
245, 599705363, -6.743289470672607, 1.8520251512527466, 6.998413562774658, -2.269503116607666, -1.76325523853302, -1.9948581457138062, 1.108154296875, -0.585693359375, 0.087158203125
246, 599722030, -6.736064910888672, 1.8377630710601807, 6.981812953948975, -2.2635092735290527, -1.7549052238464355, -2.0410757064819336, 1.108154296875, -0.584228515625, 0.087646484375
247, 599738697, -6.750346660614014, 1.827467679977417, 7.009867191314697, -2.3306915760040283, -1.6551822423934937, -2.0470950603485107, 1.108154296875, -0.585205078125, 0.087646484375
248, 599755364, -6.744415760040283, 1.8317840099334717, 6.994166374206543, -2.363809108734131, -1.7513452768325806, -2.0973217487335205, 1.109130859375, -0.587890625, 0.084228515625
249, 599772031, -6.75555419921875, 1.837101936340332, 7.005756378173828, -2.4808509349823, -1.7372052669525146, -2.1728639602661133, 1.1103515625, -0.587890625, 0.086669921875
250, 599788698, -6.757938385009766, 1.830867886543274, 6.964165687561035, -2.480961561203003, -1.8352396488189697, -2.13474178314209, 1.108642578125, -0.586181640625, 0.087158203125
251, 599805365, -6.760056018829346, 1.8314553499221802, 6.996817111968994, -2.436049699783325, -1.8697911500930786, -2.138878345489502, 1.109619140625, -0.586669921875, 0.086669921875
252, 599822032, -6.758823394775391, 1.8251731395721436, 7.013802528381348, -2.395991086959839, -1.8703162670135498, -1.9629186391830444, 1.107666015625, -0.584716796875, 0.088134765625
253, 599838699, -6.747278213500977, 1.8484463691711426, 7.0215067863464355, -2.3653457164764404, -1.8558448553085327, -2.0275654792785645, 1.106689453125, -0.586181640625, 0.087158203125
254, 599855366, -6.748412132263184, 1.849084734916687, 7.013762474060059, -2.429774522781372, -1.7741533517837524, -2.0780482292175293, 1.108154296875, -0.586181640625, 0.088134765625
255, 599872033, -6.739968776702881, 1.8330715894699097, 7.007600784301758, -2.3288347721099854, -1.7916595935821533, -1.9953573942184448, 1.108642578125, -0.587158203125, 0.086181640625
256, 599888700, -6.742511749267578, 1.8459603786468506, 7.0117106437683105, -2.447242259979248, -1.7753700017929077, -2.0447518825531006, 1.108154296875, -0.583251953125, 0.086181640625
257, 599905367, -6.738339900970459, 1.8406120538711548, 7.00521993637085, -2.5634217262268066, -1.8607115745544434, -2.052704334259033, 1.108642578125, -0.586181640625, 0.085693359375
258, 599922034, -6.741505146026611, 1.8470195531845093, 7.009560585021973, -2.5526771545410156, -1.8891674280166626, -2.217855215072632, 1.105712890625, -0.58740234375, 0.087158203125
259, 599938701, -6.7368035316467285, 1.852471947669983, 7.01305627822876, -2.5889322757720947, -1.9354623556137085, -2.2033584117889404, 1.106689453125, -0.586181640625, 0.085693359375
260, 599955368, -6.743239402770996, 1.8223507404327393, 7.028878211975098, -2.5962445735931396, -1.7600538730621338, -2.24225115776062, 1.110595703125, -0.584228515625, 0.085693359375
261, 599972035, -6.742452621459961, 1.8297489881515503, 6.993971347808838, -2.6722118854522705, -1.6763770580291748, -2.3279130458831787, 1.109619140625, -0.585693359375, 0.083740234375
262, 599988702, -6.739051342010498, 1.846878170967102, 6.996180057525635, -2.5372841358184814, -1.7952072620391846, -2.2082505226135254, 1.110107421875, -0.586669921875, 0.084716796875
263, 600005369, -6.740890026092529, 1.8334925174713135, 7.012038707733154, -2.516319751739502, -1.7315210103988647, -2.221543073654175, 1.108154296875, -0.586669921875, 0.087646484375
264, 600022036, -6.745339870452881, 1.8343411684036255, 7.009756565093994, -2.4782466888427734, -1.6292752027511597, -2.2291758060455322, 1.106689453125, -0.585693359375, 0.087646484375
265, 600038703, -6.732675552368164, 1.843507170677185, 7.006519794464111, -2.520366907119751, -1.8167988061904907, -2.3205366134643555, 1.108154296875, -0.586669921875, 0.087646484375
266, 600055370, -6.741053581237793, 1.83108389377594, 7.006845951080322, -2.473201036453247, -1.618044137954712, -2.3036959171295166, 1.106689453125, -0.585693359375, 0.084716796875
267, 600072037, -6.72559928894043, 1.839675784111023, 7.028254985809326, -2.4140865802764893, -1.5302692651748657, -2.223656177520752, 1.108154296875, -0.587158203125, 0.087158203125
268, 600088704, -6.7395830154418945, 1.8261339664459229, 7.00353479385376, -2.405109167098999, -1.3477529287338257, -2.284550189971924, 1.109130859375, -0.587158203125, 0.085693359375
269, 600105371, -6.7328267097473145, 1.853278636932373, 7.008423328399658, -2.492128849029541, -1.4534952640533447, -2.3124301433563232, 1.106689453125, -0.58740234375, 0.084716796875
270, 600122038, -6.753822326660156, 1.8261103630065918, 7.004837989807129, -2.517472267150879, -1.4546477794647217, -2.334469795227051, 1.107177734375, -0.586181640625, 0.085205078125
271, 600138705, -6.750126838684082, 1.820716381072998, 6.994258403778076, -2.494215965270996, -1.4494612216949463, -2.305617094039917, 1.106689453125, -0.584716796875, 0.087646484375
272, 600155372, -6.729966163635254, 1.8381364345550537, 7.009688377380371, -2.5524981021881104, -1.6249210834503174, -2.3452913761138916, 1.110107421875, -0.586669921875, 0.085205078125
273, 600172039, -6.733604431152344, 1.8097649812698364, 7.023411750793457, -2.626992702484131, -1.7156286239624023, -2.3285279273986816, 1.108642578125, -0.587158203125, 0.085693359375
274, 600188706, -6.750599384307861, 1.8258270025253296, 6.988499641418457, -2.5469143390655518, -1.6837021112442017, -2.1272499561309814, 1.107666015625, -0.585693359375, 0.086669921875
275, 600205373, -6.752027988433838, 1.8200894594192505, 7.003600120544434, -2.5054726600646973, -1.7352089881896973, -2.131424903869629, 1.107666015625, -0.585205078125, 0.085205078125
276, 600222040, -6.757116794586182, 1.8223625421524048, 7.012101650238037, -2.459587812423706, -1.8140963315963745, -2.1044676303863525, 1.107177734375, -0.585693359375, 0.086669921875
277, 600238707, -6.7368927001953125, 1.8240293264389038, 7.010255336761475, -2.431016445159912, -1.8491472005844116, -1.935269832611084, 1.108154296875, -0.584228515625, 0.088134765625
278, 600255374, -6.746575832366943, 1.8425005674362183, 7.012781620025635, -2.3469173908233643, -1.8539752960205078, -2.037426233291626, 1.105224609375, -0.585205078125, 0.086669921875
279, 600272041, -6.7481255531311035, 1.8365665674209595, 6.988494873046875, -2.45393967628479, -1.7763687372207642, -1.943888545036316, 1.106201171875, -0.585205078125, 0.086669921875
280, 600288708, -6.7437028884887695, 1.8577147722244263, 7.01401948928833, -2.4565589427948, -1.8535438776016235, -2.0163543224334717, 1.108642578125, -0.587158203125, 0.087158203125
281, 600305375, -6.739475727081299, 1.8446673154830933, 7.024242401123047, -2.644742012023926, -1.8716868162155151, -2.2601547241210938, 1.109130859375, -0.586669921875, 0.085205078125
282, 600322042, -6.746844291687012, 1.8381553888320923, 7.018423080444336, -2.5396788120269775, -1.8653218746185303, -2.165182590484619, 1.105712890625, -0.584228515625, 0.08349609375
283, 600338709, -6.742495059967041, 1.8539704084396362, 7.0250043869018555, -2.5459535121917725, -1.7443913221359253, -2.214691638946533, 1.106689453125, -0.585693359375, 0.084716796875
284, 600355376, -6.740240097045898, 1.842022180557251, 7.0142412185668945, -2.587164878845215, -1.8076550960540771, -2.22342586517334, 1.106689453125, -0.587158203125, 0.085693359375
285, 600372043, -6.743710041046143, 1.804813265800476, 7.011163234710693, -2.3977203369140625, -1.7731928825378418, -2.0006721019744873, 1.108642578125, -0.585205078125, 0.085693359375
286, 600388710, -6.737926959991455, 1.8513635396957397, 7.007143497467041, -2.4235761165618896, -1.9804763793945312, -1.9647117853164673, 1.107666015625, -0.58740234375, 0.084228515625
287, 600405377, -6.729809284210205, 1.8556323051452637, 7.036052227020264, -2.6007652282714844, -2.0985641479492188, -2.2419822216033936, 1.106201171875, -0.586181640625, 0.08447265625
288, 600422044, -6.74546480178833, 1.8365284204483032, 7.0375871658325195, -2.699065923690796, -1.9307235479354858, -2.4985952377319336, 1.107666015625, -0.584716796875, 0.086181640625
289, 600438711, -6.723753929138184, 1.8191285133361816, 7.0171098709106445, -2.8501553535461426, -1.6966875791549683, -2.5389227867126465, 1.107177734375, -0.584716796875, 0.085205078125
290, 600455378, -6.74068021774292, 1.828636646270752, 7.000009536743164, -2.7043302059173584, -1.5594677925109863, -2.5678656101226807, 1.106689453125, -0.586181640625, 0.08349609375
291, 600472045, -6.73248815536499, 1.8547149896621704, 7.016547679901123, -2.7971887588500977, -1.454750418663025, -2.5790839195251465, 1.107666015625, -0.587158203125, 0.085693359375
292, 600488712, -6.739579677581787, 1.8230876922607422, 7.000796794891357, -2.8228776454925537, -1.520164966583252, -2.6361868381500244, 1.108642578125, -0.585205078125, 0.083740234375
293, 600505379, -6.736386299133301, 1.8337730169296265, 7.026492118835449, -2.7623424530029297, -1.3261998891830444, -2.6872847080230713, 1.107666015625, -0.586181640625, 0.085693359375
294, 600522046, -6.744956970214844, 1.8142985105514526, 7.003471851348877, -2.7664151191711426, -1.2732588052749634, -2.6906912326812744, 1.106201171875, -0.583740234375, 0.085693359375
295, 600538713, -6.736654281616211, 1.8223994970321655, 7.029212951660156, -2.7686941623687744, -1.2369909286499023, -2.803194522857666, 1.106689453125, -0.585205078125, 0.085205078125
296, 600555380, -6.738490581512451, 1.8048346042633057, 7.0136566162109375, -2.712052345275879, -1.2653058767318726, -2.693124532699585, 1.108642578125, -0.585205078125, 0.084228515625
297, 600572047, -6.746064186096191, 1.808057188987732, 7.039096355438232, -2.5466835498809814, -1.126241683959961, -2.4909632205963135, 1.108642578125, -0.585693359375, 0.086181640625
298, 600588714, -6.740206241607666, 1.792699933052063, 7.006716251373291, -2.412562608718872, -0.8216170072555542, -2.33740234375, 1.108642578125, -0.583740234375, 0.084228515625
299, 600605381, -6.732753276824951, 1.8398728370666504, 6.988894462585449, -2.503974437713623, -1.052310585975647, -2.4412617683410645, 1.107177734375, -0.583740234375, 0.087646484375
300, 600622048, -6.740065097808838, 1.8268409967422485, 7.020681858062744, -2.5565574169158936, -0.9418174624443054, -2.5239782333374023, 1.105712890625, -0.584228515625, 0.086181640625
301, 600638715, -6.735726356506348, 1.824142575263977, 7.025848865509033, -2.4962780475616455, -0.7670363783836365, -2.458998441696167, 1.107666015625, -0.585205078125, 0.085205078125
302, 600655382, -6.732738494873047, 1.8139654397964478, 7.000428199768066, -2.4381368160247803, -0.7518735527992249, -2.4603941440582275, 1.110595703125, -0.584228515625, 0.084716796875
303, 600672049, -6.734328269958496, 1.8108514547348022, 7.021190643310547, -2.4887733459472656, -0.7986040115356445, -2.504729986190796, 1.109619140625, -0.582763671875, 0.084228515625
304, 600688716, -6.745105743408203, 1.7836650609970093, 7.0315470695495605, -2.593080759048462, -0.6766234636306763, -2.417646646499634, 1.108642578125, -0.584228515625, 0.087158203125
305, 600705383, -6.7525482177734375, 1.7953938245773315, 6.992743968963623, -2.4666051864624023, -0.6706812977790833, -2.296421766281128, 1.109619140625, -0.583251953125, 0.088623046875
306, 600722050, -6.772446155548096, 1.834201455116272, 6.984778881072998, -2.403162717819214, -0.8464868664741516, -2.3400402069091797, 1.107177734375, -0.583740234375, 0.089111328125
307, 600738717, -6.750006198883057, 1.8228380680084229, 7.004637718200684, -2.375910758972168, -1.1652880907058716, -2.2990341186523438, 1.108154296875, -0.584716796875, 0.086669921875
308, 600755384, -6.764891624450684, 1.815182089805603, 6.992828845977783, -2.4936654567718506, -1.4450429677963257, -2.268401622772217, 1.109619140625, -0.584716796875, 0.087646484375
309, 600772051, -6.753377914428711, 1.7622300386428833, 6.988873481750488, -2.651081085205078, -1.735670566558838, -2.287611484527588, 1.108154296875, -0.585693359375, 0.088134765625
310, 600788718, -6.754464626312256, 1.7570490837097168, 6.982717514038086, -2.553535223007202, -2.146498203277588, -2.0140035152435303, 1.108154296875, -0.582275390625, 0.085693359375
311, 600805385, -6.74311637878418, 1.812239170074463, 6.981141567230225, -2.1902825832366943, -2.1202831268310547, -1.6297744512557983, 1.106689453125, -0.583251953125, 0.085205078125
312, 600822052, -6.737072944641113, 1.7770200967788696, 6.983401298522949, -1.434916615486145, -1.776326298713684, -0.9711496829986572, 1.108154296875, -0.583251953125, 0.087646484375
313, 600838719, -6.748229026794434, 1.8519747257232666, 7.000744819641113, -0.9429188370704651, -1.3367140293121338, -0.8487151265144348, 1.107666015625, -0.585205078125, 0.087158203125
314, 600855386, -6.754010200500488, 1.8548669815063477, 7.005464553833008, -1.355987548828125, -1.2808398008346558, -1.197150468826294, 1.108642578125, -0.583740234375, 0.086669921875
315, 600872053, -6.749241352081299, 1.83798086643219, 6.995637893676758, -1.6216553449630737, -1.3313097953796387, -1.649649977684021, 1.109619140625, -0.587890625, 0.086669921875
316, 600888720, -6.779815196990967, 1.7738680839538574, 6.979342937469482, -1.8194622993469238, -1.4569272994995117, -1.564833641052246, 1.108154296875, -0.585693359375, 0.087158203125
317, 600905387, -6.75070858001709, 1.80224609375, 6.982715606689453, -1.4206211566925049, -1.5980916023254395, -1.1576555967330933, 1.108642578125, -0.587890625, 0.086181640625
318, 600922054, -6.76420783996582, 1.867584228515625, 7.005877494812012, -1.5927001237869263, -1.9628931283950806, -1.050415277481079, 1.106689453125, -0.587890625, 0.087646484375
319, 600938721, -6.736571311950684, 1.8773845434188843, 6.987000465393066, -2.0939152240753174, -2.2834489345550537, -1.4973057508468628, 1.108642578125, -0.587158203125, 0.085693359375
320, 600955388, -6.744610786437988, 1.8454668521881104, 7.019260883331299, -2.4405834674835205, -2.3219196796417236, -1.968285083770752, 1.108642578125, -0.58837890625, 0.087158203125
321, 600972055, -6.731740951538086, 1.8421354293823242, 7.0104804039001465, -2.8342504501342773, -2.301711082458496, -2.4021894931793213, 1.108642578125, -0.586669921875, 0.086669921875
322, 600988722, -6.744504451751709, 1.8517110347747803, 7.000045299530029, -3.100801706314087, -2.2894299030303955, -2.592210531234741, 1.109619140625, -0.586669921875, 0.085205078125
323, 601005389, -6.7435431480407715, 1.8431576490402222, 7.006100654602051, -3.0801196098327637, -2.189655303955078, -2.6411945819854736, 1.106201171875, -0.586181640625, 0.084716796875
324, 601022056, -6.72910737991333, 1.8092494010925293, 7.0206618309021, -3.047642707824707, -2.0680975914001465, -2.5892906188964844, 1.107177734375, -0.585693359375, 0.0830078125
325, 601038723, -6.7439446449279785, 1.8288925886154175, 6.984036445617676, -3.0849344730377197, -1.768364667892456, -2.6891028881073, 1.107666015625, -0.584716796875, 0.087646484375
326, 601055390, -6.746664047241211, 1.8225175142288208, 7.025966644287109, -2.945486068725586, -1.445785641670227, -2.6049907207489014, 1.107177734375, -0.587158203125, 0.086669921875
327, 601072057, -6.739307880401611, 1.78776216506958, 7.016963481903076, -2.7431843280792236, -0.649563729763031, -2.4299156665802, 1.108642578125, -0.585693359375, 0.085693359375
328, 601088724, -6.738888263702393, 1.8405669927597046, 7.011069297790527, -2.69242000579834, -0.40835607051849365, -2.381904363632202, 1.108154296875, -0.585693359375, 0.084716796875
329, 601105391, -6.728610038757324, 1.8107329607009888, 7.019317626953125, -2.7564518451690674, -0.065491683781147, -2.4681038856506348, 1.109130859375, -0.585205078125, 0.086669921875
330, 601122058, -6.7480363845825195, 1.7994650602340698, 7.008603572845459, -2.6891541481018066, 0.538026750087738, -2.6186680793762207, 1.108154296875, -0.585693359375, 0.088623046875
331, 601138725, -6.735450744628906, 1.8548998832702637, 6.94708776473999, -3.353804349899292, 0.4566168785095215, -3.1359810829162598, 1.109619140625, -0.586181640625, 0.088134765625
332, 601155392, -6.738375663757324, 1.9180647134780884, 6.984246253967285, -3.579528570175171, 0.8868718147277832, -3.8852806091308594, 1.109619140625, -0.584716796875, 0.086669921875
333, 601172059, -6.696322441101074, 1.713176965713501, 7.052646160125732, -2.9791035652160645, 4.4446563720703125, -4.477036952972412, 1.111328125, -0.584228515625, 0.087646484375
334, 601188726, -6.679816722869873, 1.5297207832336426, 7.053328514099121, -0.25491052865982056, 12.140304565429688, -3.885141372680664, 1.11279296875, -0.585205078125, 0.092041015625
335, 601205393, -6.663229465484619, 1.4155946969985962, 7.106980800628662, 4.546998023986816, 21.191476821899414, -2.17999005317688, 1.11474609375, -0.585205078125, 0.09912109375
336, 601222060, -6.10989236831665, 1.6780790090560913, 7.788364410400391, 9.785110473632812, 33.76347732543945, -1.1737325191497803, 1.117431640625, -0.585205078125, 0.1044921875
337, 601238727, -5.8254194259643555, 0.44283100962638855, 8.438989639282227, 18.0284423828125, 64.013427734375, 6.074204921722412, 1.123046875, -0.5888671875, 0.119384765625
338, 601255394, -0.7094017267227173, 0.8980534672737122, 15.298530578613281, -67.25768280029297, 104.18697357177734, 39.71788024902344, 1.135986328125, -0.595458984375, 0.140869140625
339, 601272061, 2.6331703662872314, -10.78405475616455, 25.59046173095703, -124.58668518066406, 115.10618591308594, 94.21744537353516, 1.1484375, -0.601806640625, 0.1689453125
340, 601288728, 5.852895259857178, -14.425556182861328, 33.10590362548828, -113.62503051757812, 47.04307556152344, 68.03739929199219, 1.154296875, -0.612060546875, 0.186279296875
341, 601305395, -0.9853209257125854, -22.903757095336914, 38.85709762573242, -5.270890712738037, -51.598838806152344, -12.481987953186035, 1.146728515625, -0.6142578125, 0.180419921875
342, 601322062, -4.13053035736084, -16.208335876464844, 39.20035171508789, 75.5846939086914, -207.88308715820312, -96.82763671875, 1.130615234375, -0.608154296875, 0.140869140625
343, 601338729, -4.3301544189453125, -14.542608261108398, 33.37053298950195, 79.69091033935547, -303.13824462890625, -162.4384765625, 1.10205078125, -0.58935546875, 0.07275390625
344, 601355396, -9.088471412658691, -10.247745513916016, 28.635665893554688, 78.06307220458984, -334.3805847167969, -181.2311553955078, 1.061767578125, -0.567626953125, -0.00341796875
345, 601372063, -12.707870483398438, -5.444796085357666, 25.643659591674805, 44.57448959350586, -332.9435119628906, -178.34437561035156, 1.01123046875, -0.544677734375, -0.0771484375
346, 601388730, -15.130261421203613, -3.419774055480957, 23.17146110534668, 14.139267921447754, -321.2167053222656, -176.11827087402344, 0.954833984375, -0.516845703125, -0.1474609375
347, 601405397, -16.62046241760254, -1.0797215700149536, 21.25433349609375, 16.004621505737305, -310.2454528808594, -175.40878295898438, 0.89111328125, -0.494140625, -0.208740234375
348, 601422064, -18.61856460571289, 2.2815961837768555, 20.50520133972168, 26.36344337463379, -304.0426025390625, -158.55674743652344, 0.822265625, -0.4775390625, -0.26123046875
349, 601438731, -19.277624130249023, 5.389902591705322, 18.607046127319336, 17.012678146362305, -315.6656799316406, -125.62262725830078, 0.746826171875, -0.465576171875, -0.311767578125
350, 601455398, -17.919214248657227, 6.581158638000488, 14.998725891113281, -9.75670051574707, -315.719970703125, -99.23783111572266, 0.665771484375, -0.45458984375, -0.3525390625
351, 601472065, -18.7496280670166, 6.862153053283691, 11.008254051208496, -18.990854263305664, -298.9487609863281, -82.01788330078125, 0.5849609375, -0.442138671875, -0.382568359375
352, 601488732, -19.995800018310547, 8.06078815460205, 6.748819351196289, -6.60430908203125, -277.8259582519531, -68.13854217529297, 0.504150390625, -0.434814453125, -0.403076171875
353, 601505399, -22.4698543548584, 9.663238525390625, 0.5512261390686035, 1.526563048362732, -245.46853637695312, -65.62061309814453, 0.428955078125, -0.432861328125, -0.413330078125
354, 601522066, -30.107481002807617, 4.436774730682373, -8.128662109375, 41.81267166137695, -214.1691436767578, -66.96591186523438, 0.36474609375, -0.4404296875, -0.420654296875
355, 601538733, -34.66219711303711, -0.36052241921424866, -22.058298110961914, 142.04861450195312, -220.50204467773438, -41.315155029296875, 0.302001953125, -0.472900390625, -0.42578125
356, 601555400, -27.519886016845703, 2.8635597229003906, -34.22533416748047, 116.70584869384766, -144.7955780029297, -47.7777214050293, 0.25341796875, -0.512451171875, -0.42822265625
357, 601572067, -25.279266357421875, 4.442336082458496, -32.45241928100586, -2.2325985431671143, 2.7301695346832275, -83.42182922363281, 0.242431640625, -0.52001953125, -0.430419921875
358, 601588734, -23.4591007232666, 6.6460065841674805, -24.5177059173584, -26.646841049194336, 89.99104309082031, -47.97669982910156, 0.26171875, -0.513916015625, -0.427734375
359, 601605401, -20.002656936645508, 10.210318565368652, -18.04918670654297, -44.85900115966797, 154.69883728027344, 16.51416778564453, 0.2978515625, -0.504150390625, -0.428466796875
360, 601622068, -21.121370315551758, 9.687848091125488, -12.144145965576172, -95.1526870727539, 208.39088439941406, 70.80050659179688, 0.354248046875, -0.48388671875, -0.422607421875
361, 601638735, -22.782686233520508, 6.468446254730225, -7.897310256958008, -109.79449462890625, 234.13856506347656, 100.93280029296875, 0.420166015625, -0.4560546875, -0.41650390625
362, 601655402, -21.974008560180664, 3.313246965408325, -4.463571548461914, -70.0974349975586, 252.72036743164062, 92.6374740600586, 0.495361328125, -0.436279296875, -0.40283203125
363, 601672069, -21.481454849243164, 2.823362350463867, 0.5217598676681519, -14.61478328704834, 269.9810485839844, 60.891841888427734, 0.571044921875, -0.435546875, -0.38330078125
364, 601688736, -21.812747955322266, 3.859018087387085, 6.100403785705566, 26.132465362548828, 276.673583984375, 36.341094970703125, 0.645751953125, -0.445556640625, -0.35546875
365, 601705403, -22.205087661743164, 5.1786885261535645, 9.883801460266113, 44.510650634765625, 273.911376953125, 25.449121475219727, 0.716552734375, -0.4599609375, -0.321533203125
366, 601722070, -21.319915771484375, 2.7846715450286865, 12.304553985595703, 59.92287063598633, 279.5628662109375, 24.108413696289062, 0.785888671875, -0.4755859375, -0.281494140625
367, 601738737, -18.919355392456055, 2.65750789642334, 16.167112350463867, 83.7362289428711, 306.6477355957031, 22.050121307373047, 0.851806640625, -0.495849609375, -0.232666015625
368, 601755404, -18.126432418823242, 4.258635520935059, 22.54011344909668, 61.6187629699707, 340.2408447265625, 31.896665573120117, 0.921142578125, -0.514404296875, -0.17041015625
369, 601772071, -17.225889205932617, 4.586549758911133, 30.083261489868164, 2.4007208347320557, 352.8815002441406, 62.0938720703125, 0.984619140625, -0.52490234375, -0.096923828125
370, 601788738, -11.522270202636719, 5.122488975524902, 35.113285064697266, -87.98214721679688, 323.55609130859375, 80.41516876220703, 1.0390625, -0.52783203125, -0.02392578125
371, 601805405, 1.3299318552017212, 0.824216365814209, 36.24688720703125, -127.9952621459961, 266.9848937988281, 94.95892333984375, 1.078857421875, -0.52392578125, 0.040771484375
372, 601822072, 4.971779823303223, -7.045279026031494, 36.776432037353516, -9.292359352111816, 193.27584838867188, 155.64283752441406, 1.10302734375, -0.5458984375, 0.09228515625
373, 601838739, 4.971436500549316, -6.932849407196045, 33.87289047241211, 42.3363151550293, 121.712158203125, 152.23912048339844, 1.119384765625, -0.586669921875, 0.121337890625
374, 601855406, 2.716417074203491, -10.74044132232666, 28.429920196533203, 4.485321521759033, 74.02298736572266, 93.33615112304688, 1.130615234375, -0.607666015625, 0.1435546875
375, 601872073, -4.598018646240234, -4.181281566619873, 28.424074172973633, -71.23973846435547, 30.313251495361328, -7.3257927894592285, 1.13623046875, -0.611083984375, 0.154296875
376, 601888740, -0.6360718011856079, -15.206217765808105, 29.319822311401367, -144.4371795654297, -61.44171142578125, -58.24819564819336, 1.13525390625, -0.574951171875, 0.137451171875
377, 601905407, 5.598369121551514, -12.755019187927246, 26.658370971679688, -46.23075485229492, -138.88214111328125, -79.4283447265625, 1.118896484375, -0.55078125, 0.1044921875
378, 601922074, -5.918075084686279, -2.7152552604675293, 7.224623203277588, -33.01271438598633, -28.287189483642578, -17.021100997924805, 1.111572265625, -0.540771484375, 0.094970703125
379, 601938741, -8.580963134765625, 0.3186070919036865, 6.373014450073242, 12.104142189025879, -21.764354705810547, 32.93387222290039, 1.108642578125, -0.54638671875, 0.09033203125
380, 601955408, -6.485556125640869, 4.10136079788208, 7.360661029815674, 16.781984329223633, -2.9950449466705322, 27.762893676757812, 1.109619140625, -0.55615234375, 0.087890625
381, 601972075, -7.086550712585449, 3.417898654937744, 6.648463249206543, 7.878056526184082, 0.8929938077926636, 12.684704780578613, 1.11083984375, -0.561279296875, 0.087646484375
382, 601988742, -7.032474517822266, 3.417400360107422, 6.649959564208984, -2.7167651653289795, -5.013110160827637, 0.17690052092075348, 1.10888671875, -0.565673828125, 0.089111328125
383, 602005409, -6.946795463562012, 2.3640077114105225, 6.738237380981445, -11.897294044494629, -11.803667068481445, -10.723090171813965, 1.1083984375, -0.56103515625, 0.088134765625
384, 602022076, -6.8423991203308105, 1.0567151308059692, 6.952482223510742, -11.21621322631836, -12.432523727416992, -10.235847473144531, 1.106201171875, -0.55859375, 0.084228515625
385, 602038743, -6.745744705200195, 0.9584619402885437, 7.274710655212402, -2.242725133895874, -5.550093173980713, -1.702681064605713, 1.106201171875, -0.556640625, 0.081298828125
386, 602055410, -6.813514709472656, 1.476892352104187, 7.080006122589111, 3.953289270401001, -0.6650850772857666, 4.963044166564941, 1.106201171875, -0.55810546875, 0.081787109375
387, 602072077, -6.877675533294678, 1.860731840133667, 6.919027328491211, 6.013178825378418, 0.03704237937927246, 7.275475025177002, 1.106689453125, -0.561279296875, 0.081787109375
388, 602088744, -6.878818511962891, 2.120340585708618, 6.858429908752441, 4.726997375488281, -0.6577854752540588, 5.66388463973999, 1.104736328125, -0.565185546875, 0.0849609375
389, 602105411, -6.8608527183532715, 2.2052948474884033, 6.83003568649292, 1.2947412729263306, -1.635755181312561, 2.045590400695801, 1.105224609375, -0.56591796875, 0.082275390625
390, 602122078, -6.7936530113220215, 2.0515737533569336, 6.87605094909668, -1.6696147918701172, -2.4647226333618164, -1.1318250894546509, 1.104736328125, -0.56640625, 0.083740234375
391, 602138745, -6.858230113983154, 1.8670406341552734, 6.885579586029053, -2.9169023036956787, -2.2950384616851807, -2.4251387119293213, 1.103759765625, -0.5673828125, 0.083251953125
392, 602155412, -6.893462181091309, 1.870192050933838, 6.937188148498535, -2.804961681365967, -2.075960397720337, -2.4166221618652344, 1.105712890625, -0.56591796875, 0.082763671875
393, 602172079, -6.893370628356934, 1.8917498588562012, 6.893939018249512, -2.873028039932251, -2.226166248321533, -2.6542060375213623, 1.10595703125, -0.568359375, 0.08447265625
394, 602188746, -6.892303466796875, 1.8244575262069702, 6.918181419372559, -2.9531826972961426, -2.79323148727417, -2.7260236740112305, 1.1064453125, -0.568359375, 0.0830078125
395, 602205413, -6.866940021514893, 1.8761181831359863, 6.896657466888428, -3.6648447513580322, -3.906820058822632, -2.9789621829986572, 1.106201171875, -0.565185546875, 0.080810546875
396, 602222080, -6.848716735839844, 1.8708527088165283, 6.875825881958008, -4.465050220489502, -5.186726093292236, -3.1725430488586426, 1.105224609375, -0.565673828125, 0.082275390625
397, 602238747, -6.821939945220947, 1.8896516561508179, 6.951119422912598, -3.808199405670166, -5.016593933105469, -2.4947028160095215, 1.104248046875, -0.568359375, 0.078125
398, 602255414, -6.790275573730469, 1.8101271390914917, 6.935685634613037, -3.1382088661193848, -4.8877482414245605, -1.5139155387878418, 1.104736328125, -0.56689453125, 0.079833984375
399, 602272081, -6.719222545623779, 1.9003336429595947, 6.961480617523193, -2.9539003372192383, -4.412735939025879, -1.1707183122634888, 1.104736328125, -0.56640625, 0.0771484375
400, 602288748, -6.7308478355407715, 1.827935814857483, 6.942494869232178, -3.328665018081665, -4.293393135070801, -1.2832987308502197, 1.104736328125, -0.568359375, 0.07861328125
401, 602305415, -6.714984893798828, 1.9106627702713013, 6.9578938484191895, -3.269896984100342, -4.024011611938477, -1.201722264289856, 1.104248046875, -0.565673828125, 0.0791015625
402, 602322082, -6.707207202911377, 1.933797001838684, 6.970126152038574, -3.0169713497161865, -3.184248208999634, -1.394790768623352, 1.1015625, -0.564697265625, 0.078125
403, 602338749, -6.750434875488281, 1.8913075923919678, 7.005528450012207, -2.5957705974578857, -2.6291184425354004, -1.4277801513671875, 1.103271484375, -0.56640625, 0.0771484375
404, 602355416, -6.751379013061523, 1.8746708631515503, 6.936654090881348, -1.9761863946914673, -2.581913709640503, -0.971579372882843, 1.102783203125, -0.56689453125, 0.07568359375
405, 602372083, -6.709475517272949, 1.9710447788238525, 6.967541217803955, -2.025695562362671, -2.6433589458465576, -1.1517646312713623, 1.105712890625, -0.5693359375, 0.07421875
406, 602388750, -6.727852821350098, 1.9366434812545776, 6.942989826202393, -2.2322304248809814, -2.437939405441284, -1.7195591926574707, 1.105224609375, -0.56591796875, 0.076171875
407, 602405417, -6.72189998626709, 1.9549669027328491, 6.9614763259887695, -2.513707399368286, -2.111844301223755, -2.299969434738159, 1.10009765625, -0.5654296875, 0.076171875
408, 602422084, -6.72984504699707, 1.9606508016586304, 6.976160526275635, -3.20993709564209, -2.6040046215057373, -2.8164875507354736, 1.10107421875, -0.56591796875, 0.07861328125
409, 602438751, -6.738468647003174, 1.9091469049453735, 6.9518537521362305, -3.0451836585998535, -2.5716562271118164, -2.7056362628936768, 1.09912109375, -0.56787109375, 0.075927734375
410, 602455418, -6.745789527893066, 1.9040398597717285, 6.956665515899658, -2.474494218826294, -2.504025459289551, -2.424856662750244, 1.101806640625, -0.56640625, 0.073974609375
411, 602472085, -6.742654323577881, 1.927409291267395, 6.993711471557617, -2.514719009399414, -2.3237509727478027, -2.587599992752075, 1.101806640625, -0.56689453125, 0.07568359375
412, 602488752, -6.7493977546691895, 1.8718477487564087, 6.994548320770264, -2.7004878520965576, -2.104083299636841, -2.748985528945923, 1.102294921875, -0.56640625, 0.073974609375
413, 602505419, -6.746328353881836, 1.8722513914108276, 6.970866680145264, -2.3863096237182617, -2.1160061359405518, -2.543750762939453, 1.1005859375, -0.564697265625, 0.074462890625
414, 602522086, -6.767377853393555, 1.8344805240631104, 6.982112407684326, -1.2256317138671875, -1.3960202932357788, -1.7085846662521362, 1.1015625, -0.56591796875, 0.074951171875
415, 602538753, -6.7608256340026855, 1.8706302642822266, 7.024884223937988, -0.48281219601631165, -1.3848018646240234, -1.0217547416687012, 1.099609375, -0.5673828125, 0.07666015625
416, 602555420, -6.754129409790039, 1.9176877737045288, 6.957302570343018, -0.7241349816322327, -1.60610830783844, -1.108312726020813, 1.10107421875, -0.5673828125, 0.07568359375
417, 602572087, -6.738603115081787, 1.9315478801727295, 6.971163749694824, -1.0323327779769897, -1.6948052644729614, -1.1816291809082031, 1.102294921875, -0.56640625, 0.073974609375
418, 602588754, -6.747786998748779, 1.9232107400894165, 6.995285987854004, -1.578062653541565, -1.8671658039093018, -1.5601849555969238, 1.1015625, -0.56591796875, 0.074462890625
419, 602605421, -6.752391815185547, 1.9029479026794434, 6.9956536293029785, -2.1895782947540283, -1.9664149284362793, -1.991989254951477, 1.099609375, -0.56689453125, 0.074951171875
420, 602622088, -6.746427059173584, 1.8766064643859863, 7.000499725341797, -1.9207217693328857, -1.6773372888565063, -1.9185065031051636, 1.09912109375, -0.56884765625, 0.072509765625
421, 602638755, -6.766189098358154, 1.8541476726531982, 6.987635612487793, -0.5257518291473389, -0.9562628865242004, -1.0633752346038818, 1.101318359375, -0.56787109375, 0.0751953125
422, 602655422, -6.756543159484863, 1.924870252609253, 6.986909866333008, -0.4661768078804016, -0.8638778924942017, -0.7073586583137512, 1.101806640625, -0.5693359375, 0.074462890625
423, 602672089, -6.7432169914245605, 1.926837682723999, 6.964762210845947, -0.4702107310295105, -0.9804542660713196, -0.6491410732269287, 1.103271484375, -0.57080078125, 0.07421875
424, 602688756, -6.758674621582031, 1.8911232948303223, 6.95124626159668, 0.1819077879190445, -0.6779425740242004, -0.037855569273233414, 1.101806640625, -0.571044921875, 0.074462890625
425, 602705423, -6.741201400756836, 1.9435867071151733, 6.988126754760742, 0.030818480998277664, -0.9853717684745789, 0.0540107786655426, 1.102294921875, -0.572509765625, 0.073486328125
426, 602722090, -6.752743244171143, 1.9322974681854248, 6.981030464172363, 0.39961573481559753, -0.77496337890625, 0.2180345058441162, 1.0986328125, -0.56982421875, 0.073486328125
427, 602738757, -6.741318225860596, 2.006833076477051, 6.958868503570557, 0.06373079866170883, -0.8635193109512329, -0.07687652111053467, 1.100830078125, -0.574951171875, 0.0751953125
428, 602755424, -6.728326797485352, 2.0113863945007324, 6.945403575897217, -1.0037872791290283, -1.4675050973892212, -0.7576236128807068, 1.104248046875, -0.573974609375, 0.07421875
429, 602772091, -6.730525016784668, 2.001181125640869, 6.964726448059082, -1.6032524108886719, -1.6810638904571533, -1.2475433349609375, 1.101806640625, -0.575927734375, 0.07568359375
430, 602788758, -6.7331156730651855, 1.9939460754394531, 6.979767799377441, -1.554076075553894, -1.4948723316192627, -1.339249610900879, 1.10302734375, -0.5771484375, 0.07470703125
431, 602805425, -6.748905658721924, 1.958827257156372, 6.970913887023926, -1.118801236152649, -1.2122361660003662, -0.9007985591888428, 1.100830078125, -0.576171875, 0.07568359375
432, 602822092, -6.7405619621276855, 1.9899191856384277, 6.977809429168701, -1.2093676328659058, -1.0546923875808716, -1.0187450647354126, 1.101806640625, -0.574951171875, 0.0771484375
433, 602838759, -6.755032539367676, 1.9751108884811401, 6.955310821533203, -0.1522931009531021, -0.5441033244132996, -0.32238703966140747, 1.102783203125, -0.576171875, 0.07568359375
434, 602855426, -6.7620930671691895, 2.0101397037506104, 6.953437805175781, 0.24531203508377075, -0.23607225716114044, 0.024953173473477364, 1.101318359375, -0.5771484375, 0.07568359375
435, 602872093, -6.773279190063477, 2.008229970932007, 6.93745231628418, 0.11906703561544418, -0.303676962852478, -0.09041282534599304, 1.10400390625, -0.580078125, 0.076904296875
436, 602888760, -6.756163597106934, 2.0192911624908447, 6.9107346534729, -0.11275990307331085, -0.5683585405349731, -0.04279882088303566, 1.10546875, -0.57763671875, 0.077880859375
437, 602905427, -6.763855934143066, 2.0386669635772705, 6.931844711303711, -0.19048164784908295, -0.685165286064148, -0.15165279805660248, 1.100830078125, -0.581787109375, 0.078857421875
438, 602922094, -6.761141777038574, 2.0693235397338867, 6.9395527839660645, -0.598456084728241, -0.897978663444519, -0.5682348012924194, 1.101806640625, -0.580078125, 0.0771484375
439, 602938761, -6.7616705894470215, 2.057723045349121, 6.908155918121338, -1.2172304391860962, -1.1151511669158936, -1.0229454040527344, 1.10400390625, -0.5810546875, 0.078369140625
440, 602955428, -6.750290393829346, 2.1064016819000244, 6.910803318023682, -1.967772364616394, -1.39808189868927, -1.7893414497375488, 1.103515625, -0.58154296875, 0.077392578125
441, 602972095, -6.757956027984619, 2.065826177597046, 6.909558296203613, -2.2867271900177, -1.513697624206543, -2.254878044128418, 1.10595703125, -0.58056640625, 0.078369140625
442, 602988762, -6.763362884521484, 2.041487693786621, 6.939871311187744, -2.3282837867736816, -1.7104672193527222, -2.237576723098755, 1.103515625, -0.57958984375, 0.078369140625
443, 603005429, -6.756440162658691, 2.031404495239258, 6.937669277191162, -2.3640902042388916, -1.8334211111068726, -2.1635942459106445, 1.1005859375, -0.583251953125, 0.078369140625
444, 603022096, -6.761828422546387, 2.0460572242736816, 6.934288024902344, -2.0471718311309814, -1.7160253524780273, -1.995587944984436, 1.099853515625, -0.580078125, 0.07568359375
445, 603038763, -6.762653350830078, 2.0456197261810303, 6.932828903198242, -1.7658933401107788, -1.6650816202163696, -1.736297845840454, 1.1015625, -0.581787109375, 0.077880859375
446, 603055430, -6.751001834869385, 2.0515174865722656, 6.951098918914795, -1.696354627609253, -1.5109186172485352, -1.5854644775390625, 1.10107421875, -0.581787109375, 0.078369140625
447, 603072097, -6.7606329917907715, 2.054654121398926, 6.951655387878418, -1.6276229619979858, -1.4112725257873535, -1.4340293407440186, 1.1044921875, -0.58154296875, 0.077392578125
448, 603088764, -6.747312068939209, 2.0555968284606934, 6.925593376159668, -1.0152491331100464, -1.099745273590088, -0.9875617027282715, 1.103515625, -0.581787109375, 0.076171875
449, 603105431, -6.7394328117370605, 2.0835211277008057, 6.932974815368652, -1.3987864255905151, -1.1742013692855835, -1.1799386739730835, 1.10400390625, -0.584228515625, 0.076904296875
450, 603122098, -6.740933895111084, 2.101278781890869, 6.919974327087402, -1.915241003036499, -1.346229076385498, -1.571608066558838, 1.10205078125, -0.583740234375, 0.076904296875
451, 603138765, -6.742628574371338, 2.10947322845459, 6.921919822692871, -2.530278444290161, -1.4654433727264404, -2.21378231048584, 1.10205078125, -0.583740234375, 0.081298828125
452, 603155432, -6.751591682434082, 2.08019757270813, 6.929886341094971, -2.9010226726531982, -1.5629254579544067, -2.488645076751709, 1.1015625, -0.581787109375, 0.079833984375
453, 603172099, -6.744626522064209, 2.0563385486602783, 6.906290531158447, -2.8776252269744873, -1.5501574277877808, -2.5234529972076416, 1.10400390625, -0.584228515625, 0.076416015625
454, 603188766, -6.743442535400391, 2.05338191986084, 6.942638874053955, -2.5106592178344727, -1.3829832077026367, -2.174441337585449, 1.103515625, -0.58056640625, 0.07666015625
455, 603205433, -6.755213737487793, 2.0541036128997803, 6.924544811248779, -2.1808061599731445, -1.1190701723098755, -1.803646206855774, 1.1015625, -0.582763671875, 0.078369140625
456, 603222100, -6.770613193511963, 2.070688009262085, 6.940074443817139, -2.325005292892456, -1.145540714263916, -2.094977617263794, 1.10302734375, -0.58056640625, 0.078369140625
457, 603238767, -6.758588790893555, 2.101994037628174, 6.927247524261475, -2.452364921569824, -1.355577826499939, -2.3449838161468506, 1.1015625, -0.581298828125, 0.079345703125
458, 603255434, -6.740786075592041, 2.0937082767486572, 6.926441669464111, -2.8247478008270264, -1.60551917552948, -2.579698324203491, 1.10400390625, -0.582763671875, 0.079833984375
459, 603272101, -6.7542853355407715, 2.101797580718994, 6.920221328735352, -3.1519241333007812, -1.5737849473953247, -2.8052053451538086, 1.10498046875, -0.584228515625, 0.078857421875
460, 603288768, -6.754026889801025, 2.072505474090576, 6.924498081207275, -3.352100372314453, -1.691475510597229, -3.0530595779418945, 1.10400390625, -0.583740234375, 0.077880859375
461, 603305435, -6.745509147644043, 2.089974880218506, 6.902041912078857, -3.784327745437622, -1.893892765045166, -3.3388593196868896, 1.10205078125, -0.583251953125, 0.079345703125
462, 603322102, -6.746579170227051, 2.0980420112609863, 6.906138896942139, -4.354747772216797, -2.118323564529419, -3.7883615493774414, 1.10400390625, -0.581787109375, 0.078857421875
463, 603338769, -6.7484588623046875, 2.089428424835205, 6.922077655792236, -4.687726020812988, -2.4551055431365967, -4.2161455154418945, 1.10302734375, -0.57958984375, 0.079345703125
464, 603355436, -6.760387420654297, 2.038522958755493, 6.940134525299072, -5.185290813446045, -2.5210964679718018, -4.478303909301758, 1.101318359375, -0.581298828125, 0.076171875
465, 603372103, -6.76371431350708, 2.007434844970703, 6.9370503425598145, -5.3262763023376465, -2.4736618995666504, -4.46560001373291, 1.10302734375, -0.580078125, 0.077880859375
466, 603388770, -6.768848419189453, 2.0134942531585693, 6.945470333099365, -5.362608432769775, -2.366037368774414, -4.313396453857422, 1.103515625, -0.5771484375, 0.076171875
467, 603405437, -6.766726016998291, 2.0014026165008545, 6.9754815101623535, -5.169129371643066, -2.44357967376709, -4.266473770141602, 1.100830078125, -0.57666015625, 0.078125
468, 603422104, -6.751023292541504, 1.9727860689163208, 6.957813262939453, -4.941983699798584, -2.3533976078033447, -4.030478477478027, 1.101806640625, -0.57763671875, 0.078857421875
469, 603438771, -6.764146327972412, 1.937029480934143, 6.924582004547119, -4.450528621673584, -2.2656147480010986, -3.6492319107055664, 1.101318359375, -0.575439453125, 0.07666015625
470, 603455438, -6.756189346313477, 1.9681072235107422, 6.942646503448486, -3.8932206630706787, -2.0942866802215576, -3.1095614433288574, 1.101318359375, -0.574951171875, 0.07666015625
471, 603472105, -6.766545295715332, 1.97757887840271, 6.94155216217041, -3.31437349319458, -1.8958522081375122, -2.6942641735076904, 1.10498046875, -0.574951171875, 0.07470703125
472, 603488772, -6.744654178619385, 1.971315860748291, 6.961832523345947, -2.5559942722320557, -1.5650259256362915, -2.408247470855713, 1.101806640625, -0.575439453125, 0.076171875
473, 603505439, -6.745616912841797, 1.98207426071167, 6.970541954040527, -2.142002820968628, -1.2963099479675293, -2.115058183670044, 1.099853515625, -0.57666015625, 0.076171875
474, 603522106, -6.754452705383301, 1.9843558073043823, 6.942388534545898, -2.1086676120758057, -1.2737706899642944, -2.0960919857025146, 1.102294921875, -0.575439453125, 0.0771484375
475, 603538773, -6.769562244415283, 1.9924755096435547, 6.953107833862305, -2.3156440258026123, -1.3560386896133423, -2.167346477508545, 1.101806640625, -0.574951171875, 0.07666015625
476, 603555440, -6.757723808288574, 1.9927533864974976, 6.921993732452393, -2.6841981410980225, -1.6006016731262207, -2.3361854553222656, 1.102294921875, -0.574951171875, 0.07763671875
477, 603572107, -6.7502288818359375, 1.9829230308532715, 6.938920021057129, -2.898768424987793, -1.7049860954284668, -2.563741445541382, 1.103759765625, -0.572998046875, 0.07421875
478, 603588774, -6.759483337402344, 1.9900537729263306, 6.9565958976745605, -3.071603298187256, -1.7349019050598145, -2.746040105819702, 1.102783203125, -0.574462890625, 0.07666015625
479, 603605441, -6.75480842590332, 1.9759857654571533, 6.955198764801025, -3.1501448154449463, -1.7156027555465698, -2.822455883026123, 1.102294921875, -0.572509765625, 0.073486328125
480, 603622108, -6.759213447570801, 1.9725656509399414, 6.9423933029174805, -3.225382089614868, -1.8012773990631104, -2.823134422302246, 1.100341796875, -0.572509765625, 0.07763671875
481, 603638775, -6.753146171569824, 1.9700417518615723, 6.9448065757751465, -3.3255789279937744, -1.9117194414138794, -2.8375799655914307, 1.100830078125, -0.573974609375, 0.0751953125
482, 603655442, -6.749800205230713, 1.9652836322784424, 6.985045909881592, -3.361090898513794, -1.858137607574463, -2.811403751373291, 1.103759765625, -0.573974609375, 0.078125
483, 603672109, -6.751441478729248, 1.9868353605270386, 6.964382648468018, -3.5429279804229736, -1.864540696144104, -2.9343574047088623, 1.102783203125, -0.572021484375, 0.076171875
484, 603688776, -6.7398247718811035, 1.962607741355896, 6.971102714538574, -3.639411687850952, -1.9139862060546875, -3.022273063659668, 1.102294921875, -0.574951171875, 0.07470703125
485, 603705443, -6.753291130065918, 1.9548956155776978, 6.965098857879639, -3.830225944519043, -1.939316987991333, -3.1380040645599365, 1.104248046875, -0.571533203125, 0.07470703125
486, 603722110, -6.753588676452637, 1.9335122108459473, 6.962912082672119, -3.8505752086639404, -1.9098621606826782, -3.2132670879364014, 1.101318359375, -0.572509765625, 0.07470703125
487, 603738777, -6.749179840087891, 1.953092336654663, 6.946331024169922, -4.093114852905273, -2.0620274543762207, -3.27936053276062, 1.100341796875, -0.56982421875, 0.0751953125
488, 603755444, -6.754354953765869, 1.9746397733688354, 6.963737487792969, -4.323603630065918, -2.2461955547332764, -3.544337272644043, 1.099609375, -0.5703125, 0.072021484375
489, 603772111, -6.7548136711120605, 1.9134587049484253, 6.971312046051025, -4.23529052734375, -2.2576444149017334, -3.478179454803467, 1.10498046875, -0.571533203125, 0.0751953125
490, 603788778, -6.755863189697266, 1.9041330814361572, 6.9836249351501465, -4.123119354248047, -2.2130651473999023, -3.3941948413848877, 1.101806640625, -0.56982421875, 0.074462890625
491, 603805445, -6.755577564239502, 1.9178009033203125, 6.9555559158325195, -4.218655109405518, -2.388064384460449, -3.441450595855713, 1.099609375, -0.5693359375, 0.072509765625
492, 603822112, -6.740327835083008, 1.9267452955245972, 6.9761152267456055, -4.216862201690674, -2.5598230361938477, -3.485299587249756, 1.099609375, -0.568359375, 0.074462890625
493, 603838779, -6.728935718536377, 1.915187954902649, 6.991574764251709, -4.116690635681152, -2.392021417617798, -3.477936029434204, 1.10009765625, -0.568359375, 0.073974609375
494, 603855446, -6.737082004547119, 1.8697829246520996, 6.980742454528809, -3.9069998264312744, -2.323699474334717, -3.279412031173706, 1.103271484375, -0.56689453125, 0.07568359375
495, 603872113, -6.74745512008667, 1.8740875720977783, 6.982699871063232, -3.3018746376037598, -2.069262981414795, -2.8180503845214844, 1.101318359375, -0.56640625, 0.074462890625
496, 603888780, -6.737502574920654, 1.8931955099105835, 6.997572422027588, -3.0633175373077393, -1.8377753496170044, -2.585627794265747, 1.101318359375, -0.56689453125, 0.072021484375
497, 603905447, -6.734023571014404, 1.8857274055480957, 6.988840579986572, -2.928697109222412, -1.811509370803833, -2.4680142402648926, 1.1005859375, -0.565185546875, 0.073974609375
498, 603922114, -6.731412410736084, 1.8840457201004028, 7.000097751617432, -2.681368112564087, -1.6979939937591553, -2.2215943336486816, 1.09814453125, -0.56689453125, 0.073486328125
499, 603938781, -6.739259719848633, 1.8842828273773193, 6.9697418212890625, -2.682994842529297, -1.6721253395080566, -2.2818355560302734, 1.101806640625, -0.56884765625, 0.073974609375
500, 603955448, -6.738839149475098, 1.8828341960906982, 6.987828254699707, -2.6743178367614746, -1.724194884300232, -2.288651943206787, 1.1005859375, -0.56591796875, 0.072509765625
501, 603972115, -6.726643085479736, 1.887748122215271, 6.9971604347229, -2.711770534515381, -1.698416829109192, -2.2941296100616455, 1.1015625, -0.56640625, 0.071044921875
502, 603988782, -6.748219966888428, 1.8895180225372314, 6.995398044586182, -2.6427958011627197, -1.7317644357681274, -2.3700459003448486, 1.1015625, -0.5654296875, 0.071533203125
503, 604005449, -6.756013870239258, 1.8890726566314697, 6.975638389587402, -2.6048760414123535, -1.623294711112976, -2.316784143447876, 1.10009765625, -0.56640625, 0.074951171875
504, 604022116, -6.749327659606934, 1.8822165727615356, 6.997528553009033, -2.610959053039551, -1.6893115043640137, -2.338017225265503, 1.09814453125, -0.56591796875, 0.074462890625
505, 604038783, -6.733152389526367, 1.879307746887207, 6.999148368835449, -2.637327194213867, -1.7583376169204712, -2.312980890274048, 1.09912109375, -0.5673828125, 0.072509765625
506, 604055450, -6.7527265548706055, 1.889012098312378, 6.977764129638672, -2.615773916244507, -1.6770299673080444, -2.238678216934204, 1.101806640625, -0.56884765625, 0.0751953125
507, 604072117, -6.7277398109436035, 1.8759726285934448, 6.9955620765686035, -2.651017427444458, -1.6482287645339966, -2.2835135459899902, 1.10107421875, -0.56640625, 0.073974609375
508, 604088784, -6.735714912414551, 1.8831013441085815, 6.9909987449646, -2.67050838470459, -1.5495429039001465, -2.2537128925323486, 1.09912109375, -0.5654296875, 0.073486328125
509, 604105451, -6.740868091583252, 1.8903013467788696, 6.993934631347656, -2.645817995071411, -1.5543453693389893, -2.3559460639953613, 1.10009765625, -0.5654296875, 0.073974609375
510, 604122118, -6.734560012817383, 1.871622085571289, 6.989955902099609, -2.5721681118011475, -1.6027147769927979, -2.3239428997039795, 1.101806640625, -0.5654296875, 0.072021484375
511, 604138785, -6.7325334548950195, 1.8833768367767334, 7.000770568847656, -2.526385545730591, -1.6079140901565552, -2.2471816539764404, 1.09912109375, -0.5654296875, 0.073974609375
512, 604155452, -6.74287223815918, 1.8839271068572998, 7.003209114074707, -2.512529134750366, -1.5414619445800781, -2.174825668334961, 1.099609375, -0.56640625, 0.073486328125
513, 604172119, -6.745665550231934, 1.898543119430542, 6.993262767791748, -2.529458999633789, -1.671843409538269, -2.205317735671997, 1.10107421875, -0.56640625, 0.072509765625
514, 604188786, -6.734131336212158, 1.904098629951477, 6.995623588562012, -2.6090633869171143, -1.7343000173568726, -2.2576956748962402, 1.101806640625, -0.5673828125, 0.072998046875
515, 604205453, -6.734597206115723, 1.873505711555481, 7.009094715118408, -2.6286063194274902, -1.6175190210342407, -2.2942450046539307, 1.101318359375, -0.56689453125, 0.072998046875
516, 604222120, -6.738687038421631, 1.8761101961135864, 6.9917683601379395, -2.444232702255249, -1.6077989339828491, -2.2697463035583496, 1.09912109375, -0.568359375, 0.073974609375
517, 604238787, -6.743180274963379, 1.8824321031570435, 6.990179061889648, -2.4686801433563232, -1.5617600679397583, -2.2271652221679688, 1.09912109375, -0.564697265625, 0.072998046875
518, 604255454, -6.743678092956543, 1.8792917728424072, 6.996126174926758, -2.623931646347046, -1.6809360980987549, -2.328847885131836, 1.1005859375, -0.56591796875, 0.0703125
519, 604272121, -6.743360996246338, 1.8691308498382568, 6.992546558380127, -2.6281068325042725, -1.6661192178726196, -2.329718589782715, 1.10107421875, -0.5673828125, 0.073486328125
520, 604288788, -6.742578029632568, 1.8763129711151123, 6.9666523933410645, -2.487236499786377, -1.6515580415725708, -2.235502243041992, 1.102783203125, -0.56591796875, 0.071533203125
521, 604305455, -6.7318925857543945, 1.8875665664672852, 6.984755992889404, -2.476607322692871, -1.650687336921692, -2.2482831478118896, 1.10009765625, -0.5654296875, 0.073486328125
522, 604322122, -6.738432884216309, 1.8738058805465698, 6.992049217224121, -2.3363263607025146, -1.629006266593933, -2.1401588916778564, 1.09912109375, -0.5654296875, 0.073486328125
523, 604338789, -6.733344554901123, 1.874659538269043, 6.999730587005615, -2.2952563762664795, -1.598616600036621, -2.14113187789917, 1.09765625, -0.56591796875, 0.074951171875
524, 604355456, -6.744283676147461, 1.8637866973876953, 6.994655132293701, -2.2593605518341064, -1.6502007246017456, -2.0699799060821533, 1.101806640625, -0.5654296875, 0.074951171875
525, 604372123, -6.739242076873779, 1.8714852333068848, 7.015565395355225, -2.2765209674835205, -1.603944182395935, -1.9762887954711914, 1.1005859375, -0.5673828125, 0.072021484375
526, 604388790, -6.7407917976379395, 1.9025897979736328, 6.9989705085754395, -2.1125223636627197, -1.5684961080551147, -1.84031081199646, 1.1005859375, -0.56689453125, 0.072021484375
527, 604405457, -6.723804950714111, 1.8930307626724243, 6.983372688293457, -2.076664686203003, -1.4831033945083618, -1.9083510637283325, 1.09912109375, -0.5654296875, 0.071533203125
528, 604422124, -6.748816967010498, 1.8792093992233276, 7.012785911560059, -2.2090439796447754, -1.5438308715820312, -1.9948065280914307, 1.09912109375, -0.5654296875, 0.074951171875
529, 604438791, -6.72311544418335, 1.8906331062316895, 6.99915885925293, -2.077842950820923, -1.5222266912460327, -1.924512505531311, 1.099609375, -0.5673828125, 0.072998046875
530, 604455458, -6.745443344116211, 1.8820949792861938, 7.0130462646484375, -2.0852067470550537, -1.4104785919189453, -1.8372631072998047, 1.102294921875, -0.5673828125, 0.073486328125
531, 604472125, -6.730611801147461, 1.887777328491211, 7.0026373863220215, -2.1500964164733887, -1.5290396213531494, -1.8817267417907715, 1.103271484375, -0.5673828125, 0.073974609375
532, 604488792, -6.736876010894775, 1.8790243864059448, 6.993078708648682, -2.076092481613159, -1.4791855812072754, -1.8124127388000488, 1.101806640625, -0.565185546875, 0.073486328125
533, 604505459, -6.740218639373779, 1.887295126914978, 6.997403621673584, -1.9502663612365723, -1.443070888519287, -1.7407928705215454, 1.09912109375, -0.56787109375, 0.074951171875
534, 604522126, -6.743464469909668, 1.899896502494812, 6.9969162940979, -1.9795160293579102, -1.4647903442382812, -1.7753700017929077, 1.099609375, -0.56787109375, 0.072509765625
535, 604538793, -6.747194290161133, 1.8779120445251465, 6.979915142059326, -1.8295793533325195, -1.2902910709381104, -1.5686498880386353, 1.099609375, -0.5673828125, 0.072021484375
536, 604555460, -6.743345260620117, 1.8833285570144653, 6.9804277420043945, -1.5998461246490479, -1.1652114391326904, -1.4400484561920166, 1.103271484375, -0.56787109375, 0.073486328125
537, 604572127, -6.737139701843262, 1.903166651725769, 6.993167400360107, -1.657500147819519, -1.3136624097824097, -1.4519838094711304, 1.102783203125, -0.568359375, 0.073486328125
538, 604588794, -6.729754447937012, 1.9128581285476685, 7.000359058380127, -1.7687745094299316, -1.4232337474822998, -1.491196870803833, 1.100830078125, -0.56787109375, 0.074462890625
539, 604605461, -6.741476058959961, 1.892737865447998, 7.007643222808838, -1.726001501083374, -1.4742286205291748, -1.4095693826675415, 1.099609375, -0.56884765625, 0.073974609375
540, 604622128, -6.740739345550537, 1.9253040552139282, 6.977014541625977, -1.8386203050613403, -1.479312539100647, -1.594928503036499, 1.10009765625, -0.568359375, 0.074462890625
541, 604638795, -6.745821952819824, 1.9112564325332642, 6.994271278381348, -2.024261713027954, -1.6286476850509644, -1.7193037271499634, 1.099609375, -0.56689453125, 0.073974609375
542, 604655462, -6.743286609649658, 1.8911378383636475, 6.986730575561523, -2.0113015174865723, -1.612575650215149, -1.7502825260162354, 1.09716796875, -0.568359375, 0.073486328125
543, 604672129, -6.7391815185546875, 1.8904592990875244, 6.992822170257568, -1.6891577243804932, -1.3358559608459473, -1.4172275066375732, 1.102294921875, -0.56884765625, 0.073486328125
544, 604688796, -6.743262767791748, 1.9372007846832275, 6.989051818847656, -1.6120121479034424, -1.2409096956253052, -1.3228832483291626, 1.100830078125, -0.5693359375, 0.074462890625
545, 604705463, -6.735179901123047, 1.9467408657073975, 6.975135326385498, -1.9785683155059814, -1.4566454887390137, -1.6768122911453247, 1.100830078125, -0.5693359375, 0.073974609375
546, 604722130, -6.731607437133789, 1.9313334226608276, 6.987696647644043, -2.356445074081421, -1.722402811050415, -1.9511626958847046, 1.100341796875, -0.56982421875, 0.073486328125
547, 604738797, -6.728823184967041, 1.9269990921020508, 6.990417003631592, -2.4358701705932617, -1.8181432485580444, -2.053767204284668, 1.100830078125, -0.56884765625, 0.073974609375
548, 604755464, -6.724740505218506, 1.9121525287628174, 7.001587867736816, -2.402778148651123, -1.8293229341506958, -2.072144031524658, 1.100830078125, -0.570556640625, 0.072021484375
549, 604772131, -6.7275800704956055, 1.9244177341461182, 6.9882426261901855, -2.381135940551758, -1.70766282081604, -2.0740652084350586, 1.102783203125, -0.571533203125, 0.072509765625
550, 604788798, -6.736157417297363, 1.9174240827560425, 6.981052875518799, -2.425971031188965, -1.7155131101608276, -2.181574583053589, 1.101806640625, -0.56982421875, 0.072509765625
551, 604805465, -6.734979629516602, 1.9224975109100342, 6.988035678863525, -2.5064332485198975, -1.7568647861480713, -2.158676862716675, 1.100830078125, -0.5703125, 0.0751953125
552, 604822132, -6.737010955810547, 1.9276338815689087, 6.976876735687256, -2.5307013988494873, -1.7468502521514893, -2.309497356414795, 1.09912109375, -0.56982421875, 0.074462890625
553, 604838799, -6.734750270843506, 1.9061826467514038, 7.016482353210449, -2.6090891361236572, -1.6657860279083252, -2.3128654956817627, 1.099609375, -0.571044921875, 0.07568359375
554, 604855466, -6.736774921417236, 1.9144724607467651, 6.992650032043457, -2.5522801876068115, -1.6964190006256104, -2.3066160678863525, 1.102783203125, -0.5703125, 0.073974609375
555, 604872133, -6.729773044586182, 1.9249604940414429, 7.011250972747803, -2.512861967086792, -1.6892982721328735, -2.2197115421295166, 1.102294921875, -0.57080078125, 0.072021484375
556, 604888800, -6.748274326324463, 1.9195016622543335, 7.010709762573242, -2.5196754932403564, -1.7827337980270386, -2.288879156112671, 1.09912109375, -0.5673828125, 0.073486328125
557, 604905467, -6.734914302825928, 1.9153743982315063, 6.990681171417236, -2.6234705448150635, -1.714859962463379, -2.2445178031921387, 1.101806640625, -0.568359375, 0.074462890625
558, 604922134, -6.736595630645752, 1.9305552244186401, 7.00507926940918, -2.559298276901245, -1.6790536642074585, -2.3488643169403076, 1.09912109375, -0.56982421875, 0.071533203125
559, 604938801, -6.724432468414307, 1.9149527549743652, 6.979767799377441, -2.6148264408111572, -1.7076245546340942, -2.4084136486053467, 1.0986328125, -0.5693359375, 0.073486328125
560, 604955468, -6.727491855621338, 1.9006175994873047, 6.992914199829102, -2.6640541553497314, -1.602971076965332, -2.4499576091766357, 1.10009765625, -0.5693359375, 0.072021484375
561, 604972135, -6.741565227508545, 1.9129765033721924, 7.010409355163574, -2.701730251312256, -1.6809489727020264, -2.4914374351501465, 1.102783203125, -0.56982421875, 0.073486328125
562, 604988802, -6.721404075622559, 1.9014078378677368, 6.99040412902832, -2.708376884460449, -1.7174086570739746, -2.4270212650299072, 1.102783203125, -0.57080078125, 0.071044921875
563, 605005469, -6.731853008270264, 1.9205474853515625, 7.007906913757324, -2.6834356784820557, -1.700056552886963, -2.3462135791778564, 1.10009765625, -0.56689453125, 0.074951171875
564, 605022136, -6.721642017364502, 1.9038896560668945, 7.020406723022461, -2.650902032852173, -1.6764665842056274, -2.396862506866455, 1.100830078125, -0.568359375, 0.073974609375
565, 605038803, -6.725210666656494, 1.9008333683013916, 6.987128257751465, -2.5456206798553467, -1.6100273132324219, -2.1851987838745117, 1.10009765625, -0.56982421875, 0.071533203125
566, 605055470, -6.731584072113037, 1.920109510421753, 6.995457649230957, -2.461867094039917, -1.5765384435653687, -2.1304774284362793, 1.0986328125, -0.5693359375, 0.073974609375
567, 605072137, -6.741942405700684, 1.9137943983078003, 6.977302551269531, -2.4399685859680176, -1.577575922012329, -2.187068462371826, 1.101318359375, -0.5703125, 0.073486328125
568, 605088804, -6.736368179321289, 1.9059277772903442, 7.006242752075195, -2.436856508255005, -1.5373127460479736, -2.2577595710754395, 1.100341796875, -0.5703125, 0.073486328125
569, 605105471, -6.735941410064697, 1.9095715284347534, 6.994791030883789, -2.4719200134277344, -1.580700397491455, -2.2638423442840576, 1.10009765625, -0.5693359375, 0.072509765625
570, 605122138, -6.739503383636475, 1.898895502090454, 7.007059574127197, -2.454503297805786, -1.5638344287872314, -2.1581132411956787, 1.0986328125, -0.5673828125, 0.074951171875
571, 605138805, -6.747903823852539, 1.9064878225326538, 6.997345924377441, -2.4443352222442627, -1.7207125425338745, -2.206752061843872, 1.09912109375, -0.570556640625, 0.074462890625
572, 605155472, -6.736853122711182, 1.907534122467041, 6.987265586853027, -2.459472417831421, -1.5903565883636475, -2.2697463035583496, 1.101318359375, -0.56787109375, 0.072998046875
573, 605172139, -6.719696998596191, 1.9245026111602783, 6.99451208114624, -2.472547769546509, -1.6829338073730469, -2.23209547996521, 1.102783203125, -0.57080078125, 0.072021484375
574, 605188806, -6.73975133895874, 1.9024244546890259, 6.981790542602539, -2.5145013332366943, -1.6886582374572754, -2.248436689376831, 1.100341796875, -0.56982421875, 0.073486328125
575, 605205473, -6.732522964477539, 1.8910478353500366, 6.9895501136779785, -2.5052425861358643, -1.658268928527832, -2.3587377071380615, 1.10107421875, -0.56787109375, 0.072021484375
576, 605222140, -6.729294300079346, 1.913683295249939, 7.006521224975586, -2.5532405376434326, -1.5704429149627686, -2.3513870239257812, 1.09814453125, -0.568359375, 0.072509765625
577, 605238807, -6.73358154296875, 1.9147504568099976, 6.998056411743164, -2.627953052520752, -1.4299957752227783, -2.38461971282959, 1.09912109375, -0.56640625, 0.073486328125
578, 605255474, -6.732087135314941, 1.8990559577941895, 6.998828887939453, -2.657010555267334, -1.4837182760238647, -2.4547340869903564, 1.10009765625, -0.5693359375, 0.072998046875
579, 605272141, -6.735718727111816, 1.9011073112487793, 6.995552062988281, -2.599177122116089, -1.524762749671936, -2.517690420150757, 1.101806640625, -0.568359375, 0.071533203125
580, 605288808, -6.728948593139648, 1.8971747159957886, 6.991479396820068, -2.4984545707702637, -1.5514123439788818, -2.2896857261657715, 1.1005859375, -0.568359375, 0.074951171875
581, 605305475, -6.739480018615723, 1.904571533203125, 6.99854040145874, -2.502539873123169, -1.6064283847808838, -2.317091226577759, 1.1005859375, -0.56787109375, 0.073486328125
582, 605322142, -6.73117208480835, 1.8862336874008179, 6.998422145843506, -2.506638288497925, -1.5557667016983032, -2.2506263256073, 1.09912109375, -0.56787109375, 0.074951171875
583, 605338809, -6.731175422668457, 1.8894662857055664, 6.9935173988342285, -2.4734950065612793, -1.5848625898361206, -2.176259756088257, 1.10107421875, -0.56689453125, 0.072998046875
584, 605355476, -6.736726760864258, 1.9044510126113892, 7.00733757019043, -2.5345945358276367, -1.5505417585372925, -2.1896939277648926, 1.10009765625, -0.56787109375, 0.074951171875
585, 605372143, -6.736630439758301, 1.9138188362121582, 6.99125862121582, -2.5303683280944824, -1.5458033084869385, -2.2720770835876465, 1.10009765625, -0.568359375, 0.074462890625
586, 605388810, -6.729433536529541, 1.9044278860092163, 6.976587295532227, -2.5127596855163574, -1.6134592294692993, -2.2381532192230225, 1.102783203125, -0.56787109375, 0.071044921875
587, 605405477, -6.736580848693848, 1.8869209289550781, 7.004654407501221, -2.500887870788574, -1.4584126472473145, -2.3175394535064697, 1.100341796875, -0.5703125, 0.072021484375
588, 605422144, -6.7335991859436035, 1.9051616191864014, 6.996932506561279, -2.545006275177002, -1.480644702911377, -2.1874911785125732, 1.10107421875, -0.56787109375, 0.072021484375
589, 605438811, -6.756054878234863, 1.8955317735671997, 6.991495132446289, -2.496264934539795, -1.6164559125900269, -2.210350513458252, 1.1005859375, -0.568359375, 0.074951171875
590, 605455478, -6.738684177398682, 1.8969175815582275, 6.998219966888428, -2.566418170928955, -1.7687618732452393, -2.229367971420288, 1.101318359375, -0.5673828125, 0.074462890625
591, 605472145, -6.7258992195129395, 1.9082915782928467, 6.987781047821045, -2.584244966506958, -1.7830027341842651, -2.2547502517700195, 1.103759765625, -0.56689453125, 0.073974609375
592, 605488812, -6.739029407501221, 1.9194376468658447, 6.994062423706055, -2.6858890056610107, -1.7709903717041016, -2.464172601699829, 1.100830078125, -0.568359375, 0.06982421875
593, 605505479, -6.742697715759277, 1.9087035655975342, 7.0190348625183105, -2.6764121055603027, -1.7009012699127197, -2.426624298095703, 1.0986328125, -0.5673828125, 0.072998046875
594, 605522146, -6.755880832672119, 1.9004380702972412, 7.010372638702393, -2.616990804672241, -1.78620445728302, -2.453517436981201, 1.09912109375, -0.56689453125, 0.073486328125
595, 605538813, -6.736237049102783, 1.886135220527649, 6.993332862854004, -2.7569525241851807, -1.761702537536621, -2.399932861328125, 1.10009765625, -0.568359375, 0.072509765625
596, 605555480, -6.7290472984313965, 1.9090476036071777, 7.029209613800049, -2.7165725231170654, -1.8197053670883179, -2.446537971496582, 1.100830078125, -0.56884765625, 0.073486328125
597, 605572147, -6.7238240242004395, 1.9105117321014404, 6.993866920471191, -2.597358465194702, -1.7035009860992432, -2.390395164489746, 1.1005859375, -0.56787109375, 0.072021484375
598, 605588814, -6.7385969161987305, 1.8972997665405273, 7.004046440124512, -2.504563808441162, -1.6466916799545288, -2.3140432834625244, 1.0986328125, -0.56640625, 0.072021484375
599, 605605481, -6.734358787536621, 1.9041163921356201, 6.991812229156494, -2.5379626750946045, -1.7318670749664307, -2.277071714401245, 1.0986328125, -0.56787109375, 0.072021484375
600, 605622148, -6.717556476593018, 1.899747371673584, 7.004561424255371, -2.6589179039001465, -1.8558063507080078, -2.474186658859253, 1.0986328125, -0.56591796875, 0.07177734375
601, 605638815, -6.736514091491699, 1.9085667133331299, 6.9913153648376465, -2.223489761352539, -1.6379194259643555, -2.488837242126465, 1.09912109375, -0.56591796875, 0.072021484375
602, 605655482, -6.738819122314453, 1.884504795074463, 6.985390663146973, -2.232748508453369, -1.5172961950302124, -2.5103390216827393, 1.100830078125, -0.56884765625, 0.072021484375
603, 605672149, -6.7432169914245605, 1.8709766864776611, 7.0281476974487305, -2.395146131515503, -1.650828242301941, -2.4694228172302246, 1.1005859375, -0.5673828125, 0.072509765625
604, 605688816, -6.737276554107666, 1.8902498483657837, 7.023828506469727, -2.516115188598633, -1.837506651878357, -2.626403331756592, 1.1005859375, -0.5673828125, 0.071533203125
605, 605705483, -6.745645999908447, 1.8972768783569336, 7.00226354598999, -3.014589309692383, -2.286266803741455, -2.921909809112549, 1.1005859375, -0.5673828125, 0.07080078125
606, 605722150, -6.71742582321167, 1.9258397817611694, 7.012315273284912, -3.4515929222106934, -2.7460782527923584, -3.255502223968506, 1.0986328125, -0.5654296875, 0.072998046875
607, 605738817, -6.715173244476318, 1.8888413906097412, 7.002225399017334, -3.0262176990509033, -2.5055627822875977, -3.3594393730163574, 1.0986328125, -0.56640625, 0.07080078125
608, 605755484, -6.707661151885986, 1.9034138917922974, 6.9940972328186035, -2.6191165447235107, -2.2036657333374023, -3.1831467151641846, 1.09912109375, -0.5654296875, 0.07080078125
609, 605772151, -6.738459587097168, 1.8500638008117676, 7.019259929656982, -2.261550188064575, -1.7808513641357422, -2.7105793952941895, 1.10107421875, -0.565185546875, 0.072509765625
610, 605788818, -6.725274562835693, 1.8606034517288208, 7.046905040740967, -1.6005505323410034, -1.3651314973831177, -2.2183544635772705, 1.099609375, -0.5654296875, 0.07080078125
611, 605805485, -6.731760025024414, 1.8770428895950317, 7.026483535766602, -0.6906592845916748, -0.8404807448387146, -1.9053415060043335, 1.1005859375, -0.56689453125, 0.07080078125
612, 605822152, -6.71756649017334, 1.8980828523635864, 6.994448184967041, -0.45741719007492065, -0.5248810648918152, -1.7315080165863037, 1.09814453125, -0.56591796875, 0.07177734375
613, 605838819, -6.7338385581970215, 1.887574553489685, 6.986004829406738, -0.7696488499641418, -0.663945198059082, -1.7051526308059692, 1.099609375, -0.56689453125, 0.072509765625
614, 605855486, -6.747844696044922, 1.8733781576156616, 7.013279914855957, -0.31704679131507874, -0.44874727725982666, -1.4616142511367798, 1.09912109375, -0.56884765625, 0.072021484375
615, 605872153, -6.746159076690674, 1.8838977813720703, 6.9901041984558105, -0.3346811532974243, -0.5229344964027405, -1.0877841711044312, 1.09912109375, -0.56787109375, 0.0703125
616, 605888820, -6.719071388244629, 1.9112797975540161, 6.976614952087402, -0.9712334871292114, -1.1492161750793457, -1.220496416091919, 1.102294921875, -0.56787109375, 0.073486328125
617, 605905487, -6.724788665771484, 1.938546895980835, 6.973770618438721, -1.3595863580703735, -1.401296615600586, -1.2714017629623413, 1.103759765625, -0.5693359375, 0.072021484375
618, 605922154, -6.737380504608154, 1.9155683517456055, 7.0073933601379395, -1.0627604722976685, -1.2580957412719727, -1.134194254875183, 1.1005859375, -0.568359375, 0.073486328125
619, 605938821, -6.722596168518066, 1.949908971786499, 6.9815263748168945, -1.0601478815078735, -1.038146734237671, -1.3752098083496094, 1.1005859375, -0.56884765625, 0.072509765625
620, 605955488, -6.75633430480957, 1.9227800369262695, 6.997170925140381, -1.0369428396224976, -0.982669472694397, -1.4048434495925903, 1.100341796875, -0.5693359375, 0.073486328125
621, 605972155, -6.721023082733154, 1.9366929531097412, 6.986216068267822, -1.4288814067840576, -1.3582926988601685, -1.5229438543319702, 1.103759765625, -0.5703125, 0.072021484375
622, 605988822, -6.735806941986084, 1.8957630395889282, 6.96865701675415, -1.5155417919158936, -1.2392833232879639, -1.5445866584777832, 1.100341796875, -0.5693359375, 0.071533203125
623, 606005489, -6.732046127319336, 1.9516448974609375, 6.945481300354004, -1.4003231525421143, -1.4215562343597412, -1.3764137029647827, 1.09912109375, -0.56982421875, 0.072509765625
624, 606022156, -6.736461162567139, 1.9753023386001587, 6.984917163848877, -1.4410985708236694, -1.3095389604568481, -1.3161855936050415, 1.099609375, -0.571533203125, 0.073974609375
625, 606038823, -6.7236104011535645, 1.9543877840042114, 6.991967678070068, -1.4667881727218628, -1.3180679082870483, -1.4092748165130615, 1.100830078125, -0.571044921875, 0.072998046875
626, 606055490, -6.725520610809326, 1.9401731491088867, 6.975003719329834, -1.5501410961151123, -1.4973695278167725, -1.404618501663208, 1.100341796875, -0.572998046875, 0.072021484375
627, 606072157, -6.744964599609375, 1.9323182106018066, 6.953732967376709, -1.5891271829605103, -1.7668793201446533, -1.352709174156189, 1.102294921875, -0.572998046875, 0.072021484375
628, 606088824, -6.733781814575195, 1.9675464630126953, 6.973845481872559, -1.8668968677520752, -1.9884676933288574, -1.4863563776016235, 1.102783203125, -0.571044921875, 0.072998046875
629, 606105491, -6.719132423400879, 1.9836268424987793, 6.972958564758301, -2.38703989982605, -2.2794151306152344, -1.7689027786254883, 1.09912109375, -0.570556640625, 0.072509765625
630, 606122158, -6.720453262329102, 1.968212366104126, 6.9891839027404785, -2.4737772941589355, -2.270322799682617, -1.9414814710617065, 1.0986328125, -0.572509765625, 0.075439453125
631, 606138825, -6.687786102294922, 1.920697569847107, 6.984169960021973, -2.1306309700012207, -2.1222939491271973, -1.6088618040084839, 1.09912109375, -0.572021484375, 0.071533203125
632, 606155492, -6.73773193359375, 1.9325462579727173, 6.977544784545898, -1.7886117696762085, -1.9736888408660889, -1.148422122001648, 1.102783203125, -0.572998046875, 0.072509765625
633, 606172159, -6.726820945739746, 2.012791156768799, 6.960790157318115, -1.826006293296814, -1.9252427816390991, -1.1330931186676025, 1.103271484375, -0.572509765625, 0.070068359375
634, 606188826, -6.7351460456848145, 1.9922233819961548, 7.00364351272583, -1.6884018182754517, -1.930441975593567, -1.2479788064956665, 1.102783203125, -0.575439453125, 0.072998046875
635, 606205493, -6.75343656539917, 1.9598199129104614, 6.957648754119873, -1.3672443628311157, -2.1116645336151123, -1.1823463439941406, 1.100341796875, -0.572998046875, 0.0751953125
636, 606222160, -6.7331366539001465, 1.8568015098571777, 6.987245559692383, -0.970708429813385, -2.535875082015991, -0.4230065643787384, 1.09814453125, -0.575439453125, 0.073486328125
637, 606238827, -6.69400691986084, 1.9356858730316162, 6.955113887786865, 0.6156076192855835, -2.219775676727295, 1.3434182405471802, 1.098876953125, -0.573486328125, 0.0703125
638, 606255494, -6.633266925811768, 1.9444987773895264, 6.97589111328125, 2.83430814743042, -1.3806911706924438, 3.4620115756988525, 1.099365234375, -0.5771484375, 0.072021484375
639, 606272161, -6.6706366539001465, 1.8621841669082642, 7.022661209106445, 5.101557731628418, 0.1792697161436081, 6.108662128448486, 1.100830078125, -0.580078125, 0.071044921875
640, 606288828, -6.738499164581299, 2.0099754333496094, 6.9510908126831055, 6.129203796386719, 1.1245578527450562, 7.40266752243042, 1.10205078125, -0.583251953125, 0.071533203125
641, 606305495, -6.755898952484131, 2.198672294616699, 6.938035488128662, 4.952927112579346, 0.39436519145965576, 6.2186431884765625, 1.1025390625, -0.585693359375, 0.0751953125
642, 606322162, -6.7478742599487305, 2.2682995796203613, 6.883124351501465, 3.0678319931030273, -0.8764411211013794, 4.507406711578369, 1.098876953125, -0.587890625, 0.0771484375
643, 606338829, -6.716712474822998, 2.1779892444610596, 6.941636085510254, 2.2639002799987793, -1.4655842781066895, 3.4824628829956055, 1.099609375, -0.58935546875, 0.07373046875
644, 606355496, -6.650313854217529, 2.1062326431274414, 6.96452522277832, 1.9105345010757446, -1.6537224054336548, 3.396711587905884, 1.102783203125, -0.593017578125, 0.07373046875
645, 606372163, -6.666140556335449, 2.232203245162964, 6.940652847290039, 2.168351888656616, -1.264165997505188, 3.3575239181518555, 1.103271484375, -0.596923828125, 0.07373046875
646, 606388830, -6.7022881507873535, 2.230327844619751, 6.8829731941223145, 1.8669803142547607, -2.1166722774505615, 2.706949234008789, 1.10107421875, -0.596435546875, 0.07275390625
647, 606405497, -6.724579334259033, 2.2507686614990234, 6.923238277435303, 1.5344122648239136, -2.8222768306732178, 2.054452657699585, 1.10107421875, -0.595458984375, 0.07421875
648, 606422164, -6.6901326179504395, 2.2521886825561523, 6.979641914367676, 0.6903967261314392, -3.1704165935516357, 1.3942207098007202, 1.100830078125, -0.5986328125, 0.07373046875
649, 606438831, -6.684372425079346, 2.310004234313965, 7.001431465148926, -0.47129929065704346, -2.8239920139312744, 0.0504378043115139, 1.099853515625, -0.60107421875, 0.07373046875
650, 606455498, -6.650053977966309, 2.4106998443603516, 6.925350189208984, -2.2802345752716064, -2.66314435005188, -2.098294734954834, 1.103271484375, -0.60205078125, 0.072265625
651, 606472165, -6.667882442474365, 2.4312548637390137, 6.946505069732666, -4.435838222503662, -2.763700246810913, -4.5056843757629395, 1.103271484375, -0.60107421875, 0.074462890625
652, 606488832, -6.65386962890625, 2.3421218395233154, 6.924755573272705, -6.635599136352539, -3.911060333251953, -6.767184734344482, 1.10595703125, -0.6025390625, 0.075927734375
653, 606505499, -6.665106296539307, 2.2753958702087402, 6.949173927307129, -9.216710090637207, -4.795084476470947, -9.23159122467041, 1.1064453125, -0.60205078125, 0.07861328125
654, 606522166, -6.638449192047119, 2.306692123413086, 6.949087142944336, -13.1520357131958, -6.065761089324951, -12.635350227355957, 1.10791015625, -0.604736328125, 0.083740234375
