sep=,
DeviceTag:,B,,,,,,,,,,,,,,,,,
FirmwareVersion:,2.2.1,,,,,,,,,,,,,,,,,
AppVersion:,2023.6.1,,,,,,,,,,,,,,,,,
SyncStatus:,Synced,,,,,,,,,,,,,,,,,
OutputRate:,60Hz,,,,,,,,,,,,,,,,,
FilterProfile:,General,,,,,,,,,,,,,,,,,
Measurement Mode:,Inertial Mode - Rate quantities (with mag),,,,,,,,,,,,,,,,,
StartTime:,2023-12-05 15:32:12.847 +0200,,,,,,,,,,,,,,,,,
 2023,,,,,,,,,,,,,,,,,,,

PacketCounter,SampleTimeFine,Acc_X,Acc_Y,Acc_Z,Gyr_X,Gyr_Y,Gyr_Z,Mag_X,Mag_Y,Mag_Z
1, 595655282, -7.382040977478027, -1.4986248016357422, 6.130443572998047, -0.27076461911201477, -0.7093949317932129, -1.2995755672454834, 0.878173828125, 0.291015625, -0.380615234375
2, 595671949, -7.383020877838135, -1.512207269668579, 6.129882335662842, -0.248788982629776, -0.7889607548713684, -1.2511420249938965, 0.876708984375, 0.289306640625, -0.380615234375
3, 595688616, -7.381014347076416, -1.5037273168563843, 6.124236106872559, -0.21396848559379578, -0.8017414808273315, -1.2470310926437378, 0.877197265625, 0.29150390625, -0.382568359375
4, 595705283, -7.388213157653809, -1.480229377746582, 6.12664270401001, -0.17648430168628693, -0.8383292555809021, -1.2206884622573853, 0.875244140625, 0.289306640625, -0.38330078125
5, 595721950, -7.383678436279297, -1.4848185777664185, 6.1259284019470215, -0.159951314330101, -0.8111798167228699, -1.1682720184326172, 0.87744140625, 0.29052734375, -0.378662109375
6, 595738617, -7.383065223693848, -1.501462459564209, 6.118879795074463, -0.13751457631587982, -0.8109877109527588, -1.2587487697601318, 0.878173828125, 0.29150390625, -0.379638671875
7, 595755284, -7.404125690460205, -1.490709662437439, 6.109145164489746, -0.244454026222229, -0.7654932141304016, -1.2167378664016724, 0.88037109375, 0.29052734375, -0.383056640625
8, 595771951, -7.381632328033447, -1.504024624824524, 6.108860969543457, -0.2104339301586151, -0.6904159188270569, -1.2496179342269897, 0.877685546875, 0.290771484375, -0.381103515625
9, 595788618, -7.38801383972168, -1.4815343618392944, 6.1263427734375, -0.271315336227417, -0.7252748608589172, -1.1958441734313965, 0.877685546875, 0.2919921875, -0.381591796875
10, 595805285, -7.388838768005371, -1.4909746646881104, 6.106210708618164, -0.3208886981010437, -0.6845633387565613, -1.2338403463363647, 0.87841796875, 0.290283203125, -0.380126953125
11, 595821952, -7.385348796844482, -1.506805181503296, 6.10374116897583, -0.2396964430809021, -0.848395049571991, -1.2607594728469849, 0.8779296875, 0.290283203125, -0.381103515625
12, 595838619, -7.385369777679443, -1.5018396377563477, 6.103574275970459, -0.2417326420545578, -0.8911042809486389, -1.226489782333374, 0.87841796875, 0.290283203125, -0.381591796875
13, 595855286, -7.365301609039307, -1.500223994255066, 6.096045970916748, -0.17969870567321777, -0.8920647501945496, -1.240371823310852, 0.8798828125, 0.2900390625, -0.381103515625
14, 595871953, -7.376087665557861, -1.4785256385803223, 6.131485939025879, -0.3542236089706421, -0.8709085583686829, -1.3182727098464966, 0.876220703125, 0.291015625, -0.381591796875
15, 595888620, -7.39390754699707, -1.484789490699768, 6.130214691162109, -0.25738200545310974, -0.8220011591911316, -1.3176196813583374, 0.876708984375, 0.29296875, -0.380126953125
16, 595905287, -7.382066249847412, -1.4965721368789673, 6.13693380355835, -0.3276248574256897, -0.8215146064758301, -1.3306437730789185, 0.876220703125, 0.290283203125, -0.382568359375
17, 595921954, -7.3835601806640625, -1.4967323541641235, 6.143550872802734, -0.2630808353424072, -0.7374280691146851, -1.299421787261963, 0.876220703125, 0.291015625, -0.382568359375
18, 595938621, -7.384149551391602, -1.4812133312225342, 6.103951454162598, -0.24343591928482056, -0.7241477966308594, -1.2030541896820068, 0.87890625, 0.289306640625, -0.383056640625
19, 595955288, -7.383650302886963, -1.495136022567749, 6.105656147003174, -0.2896924316883087, -0.7469687461853027, -1.2236340045928955, 0.878662109375, 0.29248046875, -0.382080078125
20, 595971955, -7.3693695068359375, -1.4898500442504883, 6.104760646820068, -0.18943151831626892, -0.7918806076049805, -1.2465828657150269, 0.877197265625, 0.290771484375, -0.382568359375
21, 595988622, -7.377578258514404, -1.491617202758789, 6.126163482666016, -0.16150088608264923, -0.8747504949569702, -1.2343143224716187, 0.878173828125, 0.290283203125, -0.38330078125
22, 596005289, -7.38015604019165, -1.4774718284606934, 6.163556098937988, -0.19235137104988098, -0.8371638655662537, -1.1676061153411865, 0.877685546875, 0.291015625, -0.381591796875
23, 596021956, -7.377849578857422, -1.493678092956543, 6.114151477813721, -0.25027450919151306, -0.7830443382263184, -1.2268098592758179, 0.878173828125, 0.29248046875, -0.382080078125
24, 596038623, -7.386514186859131, -1.4851194620132446, 6.119142532348633, -0.31215476989746094, -0.8141636848449707, -1.365605115890503, 0.8798828125, 0.2919921875, -0.381591796875
25, 596055290, -7.379533767700195, -1.4805550575256348, 6.094812870025635, -0.43099769949913025, -0.7237251996994019, -1.4029483795166016, 0.877685546875, 0.2919921875, -0.3837890625
26, 596071957, -7.39046049118042, -1.4888672828674316, 6.1205363273620605, -0.25227227807044983, -0.7507722973823547, -1.330477237701416, 0.876708984375, 0.2919921875, -0.382080078125
27, 596088624, -7.371730327606201, -1.4867111444473267, 6.115996360778809, -0.2707133889198303, -0.8463332056999207, -1.2393215894699097, 0.877685546875, 0.29150390625, -0.381591796875
28, 596105291, -7.3662238121032715, -1.4880952835083008, 6.097879886627197, -0.15950308740139008, -0.8314139246940613, -1.265753984451294, 0.875732421875, 0.290283203125, -0.382080078125
29, 596121958, -7.3864312171936035, -1.5015836954116821, 6.1259002685546875, -0.2436024397611618, -0.8437848091125488, -1.280199646949768, 0.8779296875, 0.289794921875, -0.382080078125
30, 596138625, -7.391526222229004, -1.493955373764038, 6.130491733551025, -0.2349068522453308, -0.9108260273933411, -1.3251113891601562, 0.877197265625, 0.291015625, -0.381103515625
31, 596155292, -7.387355327606201, -1.4857618808746338, 6.115433692932129, -0.24430671334266663, -0.6950517892837524, -1.4206980466842651, 0.878173828125, 0.29150390625, -0.381103515625
32, 596171959, -7.377969264984131, -1.4924533367156982, 6.122960090637207, -0.3005906641483307, -0.6791207790374756, -1.4493458271026611, 0.877685546875, 0.2919921875, -0.381103515625
33, 596188626, -7.377327919006348, -1.515028953552246, 6.098301887512207, -0.1962316930294037, -0.8437336087226868, -1.3225117921829224, 0.878662109375, 0.29052734375, -0.382568359375
34, 596205293, -7.375383377075195, -1.494385004043579, 6.1225175857543945, -0.08933710306882858, -0.9747554063796997, -1.3178374767303467, 0.875732421875, 0.291259765625, -0.382080078125
35, 596221960, -7.384256362915039, -1.509701132774353, 6.115571975708008, -0.04259391501545906, -1.06747305393219, -1.2471591234207153, 0.876708984375, 0.29150390625, -0.3828125
36, 596238627, -7.4015350341796875, -1.493395209312439, 6.101599216461182, -0.06364756077528, -1.1787220239639282, -1.3032381534576416, 0.879150390625, 0.29345703125, -0.3828125
37, 596255294, -7.382259845733643, -1.4907199144363403, 6.120396137237549, -0.07587762176990509, -1.3995290994644165, -1.2701977491378784, 0.880859375, 0.29052734375, -0.38330078125
38, 596271961, -7.366373538970947, -1.4868571758270264, 6.141611099243164, -0.11619202047586441, -1.2066142559051514, -1.3590354919433594, 0.876708984375, 0.2919921875, -0.3828125
39, 596288628, -7.367268085479736, -1.48947012424469, 6.149718761444092, -0.2723654508590698, -0.9010676145553589, -1.4358607530593872, 0.876708984375, 0.291015625, -0.382080078125
40, 596305295, -7.371186256408691, -1.5065873861312866, 6.127195835113525, -0.44377848505973816, -0.6654435396194458, -1.417022705078125, 0.877685546875, 0.29150390625, -0.38330078125
41, 596321962, -7.381460666656494, -1.5094722509384155, 6.108872890472412, -0.37307459115982056, -0.6723077297210693, -1.3298624753952026, 0.877685546875, 0.291015625, -0.382568359375
42, 596338629, -7.3856635093688965, -1.5031697750091553, 6.116115570068359, -0.266013503074646, -0.8567063212394714, -1.273361086845398, 0.878173828125, 0.29052734375, -0.381591796875
43, 596355296, -7.37700891494751, -1.5054011344909668, 6.110720157623291, -0.1949254423379898, -0.7651922106742859, -1.2064989805221558, 0.878173828125, 0.2919921875, -0.38427734375
44, 596371963, -7.367298126220703, -1.5052131414413452, 6.1406660079956055, -0.18472519516944885, -0.9401974081993103, -1.2381497621536255, 0.878173828125, 0.29345703125, -0.382080078125
45, 596388630, -7.378780364990234, -1.499772071838379, 6.144186019897461, -0.23952998220920563, -0.9744352698326111, -1.3708685636520386, 0.874755859375, 0.29296875, -0.380615234375
46, 596405297, -7.36862325668335, -1.4950761795043945, 6.137673854827881, -0.30317753553390503, -0.7879490852355957, -1.4096333980560303, 0.876220703125, 0.2919921875, -0.381591796875
47, 596421964, -7.374383926391602, -1.4868340492248535, 6.134986400604248, -0.4407433569431305, -0.5620323419570923, -1.4123867750167847, 0.878173828125, 0.291015625, -0.38330078125
48, 596438631, -7.372344017028809, -1.5034748315811157, 6.12987756729126, -0.41764068603515625, -0.5528244972229004, -1.612959861755371, 0.879150390625, 0.29296875, -0.384765625
49, 596455298, -7.364904880523682, -1.5231742858886719, 6.117955684661865, -0.35065069794654846, -0.6669675707817078, -1.4268708229064941, 0.877685546875, 0.2919921875, -0.3828125
50, 596471965, -7.377656936645508, -1.5054621696472168, 6.121994972229004, -0.30197370052337646, -0.6727687120437622, -1.3356637954711914, 0.877685546875, 0.29150390625, -0.380615234375
51, 596488632, -7.376651287078857, -1.504108190536499, 6.112492561340332, -0.3422369062900543, -0.7775247097015381, -1.371918797492981, 0.875732421875, 0.2919921875, -0.382080078125
52, 596505299, -7.367577075958252, -1.4985437393188477, 6.122024059295654, -0.2677295506000519, -0.7774990797042847, -1.3239843845367432, 0.875244140625, 0.291259765625, -0.38232421875
53, 596521966, -7.375138282775879, -1.5065840482711792, 6.143705368041992, -0.30278050899505615, -0.7888582944869995, -1.2950292825698853, 0.876220703125, 0.29248046875, -0.381591796875
54, 596538633, -7.373599052429199, -1.507012128829956, 6.1113786697387695, -0.2525283992290497, -0.7690852880477905, -1.2274117469787598, 0.876220703125, 0.29150390625, -0.38330078125
55, 596555300, -7.371984004974365, -1.5139663219451904, 6.119110584259033, -0.19262032210826874, -0.8309527635574341, -1.2447386980056763, 0.877197265625, 0.290283203125, -0.381591796875
56, 596571967, -7.375761985778809, -1.5012811422348022, 6.120303630828857, -0.21526195108890533, -0.8092332482337952, -1.1543388366699219, 0.876708984375, 0.2919921875, -0.3837890625
57, 596588634, -7.387567043304443, -1.506007194519043, 6.12670373916626, -0.2561269998550415, -0.7802780866622925, -1.2080614566802979, 0.876708984375, 0.2919921875, -0.382080078125
58, 596605301, -7.37139368057251, -1.4950543642044067, 6.1266608238220215, -0.2971905767917633, -0.6955192685127258, -1.1861690282821655, 0.877197265625, 0.2919921875, -0.382568359375
59, 596621968, -7.373468399047852, -1.505967617034912, 6.1194376945495605, -0.351918488740921, -0.5499815344810486, -1.1402134895324707, 0.878173828125, 0.29248046875, -0.3828125
60, 596638635, -7.372209548950195, -1.510948657989502, 6.116726875305176, -0.3696552515029907, -0.49505504965782166, -1.1785171031951904, 0.877197265625, 0.2919921875, -0.3837890625
61, 596655302, -7.3763427734375, -1.506203055381775, 6.108522415161133, -0.2963389456272125, -0.6098512411117554, -1.1530325412750244, 0.877685546875, 0.291015625, -0.382568359375
62, 596671969, -7.370072364807129, -1.506665825843811, 6.119032859802246, -0.283378928899765, -0.6275239586830139, -1.0946612358093262, 0.876220703125, 0.29248046875, -0.3837890625
63, 596688636, -7.375726222991943, -1.5020644664764404, 6.109066009521484, -0.3375241458415985, -0.6791847944259644, -1.1091707944869995, 0.875244140625, 0.29296875, -0.3828125
64, 596705303, -7.37185525894165, -1.5101040601730347, 6.129642009735107, -0.2997838258743286, -0.6255389451980591, -1.1916821002960205, 0.875244140625, 0.294921875, -0.38330078125
65, 596721970, -7.385582447052002, -1.5003904104232788, 6.116124629974365, -0.3656853139400482, -0.6495764255523682, -1.2102129459381104, 0.875732421875, 0.29150390625, -0.382080078125
66, 596738637, -7.395013809204102, -1.4964762926101685, 6.112796783447266, -0.3641229271888733, -0.5576652884483337, -1.220931887626648, 0.87939453125, 0.291015625, -0.383056640625
67, 596755304, -7.387949466705322, -1.509150743484497, 6.1179938316345215, -0.41806328296661377, -0.5792696475982666, -1.2152073383331299, 0.876220703125, 0.29150390625, -0.3837890625
68, 596771971, -7.372710704803467, -1.494267463684082, 6.102905750274658, -0.2849540710449219, -0.7386445999145508, -1.22234046459198, 0.877685546875, 0.29150390625, -0.381103515625
69, 596788638, -7.387593746185303, -1.5080220699310303, 6.115139961242676, -0.1956426203250885, -0.8029453754425049, -1.1494852304458618, 0.876708984375, 0.29150390625, -0.382080078125
70, 596805305, -7.382209300994873, -1.503112554550171, 6.135328769683838, -0.16734057664871216, -0.8031630516052246, -1.2575452327728271, 0.876220703125, 0.29248046875, -0.38232421875
71, 596821972, -7.37059211730957, -1.5089651346206665, 6.1244215965271, -0.24349994957447052, -0.9556481838226318, -1.2237235307693481, 0.878662109375, 0.29248046875, -0.381591796875
72, 596838639, -7.383188724517822, -1.5049619674682617, 6.116401195526123, -0.18729287385940552, -0.9322382211685181, -1.2622066736221313, 0.87890625, 0.29150390625, -0.381103515625
73, 596855306, -7.377220630645752, -1.5107046365737915, 6.089024066925049, -0.19080179929733276, -0.9256941676139832, -1.3056329488754272, 0.879150390625, 0.29248046875, -0.382080078125
74, 596871973, -7.3769097328186035, -1.5193637609481812, 6.105433464050293, -0.18517982959747314, -0.8602409958839417, -1.3560643196105957, 0.877197265625, 0.2919921875, -0.382080078125
75, 596888640, -7.364014148712158, -1.5016124248504639, 6.10895299911499, -0.16608554124832153, -0.7717745900154114, -1.2167952060699463, 0.876708984375, 0.290283203125, -0.381591796875
76, 596905307, -7.363694667816162, -1.5106356143951416, 6.1077704429626465, -0.18845824897289276, -0.7208822965621948, -1.1706029176712036, 0.877197265625, 0.2919921875, -0.380615234375
77, 596921974, -7.372982025146484, -1.5181068181991577, 6.116621971130371, -0.14833594858646393, -0.8139587640762329, -1.0763994455337524, 0.876708984375, 0.29150390625, -0.3828125
78, 596938641, -7.364877700805664, -1.4929059743881226, 6.1290812492370605, -0.12564308941364288, -0.8264833688735962, -0.9884580373764038, 0.878173828125, 0.29248046875, -0.381591796875
79, 596955308, -7.376456260681152, -1.500534176826477, 6.142307758331299, -0.20816081762313843, -0.8568919897079468, -1.1800603866577148, 0.877685546875, 0.291015625, -0.3837890625
80, 596971975, -7.384045124053955, -1.4965429306030273, 6.148493766784668, -0.24145092070102692, -0.7862714529037476, -1.2340837717056274, 0.87890625, 0.290283203125, -0.381591796875
81, 596988642, -7.37606954574585, -1.5032402276992798, 6.129687309265137, -0.28421130776405334, -0.8329121470451355, -1.2813904285430908, 0.877685546875, 0.29443359375, -0.382080078125
82, 597005309, -7.368260383605957, -1.5080467462539673, 6.12747859954834, -0.1693255603313446, -0.7966830134391785, -1.2866538763046265, 0.877685546875, 0.2919921875, -0.381103515625
83, 597021976, -7.3638763427734375, -1.5102808475494385, 6.1644721031188965, -0.22911837697029114, -0.792392909526825, -1.1244871616363525, 0.877197265625, 0.29150390625, -0.382080078125
84, 597038643, -7.3632612228393555, -1.5071886777877808, 6.144229888916016, -0.3058156371116638, -0.7949926257133484, -1.1958184242248535, 0.879638671875, 0.294921875, -0.38330078125
85, 597055310, -7.378384113311768, -1.5184293985366821, 6.125636100769043, -0.23804442584514618, -0.7777168154716492, -1.057586669921875, 0.877685546875, 0.29443359375, -0.38232421875
86, 597071977, -7.382025718688965, -1.5008939504623413, 6.1047258377075195, -0.23659729957580566, -0.7332274913787842, -1.2365938425064087, 0.878662109375, 0.29150390625, -0.382568359375
87, 597088644, -7.367894649505615, -1.4907846450805664, 6.1211652755737305, -0.2816372513771057, -0.6826937198638916, -1.2127869129180908, 0.874755859375, 0.29296875, -0.380615234375
88, 597105311, -7.383034706115723, -1.5105236768722534, 6.115786075592041, -0.28125306963920593, -0.7290271520614624, -1.2899709939956665, 0.875732421875, 0.29248046875, -0.3828125
89, 597121978, -7.388734817504883, -1.4980783462524414, 6.147764205932617, -0.21891175210475922, -0.6137827634811401, -1.1851764917373657, 0.878173828125, 0.29296875, -0.381591796875
90, 597138645, -7.39890718460083, -1.5014142990112305, 6.107579708099365, -0.21937279403209686, -0.6625365018844604, -1.2477867603302002, 0.878662109375, 0.29052734375, -0.383056640625
91, 597155312, -7.371772289276123, -1.502424716949463, 6.131345272064209, -0.19291485846042633, -0.6489617824554443, -1.318324089050293, 0.879150390625, 0.2919921875, -0.382080078125
92, 597171979, -7.367280960083008, -1.5112316608428955, 6.111603260040283, -0.2883477807044983, -0.6605771780014038, -1.3854166269302368, 0.880126953125, 0.294921875, -0.3828125
93, 597188646, -7.368101119995117, -1.496240496635437, 6.117674350738525, -0.3362947106361389, -0.522217333316803, -1.4133087396621704, 0.87890625, 0.29150390625, -0.381103515625
94, 597205313, -7.372988224029541, -1.5036612749099731, 6.103825092315674, -0.4974755048751831, -0.42016351222991943, -1.444978952407837, 0.876220703125, 0.290283203125, -0.3828125
95, 597221980, -7.378915309906006, -1.5195327997207642, 6.114910125732422, -0.4413708746433258, -0.5475354790687561, -1.4851523637771606, 0.875732421875, 0.2919921875, -0.38232421875
96, 597238647, -7.370937824249268, -1.506984829902649, 6.108116626739502, -0.4275784492492676, -0.5845330357551575, -1.463304877281189, 0.880126953125, 0.29345703125, -0.382568359375
97, 597255314, -7.375965118408203, -1.5065401792526245, 6.109685897827148, -0.4551248550415039, -0.5874657034873962, -1.400963544845581, 0.877685546875, 0.29296875, -0.3837890625
98, 597271981, -7.381602764129639, -1.4933178424835205, 6.100032329559326, -0.4752308130264282, -0.5955464839935303, -1.4428017139434814, 0.877197265625, 0.29296875, -0.381103515625
99, 597288648, -7.375760078430176, -1.515920639038086, 6.140390396118164, -0.43080565333366394, -0.49373602867126465, -1.4732040166854858, 0.875732421875, 0.29248046875, -0.381103515625
100, 597305315, -7.380683422088623, -1.5157713890075684, 6.129838943481445, -0.465331494808197, -0.39630526304244995, -1.514274001121521, 0.877197265625, 0.29443359375, -0.38232421875
101, 597321982, -7.379874229431152, -1.50868558883667, 6.119770050048828, -0.5828810334205627, -0.231333926320076, -1.5255693197250366, 0.877685546875, 0.2939453125, -0.381591796875
102, 597338649, -7.373066425323486, -1.5223841667175293, 6.1185622215271, -0.43723437190055847, -0.4230577349662781, -1.5103936195373535, 0.8798828125, 0.29296875, -0.380615234375
103, 597355316, -7.3766350746154785, -1.5288993120193481, 6.066932201385498, -0.33331090211868286, -0.6703739762306213, -1.3112422227859497, 0.877685546875, 0.29345703125, -0.380126953125
104, 597371983, -7.37391471862793, -1.5256321430206299, 6.123834133148193, -0.1674686223268509, -0.793737530708313, -1.1575530767440796, 0.878662109375, 0.2939453125, -0.380615234375
105, 597388650, -7.383784294128418, -1.508982539176941, 6.127368927001953, -0.19671833515167236, -0.7659989595413208, -1.1388686895370483, 0.876708984375, 0.29296875, -0.381591796875
106, 597405317, -7.387189865112305, -1.4921618700027466, 6.11149787902832, -0.20237872004508972, -0.7484030723571777, -1.2442264556884766, 0.877685546875, 0.2919921875, -0.381103515625
107, 597421984, -7.380720138549805, -1.52023184299469, 6.102120876312256, -0.10365460067987442, -0.6828345656394958, -1.24124276638031, 0.876708984375, 0.29345703125, -0.381591796875
108, 597438651, -7.386125564575195, -1.527366042137146, 6.133579730987549, -0.19463089108467102, -0.7357119917869568, -1.141404390335083, 0.876220703125, 0.2919921875, -0.382080078125
109, 597455318, -7.3812761306762695, -1.5269752740859985, 6.116111755371094, -0.20447896420955658, -0.8600744009017944, -1.0617743730545044, 0.88037109375, 0.2939453125, -0.381591796875
110, 597471985, -7.382168769836426, -1.5160191059112549, 6.112593650817871, -0.14970622956752777, -0.9358879923820496, -1.0707645416259766, 0.875732421875, 0.29296875, -0.380126953125
111, 597488652, -7.374006271362305, -1.4944490194320679, 6.102964878082275, -0.06923113018274307, -0.9555458426475525, -1.099886178970337, 0.876220703125, 0.294921875, -0.381103515625
112, 597505319, -7.386263370513916, -1.4826345443725586, 6.122774124145508, -0.23171809315681458, -0.6550063490867615, -1.154300332069397, 0.876220703125, 0.29248046875, -0.379150390625
113, 597521986, -7.374045372009277, -1.4952377080917358, 6.102200508117676, -0.2971457540988922, -0.625282883644104, -1.32778799533844, 0.877685546875, 0.29443359375, -0.380615234375
114, 597538653, -7.380582809448242, -1.5217019319534302, 6.1200761795043945, -0.2450110763311386, -0.7207284569740295, -1.2739883661270142, 0.87841796875, 0.289794921875, -0.379150390625
115, 597555320, -7.3789496421813965, -1.5178956985473633, 6.11430549621582, -0.1927739828824997, -0.8017414808273315, -1.257724404335022, 0.878173828125, 0.2919921875, -0.381103515625
116, 597571987, -7.381565093994141, -1.5141702890396118, 6.115987300872803, -0.19303010404109955, -0.8347818851470947, -1.194678783416748, 0.877197265625, 0.2939453125, -0.378662109375
117, 597588654, -7.3747053146362305, -1.5101522207260132, 6.101478099822998, -0.19929242134094238, -0.8225518465042114, -1.2064093351364136, 0.875244140625, 0.29296875, -0.380615234375
118, 597605321, -7.375348091125488, -1.5098490715026855, 6.108015060424805, -0.13451789319515228, -0.8493427038192749, -1.157834768295288, 0.874755859375, 0.29345703125, -0.381103515625
119, 597621988, -7.380654335021973, -1.5015496015548706, 6.127933502197266, -0.17998044192790985, -0.8540810346603394, -1.0986310243606567, 0.876708984375, 0.29296875, -0.379638671875
120, 597638655, -7.378742694854736, -1.5075708627700806, 6.1164021492004395, -0.19183912873268127, -0.8982245326042175, -1.2585312128067017, 0.877685546875, 0.29248046875, -0.382080078125
121, 597655322, -7.366018295288086, -1.5183840990066528, 6.12251615524292, -0.23212787508964539, -0.8878769874572754, -1.2273221015930176, 0.877197265625, 0.2919921875, -0.379150390625
122, 597671989, -7.368701934814453, -1.5083458423614502, 6.11890172958374, -0.18824054300785065, -0.8380988240242004, -1.2175893783569336, 0.87939453125, 0.2919921875, -0.382080078125
123, 597688656, -7.371539115905762, -1.507494330406189, 6.114271640777588, -0.156173437833786, -0.9041666984558105, -1.2199201583862305, 0.877685546875, 0.2919921875, -0.381591796875
124, 597705323, -7.370219707489014, -1.5013092756271362, 6.105504512786865, -0.22431600093841553, -0.8306070566177368, -1.2828503847122192, 0.878173828125, 0.29345703125, -0.3837890625
125, 597721990, -7.375690937042236, -1.510780930519104, 6.109731197357178, -0.34675753116607666, -0.6324414610862732, -1.2958873510360718, 0.8779296875, 0.29052734375, -0.380126953125
126, 597738657, -7.388162612915039, -1.4957972764968872, 6.109072685241699, -0.32350122928619385, -0.5676542520523071, -1.3564485311508179, 0.876708984375, 0.29345703125, -0.381591796875
127, 597755324, -7.379209041595459, -1.5193315744400024, 6.1029534339904785, -0.39010706543922424, -0.6471304893493652, -1.3488160371780396, 0.878173828125, 0.294921875, -0.38232421875
128, 597771991, -7.377740859985352, -1.5020740032196045, 6.137092113494873, -0.3162783980369568, -0.7325616478919983, -1.3233568668365479, 0.877197265625, 0.29443359375, -0.381591796875
129, 597788658, -7.3828253746032715, -1.5016058683395386, 6.132959365844727, -0.4543949365615845, -0.7471352219581604, -1.4163182973861694, 0.875732421875, 0.29296875, -0.381591796875
130, 597805325, -7.373870372772217, -1.5164579153060913, 6.092430591583252, -0.34702643752098083, -0.7161310315132141, -1.4602952003479004, 0.87841796875, 0.2919921875, -0.379150390625
131, 597821992, -7.372055530548096, -1.527199625968933, 6.111079216003418, -0.31827619671821594, -0.7822502851486206, -1.2642043828964233, 0.878173828125, 0.29296875, -0.381103515625
132, 597838659, -7.38456392288208, -1.5359504222869873, 6.106664180755615, -0.2792809009552002, -0.815085768699646, -1.2197792530059814, 0.87939453125, 0.291015625, -0.379638671875
133, 597855326, -7.376988887786865, -1.5292181968688965, 6.1207966804504395, -0.29154935479164124, -0.7385806441307068, -1.2728103399276733, 0.87939453125, 0.29248046875, -0.381591796875
134, 597871993, -7.383213996887207, -1.5059456825256348, 6.134006977081299, -0.34417062997817993, -0.5924345254898071, -1.3724819421768188, 0.878173828125, 0.2939453125, -0.381591796875
135, 597888660, -7.369930744171143, -1.5189167261123657, 6.076287746429443, -0.3136530816555023, -0.6700922250747681, -1.4257692098617554, 0.875732421875, 0.29296875, -0.381591796875
136, 597905327, -7.374960899353027, -1.5345118045806885, 6.102456092834473, -0.20391550660133362, -0.7977715730667114, -1.2362993955612183, 0.876708984375, 0.2939453125, -0.379638671875
137, 597921994, -7.381289482116699, -1.5120420455932617, 6.111759185791016, -0.14546732604503632, -0.7502983808517456, -1.2156940698623657, 0.877197265625, 0.29443359375, -0.381591796875
138, 597938661, -7.3767828941345215, -1.5013765096664429, 6.096897602081299, -0.2809969186782837, -0.7846322059631348, -1.302520990371704, 0.878173828125, 0.29443359375, -0.382080078125
139, 597955328, -7.364768981933594, -1.5028972625732422, 6.099217891693115, -0.3365124464035034, -0.7558179497718811, -1.3598039150238037, 0.879638671875, 0.2939453125, -0.381103515625
140, 597971995, -7.386110305786133, -1.5394624471664429, 6.11148738861084, -0.27636101841926575, -0.873674750328064, -1.2421774864196777, 0.877685546875, 0.2939453125, -0.381591796875
141, 597988662, -7.383187294006348, -1.531352162361145, 6.122625350952148, -0.19072498381137848, -0.8192222118377686, -1.196855902671814, 0.875732421875, 0.29345703125, -0.380615234375
142, 598005329, -7.373149394989014, -1.522165298461914, 6.116861820220947, -0.21272626519203186, -0.7373639941215515, -1.115164041519165, 0.877197265625, 0.29248046875, -0.379638671875
143, 598021996, -7.38092565536499, -1.5155161619186401, 6.119831562042236, -0.13578574359416962, -0.7506954073905945, -1.088552474975586, 0.876220703125, 0.29443359375, -0.380126953125
144, 598038663, -7.364556789398193, -1.518728494644165, 6.109952449798584, -0.08827417343854904, -0.811423122882843, -1.014057993888855, 0.877197265625, 0.29345703125, -0.382080078125
145, 598055330, -7.387237071990967, -1.509785532951355, 6.139430999755859, -0.046371787786483765, -0.833782970905304, -1.0643357038497925, 0.878173828125, 0.29443359375, -0.3828125
146, 598071997, -7.388318061828613, -1.502541422843933, 6.109156131744385, -0.07815714925527573, -0.8437719345092773, -0.9429571628570557, 0.878662109375, 0.29541015625, -0.380126953125
147, 598088664, -7.390050411224365, -1.5202138423919678, 6.094298839569092, -0.17316745221614838, -0.8301844000816345, -0.9256301522254944, 0.876708984375, 0.2939453125, -0.379638671875
148, 598105331, -7.379108428955078, -1.5100866556167603, 6.122811794281006, -0.05807679891586304, -0.8182361125946045, -0.9017847776412964, 0.878173828125, 0.29296875, -0.380615234375
149, 598121998, -7.375877380371094, -1.5141856670379639, 6.10732364654541, -0.02791784144937992, -0.9474265575408936, -0.8981605172157288, 0.87841796875, 0.2919921875, -0.378662109375
150, 598138665, -7.381701946258545, -1.4805190563201904, 6.128211975097656, -0.13761702179908752, -0.9173315763473511, -0.9156796336174011, 0.87939453125, 0.29150390625, -0.382080078125
151, 598155332, -7.38222599029541, -1.4920357465744019, 6.140852451324463, -0.143930584192276, -0.8481134176254272, -1.1791831254959106, 0.878662109375, 0.2939453125, -0.380615234375
152, 598171999, -7.388465404510498, -1.5201314687728882, 6.112408638000488, -0.271340936422348, -0.7753092646598816, -1.2497973442077637, 0.876708984375, 0.2939453125, -0.381591796875
153, 598188666, -7.388262748718262, -1.527160406112671, 6.100998878479004, -0.22380375862121582, -0.8361137509346008, -1.2101616859436035, 0.877197265625, 0.29345703125, -0.381103515625
154, 598205333, -7.369570732116699, -1.5047675371170044, 6.10845947265625, -0.16640570759773254, -0.9603096842765808, -1.2313945293426514, 0.877685546875, 0.2919921875, -0.380126953125
155, 598222000, -7.373867988586426, -1.5316358804702759, 6.106082439422607, -0.25006961822509766, -0.9739229679107666, -1.318426489830017, 0.879150390625, 0.29541015625, -0.38330078125
156, 598238667, -7.3834357261657715, -1.5021995306015015, 6.13131856918335, -0.26650017499923706, -0.800768256187439, -1.2343271970748901, 0.879638671875, 0.29345703125, -0.381591796875
157, 598255334, -7.365789890289307, -1.5218286514282227, 6.14532470703125, -0.27802586555480957, -0.6921831965446472, -1.3070160150527954, 0.879150390625, 0.29248046875, -0.382080078125
158, 598272001, -7.370178699493408, -1.504604697227478, 6.110827445983887, -0.3632393479347229, -0.5872735977172852, -1.324471116065979, 0.877197265625, 0.2939453125, -0.380615234375
159, 598288668, -7.368790626525879, -1.5168131589889526, 6.106179237365723, -0.3023450970649719, -0.5955208539962769, -1.2187930345535278, 0.877685546875, 0.29150390625, -0.38427734375
160, 598305335, -7.380971908569336, -1.5161463022232056, 6.1131672859191895, -0.24446040391921997, -0.6193918585777283, -1.2011715173721313, 0.87841796875, 0.29150390625, -0.380615234375
161, 598322002, -7.389807224273682, -1.5180734395980835, 6.104914665222168, -0.25319433212280273, -0.5821382403373718, -1.1496005058288574, 0.877685546875, 0.29345703125, -0.376708984375
162, 598338669, -7.3757829666137695, -1.5117067098617554, 6.116635799407959, -0.33115941286087036, -0.595905065536499, -1.2694934606552124, 0.877197265625, 0.29345703125, -0.382080078125
163, 598355336, -7.373661041259766, -1.5142368078231812, 6.1142048835754395, -0.2799660265445709, -0.7772108912467957, -1.2219114303588867, 0.877685546875, 0.29296875, -0.379638671875
164, 598372003, -7.3853631019592285, -1.5109453201293945, 6.126594543457031, -0.2896668314933777, -0.8127678632736206, -1.1893640756607056, 0.878173828125, 0.29296875, -0.381103515625
165, 598388670, -7.385737895965576, -1.5083551406860352, 6.120708465576172, -0.3486400544643402, -0.7902798056602478, -1.329196572303772, 0.877197265625, 0.2919921875, -0.380126953125
166, 598405337, -7.388648986816406, -1.5148817300796509, 6.161404132843018, -0.29696646332740784, -0.7259919047355652, -1.301522135734558, 0.878173828125, 0.2919921875, -0.378662109375
167, 598422004, -7.3838210105896, -1.5022941827774048, 6.119824409484863, -0.3507915437221527, -0.4337382912635803, -1.2953367233276367, 0.877685546875, 0.29296875, -0.381591796875
168, 598438671, -7.376036167144775, -1.5230309963226318, 6.103747367858887, -0.4423057436943054, -0.5309383869171143, -1.314892053604126, 0.877197265625, 0.29296875, -0.380615234375
169, 598455338, -7.3900465965271, -1.532833456993103, 6.115041255950928, -0.302831768989563, -0.59153813123703, -1.2724133729934692, 0.877685546875, 0.29345703125, -0.38330078125
170, 598472005, -7.3842902183532715, -1.51939857006073, 6.132452487945557, -0.25943103432655334, -0.6041908264160156, -1.3209621906280518, 0.878662109375, 0.29296875, -0.382080078125
171, 598488672, -7.37779426574707, -1.5250301361083984, 6.115548133850098, -0.30694258213043213, -0.7713648676872253, -1.1758791208267212, 0.876708984375, 0.294921875, -0.381591796875
172, 598505339, -7.378630638122559, -1.5122706890106201, 6.105342864990234, -0.23285788297653198, -0.7865917086601257, -1.1886471509933472, 0.874267578125, 0.29345703125, -0.379638671875
173, 598522006, -7.381940841674805, -1.5068862438201904, 6.126765727996826, -0.20780862867832184, -0.760082483291626, -1.2191259860992432, 0.877685546875, 0.29345703125, -0.380615234375
174, 598538673, -7.3876519203186035, -1.5318561792373657, 6.088269233703613, -0.25596052408218384, -0.7261712551116943, -1.2803020477294922, 0.879150390625, 0.29345703125, -0.380126953125
175, 598555340, -7.385310173034668, -1.5177056789398193, 6.113155364990234, -0.3190574049949646, -0.6693751215934753, -1.2847970724105835, 0.877685546875, 0.29345703125, -0.382080078125
176, 598572007, -7.3802995681762695, -1.5149743556976318, 6.113576412200928, -0.3088507652282715, -0.462053120136261, -1.2509114742279053, 0.876708984375, 0.29248046875, -0.382080078125
177, 598588674, -7.3838725090026855, -1.5077179670333862, 6.130254745483398, -0.37500831484794617, -0.42924320697784424, -1.263026237487793, 0.877685546875, 0.29443359375, -0.380615234375
178, 598605341, -7.3739800453186035, -1.5436166524887085, 6.116231918334961, -0.4188188910484314, -0.5495076775550842, -1.3569096326828003, 0.876708984375, 0.2939453125, -0.3828125
179, 598622008, -7.376512050628662, -1.501905083656311, 6.112359523773193, -0.3361026346683502, -0.6902109384536743, -1.2631797790527344, 0.877685546875, 0.2939453125, -0.381103515625
180, 598638675, -7.370301723480225, -1.5242522954940796, 6.119571208953857, -0.3985336422920227, -0.5817924737930298, -1.2900221347808838, 0.878662109375, 0.291015625, -0.382080078125
181, 598655342, -7.368856906890869, -1.5125237703323364, 6.134328365325928, -0.4588002860546112, -0.6575164198875427, -1.3846482038497925, 0.87841796875, 0.2919921875, -0.379150390625
182, 598672009, -7.380866050720215, -1.5330629348754883, 6.110719680786133, -0.43183010816574097, -0.7191789746284485, -1.3095901012420654, 0.877197265625, 0.29248046875, -0.382080078125
183, 598688676, -7.380804061889648, -1.527481198310852, 6.119029998779297, -0.3813730776309967, -0.662165105342865, -1.3121641874313354, 0.876708984375, 0.29443359375, -0.381103515625
184, 598705343, -7.388629913330078, -1.5086824893951416, 6.085597515106201, -0.4133889973163605, -0.7280409932136536, -1.323049545288086, 0.875732421875, 0.2919921875, -0.379150390625
185, 598722010, -7.375478267669678, -1.5116907358169556, 6.128564834594727, -0.4255549907684326, -0.5758503079414368, -1.266701579093933, 0.875732421875, 0.29248046875, -0.380615234375
186, 598738677, -7.383692264556885, -1.511033058166504, 6.120375156402588, -0.3951527178287506, -0.524637758731842, -1.3792567253112793, 0.877685546875, 0.2939453125, -0.3828125
187, 598755344, -7.376879692077637, -1.5087605714797974, 6.092296600341797, -0.38968440890312195, -0.5090908408164978, -1.4316602945327759, 0.878173828125, 0.2939453125, -0.379150390625
188, 598772011, -7.3711137771606445, -1.5296787023544312, 6.10946798324585, -0.5392754077911377, -0.4494004547595978, -1.4169203042984009, 0.878173828125, 0.294921875, -0.380615234375
189, 598788678, -7.382080554962158, -1.5199368000030518, 6.11250114440918, -0.6617810130119324, -0.24086184799671173, -1.557444453239441, 0.877197265625, 0.294921875, -0.376708984375
190, 598805345, -7.397379398345947, -1.5116159915924072, 6.098938465118408, -0.5805630683898926, -0.3492804169654846, -1.5557283163070679, 0.877197265625, 0.2939453125, -0.378173828125
191, 598822012, -7.395877361297607, -1.5380245447158813, 6.106576442718506, -0.740168571472168, -0.4514622092247009, -1.7135663032531738, 0.878173828125, 0.294921875, -0.379638671875
192, 598838679, -7.338929176330566, -1.4792439937591553, 6.10667085647583, -1.062747836112976, -0.5704845190048218, -1.9755843877792358, 0.878173828125, 0.29443359375, -0.379638671875
193, 598855346, -7.398374557495117, -1.54037344455719, 6.1271281242370605, -0.9701578617095947, 0.09296770393848419, -2.0810446739196777, 0.87890625, 0.294921875, -0.37646484375
194, 598872013, -7.38838005065918, -1.5325472354888916, 6.074015140533447, -0.9571338295936584, 0.16934478282928467, -1.924410343170166, 0.879150390625, 0.297119140625, -0.379150390625
195, 598888680, -7.389456272125244, -1.5214412212371826, 6.086291790008545, -0.8651329278945923, 0.05045061185956001, -1.849031925201416, 0.879150390625, 0.2939453125, -0.381591796875
196, 598905347, -7.39222526550293, -1.556946873664856, 6.092719078063965, -0.8210534453392029, -0.13981971144676208, -1.8359051942825317, 0.877685546875, 0.29443359375, -0.377685546875
197, 598922014, -7.393980979919434, -1.524480938911438, 6.087866306304932, -0.766383171081543, -0.004661511164158583, -1.7518061399459839, 0.877197265625, 0.2958984375, -0.378662109375
198, 598938681, -7.399074077606201, -1.5411641597747803, 6.10605525970459, -0.7172452211380005, -0.05787189304828644, -1.6902844905853271, 0.879150390625, 0.29541015625, -0.378173828125
199, 598955348, -7.387880325317383, -1.5637931823730469, 6.083030700683594, -0.5628774166107178, -0.21740059554576874, -1.456555724143982, 0.876708984375, 0.2939453125, -0.379150390625
200, 598972015, -7.3860182762146, -1.5533905029296875, 6.0976738929748535, -0.41235801577568054, -0.2661479413509369, -1.320379376411438, 0.875732421875, 0.29541015625, -0.379150390625
201, 598988682, -7.397887229919434, -1.5494575500488281, 6.09898567199707, -0.4686868488788605, -0.15594293177127838, -1.2760632038116455, 0.877685546875, 0.296142578125, -0.378173828125
202, 599005349, -7.401152610778809, -1.5601710081100464, 6.073022365570068, -0.2913316488265991, -0.3458866775035858, -1.0948020219802856, 0.878662109375, 0.296142578125, -0.379150390625
203, 599022016, -7.388818740844727, -1.573585867881775, 6.097503662109375, -0.04731946438550949, -0.7311529517173767, -1.0199745893478394, 0.879150390625, 0.298095703125, -0.378173828125
204, 599038683, -7.4025726318359375, -1.551774024963379, 6.070345401763916, -0.06491538882255554, -0.8752883672714233, -0.9304965138435364, 0.878173828125, 0.29541015625, -0.377685546875
205, 599055350, -7.3861613273620605, -1.5424391031265259, 6.0755510330200195, -0.04436119273304939, -0.8535559773445129, -0.9449548721313477, 0.879150390625, 0.296142578125, -0.378173828125
206, 599072017, -7.400572776794434, -1.5498392581939697, 6.095203399658203, -0.1033216342329979, -0.975946307182312, -1.0464451313018799, 0.877685546875, 0.296630859375, -0.379150390625
207, 599088684, -7.4058966636657715, -1.5259307622909546, 6.1001787185668945, -0.0347820483148098, -0.941561222076416, -1.1367555856704712, 0.878662109375, 0.296142578125, -0.37646484375
208, 599105351, -7.396256446838379, -1.5344998836517334, 6.0948991775512695, -0.15625667572021484, -0.8561365604400635, -1.1866683959960938, 0.877685546875, 0.295654296875, -0.377685546875
209, 599122018, -7.396852970123291, -1.5713279247283936, 6.105849742889404, -0.15943904221057892, -0.8429907560348511, -1.1038049459457397, 0.877685546875, 0.296142578125, -0.377197265625
210, 599138685, -7.401655197143555, -1.5607787370681763, 6.079960346221924, -0.11501382291316986, -0.6738573312759399, -0.9222620129585266, 0.878662109375, 0.29345703125, -0.379150390625
211, 599155352, -7.399480819702148, -1.5525747537612915, 6.105085849761963, 0.009611165151000023, -0.6686963438987732, -0.8647359013557434, 0.878662109375, 0.29345703125, -0.378173828125
212, 599172019, -7.374545097351074, -1.5447499752044678, 6.077358722686768, 0.035134218633174896, -0.6041011214256287, -0.8079782128334045, 0.878173828125, 0.29345703125, -0.377685546875
213, 599188686, -7.397895336151123, -1.5363578796386719, 6.092879295349121, -0.049035508185625076, -0.6035376191139221, -0.7434341907501221, 0.877685546875, 0.294921875, -0.376708984375
214, 599205353, -7.395541191101074, -1.5478075742721558, 6.085370063781738, -0.07332915812730789, -0.6305718421936035, -0.7722868919372559, 0.875732421875, 0.29541015625, -0.377685546875
215, 599222020, -7.387214183807373, -1.5265719890594482, 6.106459617614746, -0.028225192800164223, -0.5026876330375671, -0.63823002576828, 0.878662109375, 0.2939453125, -0.379638671875
216, 599238687, -7.402513027191162, -1.5236788988113403, 6.071537971496582, 0.1779506355524063, -0.595123827457428, -0.41694915294647217, 0.88134765625, 0.2939453125, -0.377685546875
217, 599255354, -7.409664630889893, -1.5654993057250977, 6.083284378051758, 0.3238597512245178, -0.9976401925086975, -0.18071040511131287, 0.879150390625, 0.2939453125, -0.380615234375
218, 599272021, -7.4033403396606445, -1.5659910440444946, 6.081558704376221, 0.6500439643859863, -1.3719698190689087, 0.1903855949640274, 0.878173828125, 0.29443359375, -0.378662109375
219, 599288688, -7.409466743469238, -1.5188241004943848, 6.093803405761719, 0.7740989327430725, -1.6998505592346191, 0.23262090981006622, 0.877685546875, 0.29248046875, -0.378662109375
220, 599305355, -7.3905158042907715, -1.5201696157455444, 6.1012043952941895, 0.5748322606086731, -1.4195584058761597, 0.0905216857790947, 0.875732421875, 0.29345703125, -0.378173828125
221, 599322022, -7.392573356628418, -1.496495246887207, 6.099310874938965, 0.1770157814025879, -0.8941649794578552, -0.3244488835334778, 0.87841796875, 0.2919921875, -0.378173828125
222, 599338689, -7.394826412200928, -1.5083553791046143, 6.114335060119629, -0.05213464796543121, -0.7816739678382874, -0.6035248041152954, 0.878173828125, 0.29248046875, -0.379638671875
223, 599355356, -7.403680324554443, -1.5072873830795288, 6.086352825164795, -0.1040387824177742, -0.6739341616630554, -0.592396080493927, 0.87841796875, 0.29248046875, -0.378662109375
224, 599372023, -7.392870903015137, -1.5063129663467407, 6.103457450866699, -0.21756704151630402, -0.8517757654190063, -0.9143604040145874, 0.87890625, 0.2939453125, -0.377197265625
225, 599388690, -7.401891231536865, -1.4922409057617188, 6.095426082611084, -0.2884502112865448, -0.7775759696960449, -1.1547869443893433, 0.876708984375, 0.29296875, -0.37548828125
226, 599405357, -7.3773932456970215, -1.4958778619766235, 6.043994903564453, -0.20965275168418884, -0.6649825572967529, -1.271350383758545, 0.877685546875, 0.2919921875, -0.379638671875
227, 599422024, -7.400172233581543, -1.5300061702728271, 6.067722320556641, -0.23710958659648895, -0.7046822309494019, -1.358023762702942, 0.87890625, 0.2919921875, -0.378662109375
228, 599438691, -7.392197132110596, -1.5097060203552246, 6.098318099975586, -0.21567171812057495, -0.6757526397705078, -1.1902861595153809, 0.878662109375, 0.29296875, -0.380126953125
229, 599455358, -7.393248558044434, -1.5175327062606812, 6.114416599273682, -0.19132687151432037, -0.7142870426177979, -1.0568439960479736, 0.87939453125, 0.29150390625, -0.380615234375
230, 599472025, -7.39196252822876, -1.5022037029266357, 6.082618236541748, -0.3575020730495453, -0.6729352474212646, -1.0806766748428345, 0.87841796875, 0.2919921875, -0.377685546875
231, 599488692, -7.398994445800781, -1.4992066621780396, 6.0698065757751465, -0.4701851010322571, -0.45416441559791565, -1.1344889402389526, 0.876708984375, 0.29150390625, -0.378662109375
232, 599505359, -7.385123252868652, -1.510239839553833, 6.093229293823242, -0.46795687079429626, -0.46528032422065735, -1.3221148252487183, 0.878173828125, 0.29345703125, -0.378173828125
233, 599522026, -7.378713130950928, -1.5371280908584595, 6.087118148803711, -0.43142029643058777, -0.5432837605476379, -1.2522945404052734, 0.87841796875, 0.29296875, -0.378173828125
234, 599538693, -7.386981010437012, -1.5169025659561157, 6.090517044067383, -0.532078206539154, -0.5320653915405273, -1.0745807886123657, 0.87939453125, 0.2919921875, -0.378662109375
235, 599555360, -7.403428077697754, -1.520412564277649, 6.087576866149902, -0.41917747259140015, -0.5235363841056824, -1.0355726480484009, 0.88037109375, 0.289794921875, -0.380126953125
236, 599572027, -7.409148216247559, -1.488035798072815, 6.121297836303711, -0.2909986972808838, -0.477664053440094, -1.016926646232605, 0.8779296875, 0.29150390625, -0.378173828125
237, 599588694, -7.3933892250061035, -1.505062222480774, 6.11904239654541, -0.2863371968269348, -0.6617040634155273, -0.9512429237365723, 0.876220703125, 0.290771484375, -0.3759765625
238, 599605361, -7.413315773010254, -1.5035738945007324, 6.093759059906006, -0.2519264817237854, -0.7376329302787781, -1.1758021116256714, 0.878173828125, 0.29296875, -0.377197265625
239, 599622028, -7.412439346313477, -1.5132249593734741, 6.087907791137695, -0.2298227697610855, -0.6790952086448669, -1.200300693511963, 0.8779296875, 0.29248046875, -0.37646484375
240, 599638695, -7.400974273681641, -1.5094913244247437, 6.093156814575195, -0.2545006275177002, -0.6947957277297974, -1.1532245874404907, 0.87890625, 0.2919921875, -0.377197265625
241, 599655362, -7.401773452758789, -1.4899749755859375, 6.113037109375, -0.17599767446517944, -0.7872191071510315, -1.131108045578003, 0.87841796875, 0.29248046875, -0.377685546875
242, 599672029, -7.39724588394165, -1.5023843050003052, 6.08859920501709, -0.12822997570037842, -0.7422431707382202, -1.090960144996643, 0.877685546875, 0.29150390625, -0.380126953125
243, 599688696, -7.401168346405029, -1.4909192323684692, 6.099202632904053, -0.07574956119060516, -0.6985095143318176, -1.1063790321350098, 0.878173828125, 0.29345703125, -0.37646484375
244, 599705363, -7.39937686920166, -1.4934443235397339, 6.082834243774414, -0.11167136579751968, -0.803905725479126, -1.1079541444778442, 0.876708984375, 0.2939453125, -0.377197265625
245, 599722030, -7.402595043182373, -1.510051965713501, 6.061672687530518, -0.09479260444641113, -0.8970464468002319, -0.9865756034851074, 0.8779296875, 0.291015625, -0.377197265625
246, 599738697, -7.397181034088135, -1.5206801891326904, 6.078841209411621, -0.024690639227628708, -1.0107923746109009, -0.9377833604812622, 0.879150390625, 0.29443359375, -0.378662109375
247, 599755364, -7.396482467651367, -1.4918502569198608, 6.09398078918457, 0.08310680091381073, -1.0879377126693726, -0.8325920104980469, 0.87939453125, 0.29296875, -0.377685546875
248, 599772031, -7.392758846282959, -1.5409493446350098, 6.1014838218688965, 0.1593814194202423, -1.3371878862380981, -0.763002336025238, 0.87939453125, 0.29150390625, -0.380126953125
249, 599788698, -7.404080390930176, -1.5053349733352661, 6.079981327056885, 0.18122905492782593, -1.1702569723129272, -0.7482749819755554, 0.87841796875, 0.29150390625, -0.377197265625
250, 599805365, -7.386247634887695, -1.5122742652893066, 6.114088535308838, 0.12431764602661133, -1.1912082433700562, -0.8427731394767761, 0.876708984375, 0.290771484375, -0.378173828125
251, 599822032, -7.400804042816162, -1.4910180568695068, 6.101810932159424, -0.04269637167453766, -1.1967918872833252, -0.9443274736404419, 0.87841796875, 0.29052734375, -0.379150390625
252, 599838699, -7.392380237579346, -1.4773509502410889, 6.114867210388184, -0.07788821309804916, -1.0594052076339722, -0.9438278675079346, 0.877197265625, 0.2919921875, -0.381103515625
253, 599855366, -7.403881072998047, -1.4760959148406982, 6.117712020874023, -0.14556977152824402, -0.6311865448951721, -1.0829817056655884, 0.8798828125, 0.291015625, -0.379150390625
254, 599872033, -7.3914995193481445, -1.4894330501556396, 6.102884292602539, -0.24588190019130707, -0.5756582617759705, -1.171217441558838, 0.87841796875, 0.2919921875, -0.379150390625
255, 599888700, -7.384110927581787, -1.4897478818893433, 6.081855773925781, -0.22485391795635223, -0.5587282776832581, -1.1606138944625854, 0.878173828125, 0.2919921875, -0.378662109375
256, 599905367, -7.407149314880371, -1.5086532831192017, 6.099246025085449, -0.21121512353420258, -0.6468871831893921, -1.0867213010787964, 0.87890625, 0.288818359375, -0.37646484375
257, 599922034, -7.405496597290039, -1.4948562383651733, 6.1067891120910645, -0.14511515200138092, -0.825324296951294, -1.1023898124694824, 0.87744140625, 0.290283203125, -0.37744140625
258, 599938701, -7.382931232452393, -1.4946792125701904, 6.09953498840332, -0.19753795862197876, -0.7766155004501343, -1.1830251216888428, 0.8798828125, 0.2900390625, -0.37744140625
259, 599955368, -7.387575626373291, -1.481536626815796, 6.108305931091309, -0.30973437428474426, -0.59922194480896, -1.3958410024642944, 0.8798828125, 0.291015625, -0.379150390625
260, 599972035, -7.399427890777588, -1.4942073822021484, 6.105968952178955, -0.43239355087280273, -0.486013799905777, -1.4913122653961182, 0.8779296875, 0.29052734375, -0.379638671875
261, 599988702, -7.4061055183410645, -1.4895715713500977, 6.102598667144775, -0.5772589445114136, -0.35786059498786926, -1.6976608037948608, 0.878662109375, 0.29345703125, -0.377685546875
262, 600005369, -7.396047592163086, -1.5209749937057495, 6.083619594573975, -0.5360353589057922, -0.3476411998271942, -1.6943186521530151, 0.87646484375, 0.289306640625, -0.376953125
263, 600022036, -7.399170398712158, -1.5072989463806152, 6.097847938537598, -0.5698698163032532, -0.3542364835739136, -1.5886149406433105, 0.87939453125, 0.29052734375, -0.378173828125
264, 600038703, -7.403706073760986, -1.496558666229248, 6.080907344818115, -0.5620836019515991, -0.3810786008834839, -1.6166737079620361, 0.880859375, 0.29150390625, -0.382080078125
265, 600055370, -7.400089263916016, -1.5194249153137207, 6.077793598175049, -0.5218843817710876, -0.4700186252593994, -1.5776399374008179, 0.87939453125, 0.2919921875, -0.380126953125
266, 600072037, -7.396389961242676, -1.5209506750106812, 6.115420818328857, -0.4924938380718231, -0.6170612573623657, -1.4546606540679932, 0.87890625, 0.29150390625, -0.37744140625
267, 600088704, -7.416955947875977, -1.5010439157485962, 6.087249279022217, -0.4383997619152069, -0.606214165687561, -1.421850562095642, 0.878173828125, 0.29296875, -0.378662109375
268, 600105371, -7.3981099128723145, -1.5153120756149292, 6.063636779785156, -0.3187884986400604, -0.7089852094650269, -1.4182137250900269, 0.87744140625, 0.29150390625, -0.376953125
269, 600122038, -7.408482074737549, -1.5176066160202026, 6.096487522125244, -0.18060795962810516, -0.9153851866722107, -1.209892749786377, 0.87744140625, 0.29150390625, -0.37646484375
270, 600138705, -7.402486324310303, -1.5089032649993896, 6.085026264190674, -0.17106081545352936, -0.7943203449249268, -1.2035856246948242, 0.87890625, 0.29345703125, -0.378662109375
271, 600155372, -7.403820037841797, -1.5096875429153442, 6.071707248687744, -0.3182249665260315, -0.8053529262542725, -1.2012226581573486, 0.879150390625, 0.29345703125, -0.379638671875
272, 600172039, -7.402030944824219, -1.5002466440200806, 6.069840431213379, -0.32876458764076233, -0.7627078294754028, -1.302994728088379, 0.8779296875, 0.29248046875, -0.377685546875
273, 600188706, -7.404811382293701, -1.509118914604187, 6.088979244232178, -0.25332239270210266, -0.7752835750579834, -1.3836876153945923, 0.87890625, 0.29296875, -0.377197265625
274, 600205373, -7.403359889984131, -1.5173808336257935, 6.099541187286377, -0.2933806777000427, -0.7599928379058838, -1.4122331142425537, 0.877197265625, 0.2919921875, -0.37646484375
275, 600222040, -7.406030178070068, -1.5337631702423096, 6.1133551597595215, -0.22003872692584991, -0.7811105847358704, -1.4170739650726318, 0.8779296875, 0.29345703125, -0.3759765625
276, 600238707, -7.405084609985352, -1.5018556118011475, 6.107607364654541, -0.2903071343898773, -0.5545021295547485, -1.233494758605957, 0.87890625, 0.2919921875, -0.380126953125
277, 600255374, -7.404964447021484, -1.5020660161972046, 6.096020698547363, -0.2999119162559509, -0.621325671672821, -1.1396499872207642, 0.87841796875, 0.29345703125, -0.37646484375
278, 600272041, -7.39104700088501, -1.5066395998001099, 6.093000888824463, -0.40091559290885925, -0.66617351770401, -1.161471962928772, 0.87890625, 0.29150390625, -0.37744140625
279, 600288708, -7.3971943855285645, -1.5205496549606323, 6.098886489868164, -0.2549231946468353, -0.575286865234375, -1.1775951385498047, 0.878173828125, 0.29296875, -0.379638671875
280, 600305375, -7.393891334533691, -1.5171161890029907, 6.078326225280762, -0.22207491099834442, -0.6829370260238647, -1.1708333492279053, 0.877197265625, 0.29248046875, -0.37646484375
281, 600322042, -7.4003705978393555, -1.5021079778671265, 6.100279331207275, -0.20738603174686432, -0.684806764125824, -1.0594182014465332, 0.87939453125, 0.29345703125, -0.3759765625
282, 600338709, -7.404764175415039, -1.5231887102127075, 6.076751708984375, -0.18092812597751617, -0.7301924824714661, -1.1022682189941406, 0.8779296875, 0.2919921875, -0.3759765625
283, 600355376, -7.402626037597656, -1.496816635131836, 6.0903215408325195, -0.09020792692899704, -0.8073635697364807, -1.108056664466858, 0.87939453125, 0.291015625, -0.378662109375
284, 600372043, -7.396675109863281, -1.497605800628662, 6.095623016357422, -0.14193278551101685, -0.8553617596626282, -1.1444779634475708, 0.8779296875, 0.291015625, -0.377685546875
285, 600388710, -7.400359630584717, -1.517179012298584, 6.09648323059082, -0.028763065114617348, -0.917293131351471, -1.1153050661087036, 0.87939453125, 0.29296875, -0.379150390625
286, 600405377, -7.38655424118042, -1.530776023864746, 6.093268394470215, -0.04775488004088402, -0.9969230890274048, -0.9532021880149841, 0.876708984375, 0.29150390625, -0.376953125
287, 600422044, -7.415799617767334, -1.506731390953064, 6.0841288566589355, 0.008151242509484291, -1.1138195991516113, -0.8776960968971252, 0.8779296875, 0.29150390625, -0.378662109375
288, 600438711, -7.3955078125, -1.4979246854782104, 6.102940082550049, -0.052557263523340225, -1.0785764455795288, -0.906266987323761, 0.88037109375, 0.291015625, -0.379150390625
289, 600455378, -7.392635822296143, -1.4953240156173706, 6.087667465209961, -0.12966428697109222, -0.9534838795661926, -1.0576508045196533, 0.880859375, 0.29248046875, -0.379638671875
290, 600472045, -7.399967193603516, -1.498154640197754, 6.0655412673950195, -0.14316219091415405, -1.0536296367645264, -1.24770987033844, 0.87939453125, 0.2919921875, -0.378662109375
291, 600488712, -7.40125036239624, -1.4992865324020386, 6.081911563873291, -0.16378042101860046, -1.1094012260437012, -1.2222764492034912, 0.87890625, 0.29248046875, -0.3759765625
292, 600505379, -7.399498462677002, -1.472896695137024, 6.103394985198975, -0.17780335247516632, -0.9720787405967712, -1.4336836338043213, 0.8779296875, 0.29150390625, -0.379150390625
293, 600522046, -7.409304618835449, -1.4847415685653687, 6.099050521850586, -0.4278729259967804, -0.9366179704666138, -1.8141729831695557, 0.87841796875, 0.29052734375, -0.377685546875
294, 600538713, -7.42917537689209, -1.5001965761184692, 6.0910749435424805, -0.5286717414855957, -0.8544524908065796, -2.0518717765808105, 0.87890625, 0.2919921875, -0.378173828125
295, 600555380, -7.408326625823975, -1.5107066631317139, 6.078469276428223, -0.4957337975502014, -1.2573274374008179, -2.030395746231079, 0.879638671875, 0.29296875, -0.382080078125
296, 600572047, -7.397668361663818, -1.4934529066085815, 6.092713832855225, -0.508540153503418, -1.4353100061416626, -2.185262680053711, 0.878173828125, 0.29443359375, -0.378173828125
297, 600588714, -7.389679431915283, -1.4930500984191895, 6.108362674713135, -0.5058891773223877, -1.3071951866149902, -2.4470369815826416, 0.87841796875, 0.29296875, -0.377685546875
298, 600605381, -7.376176834106445, -1.5656424760818481, 6.112536907196045, -0.6239894032478333, -1.1055209636688232, -2.4552972316741943, 0.875244140625, 0.29248046875, -0.381103515625
299, 600622048, -7.37931489944458, -1.5754964351654053, 6.1063714027404785, -0.4748210310935974, -1.2529605627059937, -2.089292049407959, 0.878173828125, 0.2939453125, -0.379150390625
300, 600638715, -7.374771595001221, -1.558874487876892, 6.078810691833496, -0.3183530271053314, -1.5776909589767456, -1.7635753154754639, 0.87841796875, 0.291015625, -0.378662109375
301, 600655382, -7.368657112121582, -1.5266860723495483, 6.137513160705566, -0.4271686375141144, -1.4536744356155396, -1.503363013267517, 0.88134765625, 0.29296875, -0.380126953125
302, 600672049, -7.3736772537231445, -1.5008630752563477, 6.110374450683594, -0.4367733299732208, -1.1850098371505737, -1.3518764972686768, 0.878173828125, 0.296142578125, -0.378662109375
303, 600688716, -7.369719505310059, -1.537322998046875, 6.11659049987793, -0.6937327980995178, -0.7554593086242676, -1.7463634014129639, 0.876708984375, 0.29443359375, -0.380615234375
304, 600705383, -7.377233505249023, -1.5038052797317505, 6.1414008140563965, -1.3645294904708862, 0.07416797429323196, -2.41475248336792, 0.876708984375, 0.29541015625, -0.378662109375
305, 600722050, -7.39551305770874, -1.5268443822860718, 6.120155334472656, -1.5877056121826172, 0.764942467212677, -2.8231210708618164, 0.879638671875, 0.295654296875, -0.382080078125
306, 600738717, -7.400756359100342, -1.5373810529708862, 6.0884809494018555, -1.485831379890442, 0.5838223099708557, -2.6654372215270996, 0.878662109375, 0.296142578125, -0.378662109375
307, 600755384, -7.394535064697266, -1.5767710208892822, 6.071727752685547, -1.0367251634597778, 0.23653969168663025, -2.2520735263824463, 0.8798828125, 0.29443359375, -0.378662109375
308, 600772051, -7.370862007141113, -1.5949469804763794, 6.070178508758545, -0.5666682720184326, -0.36775997281074524, -1.6100144386291504, 0.877685546875, 0.296142578125, -0.379150390625
309, 600788718, -7.3653411865234375, -1.574741005897522, 6.075472354888916, -0.32821395993232727, -0.46517789363861084, -1.1377801895141602, 0.877197265625, 0.298095703125, -0.379150390625
310, 600805385, -7.374878406524658, -1.5485293865203857, 6.103844165802002, -0.10662566125392914, -0.5195664167404175, -0.7740541696548462, 0.877197265625, 0.299560546875, -0.378173828125
311, 600822052, -7.38688325881958, -1.5845791101455688, 6.089804649353027, 0.46551719307899475, -0.9617311954498291, 0.1211288571357727, 0.878662109375, 0.2939453125, -0.379638671875
312, 600838719, -7.386744499206543, -1.5684231519699097, 6.094257354736328, 1.013129472732544, -1.4936301708221436, 0.9368420839309692, 0.878662109375, 0.29541015625, -0.380126953125
313, 600855386, -7.400940895080566, -1.5443060398101807, 6.0749945640563965, 0.8929418325424194, -1.6031372547149658, 0.7724597454071045, 0.878173828125, 0.29443359375, -0.380615234375
314, 600872053, -7.386297702789307, -1.5153756141662598, 6.109457015991211, 0.5229920744895935, -1.3783345222473145, 0.25120294094085693, 0.87841796875, 0.2919921875, -0.377685546875
315, 600888720, -7.378175258636475, -1.5014219284057617, 6.1123151779174805, 0.12936332821846008, -0.9208917617797852, -0.2528485655784607, 0.875732421875, 0.29296875, -0.379638671875
316, 600905387, -7.396686553955078, -1.5160720348358154, 6.105340957641602, -0.3304806351661682, -0.4787909984588623, -0.7202290892601013, 0.877197265625, 0.29443359375, -0.378662109375
317, 600922054, -7.361473560333252, -1.5579782724380493, 6.075254917144775, -0.4922504723072052, -0.719307005405426, -0.7955944538116455, 0.878173828125, 0.29296875, -0.377197265625
318, 600938721, -7.375154972076416, -1.5448404550552368, 6.096875190734863, -0.14343109726905823, -0.855387270450592, -0.3338487148284912, 0.878173828125, 0.29248046875, -0.379150390625
319, 600955388, -7.40811014175415, -1.507624626159668, 6.065403461456299, 0.3888584077358246, -1.3147767782211304, 0.17777135968208313, 0.878662109375, 0.29541015625, -0.380126953125
320, 600972055, -7.416921138763428, -1.4774792194366455, 6.115549564361572, 0.3060397505760193, -1.6197470426559448, -0.12491312623023987, 0.877685546875, 0.29296875, -0.379638671875
321, 600988722, -7.405248641967773, -1.4732232093811035, 6.101224899291992, -0.017294976860284805, -1.2909760475158691, -0.6919206976890564, 0.876708984375, 0.291015625, -0.379638671875
322, 601005389, -7.38681173324585, -1.5048656463623047, 6.10620641708374, -0.30094921588897705, -1.288946270942688, -1.1936030387878418, 0.876220703125, 0.29150390625, -0.377685546875
323, 601022056, -7.360983371734619, -1.5429577827453613, 6.089143753051758, -0.46423014998435974, -1.3387629985809326, -1.4353100061416626, 0.877197265625, 0.2939453125, -0.38232421875
324, 601038723, -7.3725786209106445, -1.4707636833190918, 6.111888408660889, -0.8248698115348816, -0.8933582305908203, -1.8629783391952515, 0.87890625, 0.2919921875, -0.377197265625
325, 601055390, -7.3604607582092285, -1.4455527067184448, 6.129927635192871, -0.8311319947242737, -0.8548750281333923, -2.229393243789673, 0.878662109375, 0.2919921875, -0.382080078125
326, 601072057, -7.36276912689209, -1.423740267753601, 6.134111404418945, -0.8061085343360901, -0.863288938999176, -2.6941871643066406, 0.879150390625, 0.29541015625, -0.379638671875
327, 601088724, -7.398754596710205, -1.5008563995361328, 6.121849536895752, -1.2618608474731445, -0.36121585965156555, -3.440272092819214, 0.876220703125, 0.29443359375, -0.380615234375
328, 601105391, -7.404200553894043, -1.563816785812378, 6.117319107055664, -1.5953893661499023, 0.22589759528636932, -3.3773415088653564, 0.877197265625, 0.2939453125, -0.380615234375
329, 601122058, -7.41834831237793, -1.5610867738723755, 6.05888557434082, -1.7544060945510864, -0.5367269515991211, -3.233513832092285, 0.87890625, 0.29443359375, -0.37646484375
330, 601138725, -7.403894424438477, -1.5050126314163208, 6.099101543426514, -2.304105520248413, -1.0375192165374756, -3.7246882915496826, 0.876220703125, 0.29345703125, -0.379638671875
331, 601155392, -7.391460418701172, -1.578520655632019, 6.0211381912231445, -4.326241970062256, -1.0381340980529785, -4.540594100952148, 0.878662109375, 0.298095703125, -0.379150390625
332, 601172059, -7.198822975158691, -1.5844297409057617, 6.087410926818848, -4.7974772453308105, -3.8356175422668457, -5.041771411895752, 0.875244140625, 0.297119140625, -0.380126953125
333, 601188726, -7.237041473388672, -1.214989423751831, 6.290372848510742, -7.8194074630737305, -3.9913179874420166, -8.137862205505371, 0.87646484375, 0.302734375, -0.380126953125
334, 601205393, -7.518438816070557, -0.9617935419082642, 6.473382949829102, -17.245359420776367, 4.984221458435059, -14.515217781066895, 0.87548828125, 0.30419921875, -0.378662109375
335, 601222060, -7.330531120300293, -1.9674453735351562, 5.945003509521484, -17.466596603393555, 10.915972709655762, -15.700571060180664, 0.875, 0.3125, -0.37255859375
336, 601238727, -7.311252117156982, -1.9725894927978516, 5.863476276397705, -10.418488502502441, 10.131735801696777, -9.402329444885254, 0.8779296875, 0.31396484375, -0.37109375
337, 601255394, -7.330080986022949, -1.858332872390747, 5.9113664627075195, -6.375363349914551, 9.600024223327637, -4.5865583419799805, 0.87939453125, 0.316162109375, -0.3720703125
338, 601272061, -7.352654457092285, -2.020456552505493, 5.961337089538574, -5.7152204513549805, 10.01218318939209, -3.1294126510620117, 0.87890625, 0.319580078125, -0.366455078125
339, 601288728, -7.3567423820495605, -1.7348610162734985, 6.218278408050537, -5.7482500076293945, 13.993901252746582, -4.959467887878418, 0.876953125, 0.319580078125, -0.36083984375
340, 601305395, -7.429980278015137, -1.746457815170288, 6.000794410705566, -5.217916011810303, 16.63031768798828, -8.784643173217773, 0.880615234375, 0.3251953125, -0.352783203125
341, 601322062, -7.498265743255615, -2.1138312816619873, 5.845001220703125, -2.771182060241699, 15.947772979736328, -9.214731216430664, 0.87890625, 0.328857421875, -0.350830078125
342, 601338729, -7.546461582183838, -2.346330165863037, 5.6374311447143555, -1.5042479038238525, 12.628191947937012, -8.282731056213379, 0.87939453125, 0.3330078125, -0.34375
343, 601355396, -7.677156925201416, -2.1283118724823, 5.5456647872924805, -1.0255454778671265, 6.94843864440918, -6.386066913604736, 0.88037109375, 0.337158203125, -0.341552734375
344, 601372063, -7.602456092834473, -2.2554690837860107, 5.667579650878906, 0.38933229446411133, 1.2554514408111572, -3.5632519721984863, 0.8779296875, 0.339111328125, -0.341064453125
345, 601388730, -7.556481838226318, -2.3423025608062744, 5.581921577453613, 2.834679365158081, -2.7742269039154053, 1.6694037914276123, 0.876953125, 0.338623046875, -0.340576171875
346, 601405397, -7.581210613250732, -1.7036259174346924, 5.702385425567627, 6.4788312911987305, -7.367765426635742, 7.4401021003723145, 0.8779296875, 0.333984375, -0.34375
347, 601422064, -7.597712993621826, -2.0309298038482666, 5.69039249420166, 12.921670913696289, -12.149150848388672, 15.974287986755371, 0.87744140625, 0.330322265625, -0.3466796875
348, 601438731, -7.6441192626953125, -2.4710192680358887, 5.738099575042725, 18.122726440429688, -19.985862731933594, 25.119508743286133, 0.878173828125, 0.3212890625, -0.352294921875
349, 601455398, -7.5787577629089355, -2.3628034591674805, 5.864789962768555, 20.664365768432617, -26.794973373413086, 32.96071243286133, 0.876708984375, 0.31298828125, -0.35986328125
350, 601472065, -7.49661111831665, -1.5541493892669678, 6.275482177734375, 20.172103881835938, -27.59560203552246, 33.24949264526367, 0.873779296875, 0.302734375, -0.368896484375
351, 601488732, -7.4806342124938965, -0.8799586892127991, 6.345718860626221, 13.278903007507324, -19.316322326660156, 26.266246795654297, 0.874755859375, 0.2919921875, -0.37158203125
352, 601505399, -7.475462436676025, -1.047223687171936, 6.177890777587891, 7.993876934051514, -14.548931121826172, 19.271263122558594, 0.871337890625, 0.2861328125, -0.376953125
353, 601522066, -7.431745529174805, -1.7086745500564575, 6.160867691040039, 7.20318078994751, -11.62082290649414, 18.298582077026367, 0.87353515625, 0.279052734375, -0.380615234375
354, 601538733, -7.323816299438477, -2.1488001346588135, 6.096383094787598, 10.439061164855957, -10.582863807678223, 23.792343139648438, 0.87353515625, 0.27197265625, -0.381103515625
355, 601555400, -7.306617736816406, -1.5213351249694824, 6.22797155380249, 12.933852195739746, -8.19577407836914, 28.869081497192383, 0.871337890625, 0.263671875, -0.382080078125
356, 601572067, -7.301570892333984, 0.13801226019859314, 6.291425704956055, 11.480525970458984, -5.060545444488525, 24.641035079956055, 0.87353515625, 0.2548828125, -0.38134765625
357, 601588734, -7.158169746398926, 0.4886796772480011, 6.360579490661621, 5.855393409729004, -1.1609859466552734, 12.384265899658203, 0.87060546875, 0.250732421875, -0.38134765625
358, 601605401, -7.288671493530273, -0.15308067202568054, 6.325771331787109, 0.002759768394753337, 3.1901192665100098, 0.44370797276496887, 0.87109375, 0.250244140625, -0.37939453125
359, 601622068, -7.579245567321777, -1.3135945796966553, 5.911677837371826, 0.232095867395401, 0.17441608011722565, -0.11936797946691513, 0.873046875, 0.249267578125, -0.38037109375
360, 601638735, -7.530323505401611, -0.22209532558918, 5.94479513168335, 0.9419138431549072, -10.290471076965332, -2.827822685241699, 0.87060546875, 0.249755859375, -0.3828125
361, 601655402, -7.330533504486084, -0.24006931483745575, 6.352794170379639, -1.4737050533294678, -15.062281608581543, -10.214189529418945, 0.871826171875, 0.249755859375, -0.387451171875
362, 601672069, -7.181736469268799, 0.025873985141515732, 6.602710723876953, -4.739599227905273, -11.164517402648926, -17.354835510253906, 0.869873046875, 0.25537109375, -0.387939453125
363, 601688736, -7.262018203735352, -0.9484419822692871, 6.36972713470459, -8.192559242248535, -4.447514057159424, -23.11842918395996, 0.86767578125, 0.260986328125, -0.3916015625
364, 601705403, -7.311326503753662, -1.5290541648864746, 6.198831081390381, -8.637927055358887, -3.2717602252960205, -22.859956741333008, 0.866455078125, 0.26806640625, -0.393798828125
365, 601722070, -7.2944135665893555, -1.7229270935058594, 6.367120265960693, -7.0130228996276855, -0.9210851788520813, -18.234254837036133, 0.866943359375, 0.27490234375, -0.393310546875
366, 601738737, -7.267116546630859, -1.4409432411193848, 6.375551223754883, -4.725085258483887, 1.6293851137161255, -13.5310697555542, 0.867919921875, 0.27685546875, -0.393310546875
367, 601755404, -7.291927337646484, -1.1762969493865967, 6.341479778289795, -4.3691840171813965, 5.68574857711792, -13.511528968811035, 0.868896484375, 0.279052734375, -0.392333984375
368, 601772071, -7.320715427398682, -1.6614487171173096, 6.092966079711914, -4.466665744781494, 6.647127151489258, -12.880827903747559, 0.86865234375, 0.28515625, -0.392333984375
369, 601788738, -7.2765326499938965, -1.88540780544281, 6.276392459869385, -4.0845866203308105, 4.585167407989502, -9.18317985534668, 0.8681640625, 0.28759765625, -0.388427734375
370, 601805405, -7.339508056640625, -1.6926610469818115, 6.243168830871582, -2.6108570098876953, 5.044467926025391, -5.3367919921875, 0.86962890625, 0.289306640625, -0.38623046875
371, 601822072, -7.3662919998168945, -1.3478606939315796, 6.2435712814331055, -2.0484912395477295, 4.93223237991333, -4.314831733703613, 0.87060546875, 0.288818359375, -0.3837890625
372, 601838739, -7.28987455368042, -1.4556127786636353, 6.194375514984131, -2.834404468536377, 5.768397331237793, -5.663647651672363, 0.873291015625, 0.28662109375, -0.3837890625
373, 601855406, -7.34171199798584, -1.5932207107543945, 6.143479347229004, -2.9825992584228516, 5.329587936401367, -6.370698928833008, 0.87744140625, 0.2841796875, -0.382568359375
374, 601872073, -7.387434005737305, -1.6635408401489258, 6.022346496582031, -2.017871141433716, 2.577873468399048, -5.006617546081543, 0.875732421875, 0.28369140625, -0.38525390625
375, 601888740, -7.341745376586914, -1.3140431642532349, 6.211007595062256, -1.7091611623764038, -0.32270726561546326, -4.3073906898498535, 0.874755859375, 0.28173828125, -0.38623046875
376, 601905407, -7.324599742889404, -1.3188663721084595, 6.260465145111084, -3.0908257961273193, 2.314011812210083, -5.8034796714782715, 0.876708984375, 0.2841796875, -0.388671875
377, 601922074, -7.428656578063965, -1.7297677993774414, 6.079529285430908, -3.950887441635132, 5.649618148803711, -5.642632484436035, 0.875732421875, 0.2861328125, -0.383056640625
378, 601938741, -7.430418968200684, -1.7980965375900269, 5.960341453552246, -1.894187092781067, 1.8525664806365967, -3.3007595539093018, 0.876708984375, 0.289306640625, -0.384765625
379, 601955408, -7.372463226318359, -1.5929169654846191, 6.171728134155273, -0.39447399973869324, -0.7371335029602051, -1.3361889123916626, 0.877197265625, 0.287353515625, -0.3857421875
380, 601972075, -7.298008918762207, -1.4061790704727173, 6.269280910491943, 0.15476474165916443, 0.29454606771469116, 0.015431651845574379, 0.876953125, 0.288330078125, -0.381591796875
381, 601988742, -7.278664588928223, -1.4047930240631104, 6.216283798217773, 1.664038062095642, 2.244844436645508, 1.594576358795166, 0.876220703125, 0.286376953125, -0.38330078125
382, 602005409, -7.405396938323975, -1.4301706552505493, 6.092972278594971, 2.8673095703125, 3.0946736335754395, 2.429934501647949, 0.876953125, 0.287353515625, -0.380615234375
383, 602022076, -7.503880977630615, -1.2423710823059082, 6.061811447143555, 2.101208209991455, 1.0530469417572021, 0.8116088509559631, 0.87841796875, 0.28515625, -0.381591796875
384, 602038743, -7.356700897216797, -1.1073212623596191, 6.2210001945495605, 0.16025225818157196, 0.43574249744415283, -2.21460223197937, 0.87939453125, 0.285400390625, -0.381591796875
385, 602055410, -7.29025936126709, -1.3910801410675049, 6.128668308258057, -1.2043733596801758, 1.1349437236785889, -3.5789527893066406, 0.87890625, 0.2841796875, -0.382568359375
386, 602072077, -7.346749782562256, -1.6090121269226074, 5.992801666259766, -1.3787059783935547, 0.7537112832069397, -2.9758241176605225, 0.87841796875, 0.28466796875, -0.381591796875
387, 602088744, -7.3612260818481445, -1.6352444887161255, 5.942458152770996, -0.9928890466690063, -1.184356689453125, -1.3910640478134155, 0.87744140625, 0.2841796875, -0.37744140625
388, 602105411, -7.407632827758789, -1.4764589071273804, 6.075486660003662, -0.6942322254180908, -2.6796391010284424, -0.6227216124534607, 0.876953125, 0.28564453125, -0.383056640625
389, 602122078, -7.378627777099609, -1.4841856956481934, 6.156578540802002, -0.8907457590103149, -2.4873900413513184, -0.6823479533195496, 0.8779296875, 0.285400390625, -0.380126953125
390, 602138745, -7.3626389503479, -1.2474757432937622, 6.245713710784912, -1.7468502521514893, 0.0959387719631195, -1.8722116947174072, 0.87939453125, 0.286376953125, -0.382080078125
391, 602155412, -7.40425443649292, -1.3323253393173218, 6.196052551269531, -2.741981029510498, 2.5854809284210205, -3.7496488094329834, 0.87890625, 0.289306640625, -0.380615234375
392, 602172079, -7.438082218170166, -1.400849461555481, 6.145549774169922, -3.385474443435669, 3.276524066925049, -4.998959064483643, 0.87890625, 0.289794921875, -0.381103515625
393, 602188746, -7.420833587646484, -1.452070713043213, 6.072976589202881, -3.2401866912841797, 3.2822234630584717, -5.807783126831055, 0.8779296875, 0.290283203125, -0.377685546875
394, 602205413, -7.427628517150879, -1.5757468938827515, 6.03471565246582, -2.447997808456421, 1.6725798845291138, -5.548530578613281, 0.876953125, 0.290771484375, -0.377197265625
395, 602222080, -7.3905792236328125, -1.727601170539856, 6.004006862640381, -1.4699127674102783, -0.16804492473602295, -3.921470880508423, 0.877685546875, 0.294921875, -0.37646484375
396, 602238747, -7.386745452880859, -1.6322029829025269, 6.0091962814331055, -0.28595295548439026, -1.6239091157913208, -2.09481143951416, 0.87744140625, 0.2919921875, -0.37646484375
397, 602255414, -7.403873920440674, -1.5201339721679688, 6.085796356201172, -0.11538521200418472, -1.709109902381897, -1.7102752923965454, 0.87939453125, 0.29052734375, -0.377685546875
398, 602272081, -7.376579284667969, -1.461238145828247, 6.131583213806152, -0.3216826319694519, -0.9755492210388184, -1.7602325677871704, 0.87890625, 0.29248046875, -0.376953125
399, 602288748, -7.394155025482178, -1.4074479341506958, 6.135095119476318, -1.131377100944519, 0.31141844391822815, -2.805243968963623, 0.877685546875, 0.2919921875, -0.377197265625
400, 602305415, -7.416311264038086, -1.4906246662139893, 6.1087493896484375, -2.0297553539276123, 1.4058748483657837, -3.628026247024536, 0.877685546875, 0.29296875, -0.3759765625
401, 602322082, -7.3994951248168945, -1.5835109949111938, 6.050073146820068, -1.8204097747802734, 1.1323437690734863, -3.518249988555908, 0.8779296875, 0.2939453125, -0.375
402, 602338749, -7.416714191436768, -1.589709758758545, 6.027576923370361, -1.478416085243225, 0.39464685320854187, -3.124544382095337, 0.8798828125, 0.295654296875, -0.3759765625
403, 602355416, -7.409054756164551, -1.5851486921310425, 6.080321311950684, -0.933275580406189, 0.1555010974407196, -2.5070607662200928, 0.88037109375, 0.294921875, -0.37646484375
404, 602372083, -7.3924360275268555, -1.5963115692138672, 6.057382106781006, -0.7535000443458557, 0.08452831208705902, -2.0720033645629883, 0.8798828125, 0.296630859375, -0.375
405, 602388750, -7.392647743225098, -1.6197786331176758, 6.050922870635986, -0.3829098343849182, 0.16225004196166992, -1.331937313079834, 0.878662109375, 0.296142578125, -0.375
406, 602405417, -7.402809143066406, -1.606453537940979, 6.033415794372559, 0.08729448169469833, -0.07405912131071091, -0.6567352414131165, 0.879150390625, 0.297119140625, -0.37646484375
407, 602422084, -7.422057628631592, -1.557019591331482, 6.052433490753174, 0.38401758670806885, -0.052493225783109665, -0.18436020612716675, 0.8779296875, 0.294921875, -0.37353515625
408, 602438751, -7.417604446411133, -1.550976037979126, 6.072149753570557, 0.42027878761291504, 0.038111694157123566, -0.15859383344650269, 0.88330078125, 0.295654296875, -0.37548828125
409, 602455418, -7.4385504722595215, -1.5745360851287842, 6.069045543670654, 0.3881668448448181, 0.05771180987358093, -0.10303989052772522, 0.87939453125, 0.2939453125, -0.376953125
410, 602472085, -7.424456596374512, -1.5647588968276978, 6.044010162353516, 0.5282427072525024, -0.5038018226623535, 0.14793254435062408, 0.88037109375, 0.29345703125, -0.375
411, 602488752, -7.429666996002197, -1.5406317710876465, 6.045108795166016, 0.7253836989402771, -0.7131856083869934, 0.23207025229930878, 0.8779296875, 0.29345703125, -0.37255859375
412, 602505419, -7.4293036460876465, -1.5209203958511353, 6.046986103057861, 0.7312744855880737, -0.7956071496009827, 0.11598069220781326, 0.8779296875, 0.29345703125, -0.37353515625
413, 602522086, -7.42093563079834, -1.5708537101745605, 6.055818557739258, 1.0893529653549194, -1.038864016532898, 0.4529285728931427, 0.8779296875, 0.2919921875, -0.373046875
414, 602538753, -7.397696018218994, -1.5745817422866821, 6.04264497756958, 1.3644078969955444, -1.3635306358337402, 0.9909362196922302, 0.88037109375, 0.2919921875, -0.3740234375
415, 602555420, -7.415350437164307, -1.5408716201782227, 6.034005641937256, 1.6456480026245117, -1.8777567148208618, 1.25017511844635, 0.880859375, 0.29052734375, -0.37646484375
416, 602572087, -7.431209087371826, -1.5255532264709473, 6.052806854248047, 1.8532260656356812, -2.4086437225341797, 1.7221786975860596, 0.880859375, 0.2900390625, -0.3740234375
417, 602588754, -7.429826736450195, -1.5126630067825317, 6.10960578918457, 1.8622421026229858, -2.9031100273132324, 1.902287483215332, 0.88037109375, 0.289794921875, -0.375
418, 602605421, -7.425253391265869, -1.4974799156188965, 6.076961040496826, 1.5014997720718384, -2.889394521713257, 1.548447847366333, 0.8798828125, 0.285888671875, -0.376953125
419, 602622088, -7.4037041664123535, -1.4535654783248901, 6.09185266494751, 1.2393536567687988, -2.404289484024048, 1.1445611715316772, 0.8779296875, 0.287353515625, -0.37646484375
420, 602638755, -7.393393039703369, -1.4440182447433472, 6.107646465301514, 1.1860663890838623, -2.1224474906921387, 1.1065006256103516, 0.8798828125, 0.287353515625, -0.37646484375
421, 602655422, -7.392090797424316, -1.5076818466186523, 6.0484538078308105, 1.2585502862930298, -2.321061134338379, 1.196042537689209, 0.880615234375, 0.28369140625, -0.37841796875
422, 602672089, -7.4103546142578125, -1.43958580493927, 6.087832450866699, 1.1785107851028442, -2.3249671459198, 1.067710280418396, 0.8798828125, 0.28466796875, -0.378662109375
423, 602688756, -7.400500297546387, -1.463526725769043, 6.090986251831055, 1.0925545692443848, -2.182598829269409, 0.9609052538871765, 0.87841796875, 0.285888671875, -0.37744140625
424, 602705423, -7.392090320587158, -1.4605739116668701, 6.081323146820068, 1.1569193601608276, -2.2564659118652344, 1.1189228296279907, 0.88037109375, 0.28466796875, -0.37890625
425, 602722090, -7.3872270584106445, -1.475583553314209, 6.089861869812012, 1.0578044652938843, -1.964314579963684, 1.1925272941589355, 0.8798828125, 0.2822265625, -0.379150390625
426, 602738757, -7.399883270263672, -1.4233429431915283, 6.106433868408203, 0.8333796262741089, -1.7099933624267578, 1.0555826425552368, 0.880615234375, 0.28125, -0.37841796875
427, 602755424, -7.4063920974731445, -1.430230736732483, 6.099298000335693, 0.6404775381088257, -1.639917016029358, 0.9154298901557922, 0.87939453125, 0.28125, -0.380615234375
428, 602772091, -7.390541076660156, -1.4123872518539429, 6.128791809082031, 0.6471752524375916, -1.5951077938079834, 0.9787700772285461, 0.880126953125, 0.28076171875, -0.380126953125
429, 602788758, -7.390201568603516, -1.398774266242981, 6.147730827331543, 0.4833052456378937, -1.2772926092147827, 0.9101025462150574, 0.87890625, 0.28173828125, -0.381591796875
430, 602805425, -7.401043891906738, -1.3509312868118286, 6.119784832000732, 0.3211768567562103, -0.7977074980735779, 0.5644335150718689, 0.878173828125, 0.279541015625, -0.37890625
431, 602822092, -7.3940558433532715, -1.3661576509475708, 6.103610038757324, 0.18711358308792114, -0.5550592541694641, 0.21988503634929657, 0.87890625, 0.28076171875, -0.382080078125
432, 602838759, -7.409029006958008, -1.3780485391616821, 6.102039813995361, 0.058038379997015, -0.19185194373130798, -0.03564007580280304, 0.882080078125, 0.2802734375, -0.380615234375
433, 602855426, -7.407405853271484, -1.4205771684646606, 6.1001410484313965, 0.18295790255069733, -0.3998526334762573, 0.0420752614736557, 0.879638671875, 0.279052734375, -0.382080078125
434, 602872093, -7.401776313781738, -1.4178131818771362, 6.074510097503662, 0.21024185419082642, -0.8599080443382263, 0.16324256360530853, 0.880615234375, 0.277587890625, -0.3798828125
435, 602888760, -7.3958821296691895, -1.3909183740615845, 6.110170364379883, 0.2620755434036255, -1.1427488327026367, 0.2249627411365509, 0.878662109375, 0.277099609375, -0.3798828125
436, 602905427, -7.4109206199646, -1.38642156124115, 6.100362777709961, 0.24406982958316803, -1.2635513544082642, 0.21932794153690338, 0.878173828125, 0.277587890625, -0.381591796875
437, 602922094, -7.389934062957764, -1.3611249923706055, 6.138892650604248, 0.1611551195383072, -1.3585617542266846, 0.017711183056235313, 0.879150390625, 0.279052734375, -0.382080078125
438, 602938761, -7.394023418426514, -1.3429057598114014, 6.131991386413574, 0.03755461424589157, -1.0195133686065674, -0.3013845980167389, 0.882080078125, 0.276123046875, -0.3798828125
439, 602955428, -7.393198013305664, -1.3717695474624634, 6.118474960327148, -0.23701992630958557, -0.7906000018119812, -0.45321667194366455, 0.880126953125, 0.278076171875, -0.380615234375
440, 602972095, -7.39682674407959, -1.386059284210205, 6.1212544441223145, -0.17392303049564362, -0.713313639163971, -0.40601247549057007, 0.879150390625, 0.276123046875, -0.37939453125
441, 602988762, -7.4122700691223145, -1.3340775966644287, 6.130859851837158, -0.20914049446582794, -0.8177109956741333, -0.4027724862098694, 0.878173828125, 0.276611328125, -0.381103515625
442, 603005429, -7.417015552520752, -1.3311223983764648, 6.120696067810059, -0.16399811208248138, -0.7663574814796448, -0.8379834294319153, 0.879150390625, 0.276611328125, -0.380126953125
443, 603022096, -7.400799751281738, -1.3840547800064087, 6.1103997230529785, -0.21946242451667786, -0.8861225843429565, -0.9799035787582397, 0.880126953125, 0.277587890625, -0.382568359375
444, 603038763, -7.418945789337158, -1.3562135696411133, 6.133354187011719, -0.17332114279270172, -0.9977427124977112, -1.081099271774292, 0.882080078125, 0.277099609375, -0.38037109375
445, 603055430, -7.394886016845703, -1.404468297958374, 6.1199469566345215, -0.06693879514932632, -1.186111330986023, -1.0508506298065186, 0.882568359375, 0.276611328125, -0.37890625
446, 603072097, -7.407711029052734, -1.3864835500717163, 6.135092735290527, -0.08121787756681442, -1.094430685043335, -0.8950230479240417, 0.880615234375, 0.274658203125, -0.38037109375
447, 603088764, -7.403505802154541, -1.3479129076004028, 6.120604038238525, -0.02470344863831997, -1.0324095487594604, -0.8481006026268005, 0.878662109375, 0.276123046875, -0.381103515625
448, 603105431, -7.380954742431641, -1.3704415559768677, 6.147942066192627, -0.06033071503043175, -1.2569817304611206, -0.8180440068244934, 0.879150390625, 0.275146484375, -0.38037109375
449, 603122098, -7.406731128692627, -1.356768012046814, 6.139036655426025, -0.16817298531532288, -0.9056523442268372, -0.9842705130577087, 0.879638671875, 0.277099609375, -0.381591796875
450, 603138765, -7.405452728271484, -1.3588825464248657, 6.102236270904541, -0.21646572649478912, -0.8085929155349731, -1.168067216873169, 0.880126953125, 0.274169921875, -0.381103515625
451, 603155432, -7.396155834197998, -1.3860206604003906, 6.126727104187012, -0.34402981400489807, -1.107608437538147, -1.2417678833007812, 0.882080078125, 0.274658203125, -0.383544921875
452, 603172099, -7.383194923400879, -1.3606733083724976, 6.104147434234619, -0.24261626601219177, -1.120478630065918, -1.2390013933181763, 0.878662109375, 0.278076171875, -0.379638671875
453, 603188766, -7.383681297302246, -1.3586664199829102, 6.106962203979492, -0.3424290120601654, -0.9108517169952393, -1.3099359273910522, 0.879150390625, 0.276611328125, -0.381591796875
454, 603205433, -7.38739538192749, -1.3637889623641968, 6.112902641296387, -0.3279321789741516, -0.8805390000343323, -1.4368212223052979, 0.878173828125, 0.27490234375, -0.380615234375
455, 603222100, -7.409927845001221, -1.364843726158142, 6.134291172027588, -0.3256014585494995, -0.6360530257225037, -1.5307047367095947, 0.880615234375, 0.277587890625, -0.381591796875
456, 603238767, -7.388156890869141, -1.3574516773223877, 6.114896774291992, -0.4718499779701233, -0.5328851342201233, -1.647959589958191, 0.881103515625, 0.278564453125, -0.381103515625
457, 603255434, -7.390366077423096, -1.3819372653961182, 6.118497848510742, -0.48089122772216797, -0.5165697336196899, -1.7782384157180786, 0.880615234375, 0.276123046875, -0.383544921875
458, 603272101, -7.3882222175598145, -1.3622174263000488, 6.132297992706299, -0.6646751761436462, -0.4058460593223572, -1.9453614950180054, 0.881591796875, 0.277587890625, -0.381591796875
459, 603288768, -7.3868913650512695, -1.367038369178772, 6.123912334442139, -1.0156329870224, -0.18193979561328888, -2.3216757774353027, 0.87939453125, 0.278564453125, -0.384033203125
460, 603305435, -7.398796081542969, -1.341426134109497, 6.140857696533203, -1.2420109510421753, 0.5278457403182983, -2.827488422393799, 0.881103515625, 0.279296875, -0.380615234375
461, 603322102, -7.408524990081787, -1.334872841835022, 6.1218438148498535, -1.373173713684082, 1.1729528903961182, -3.4078850746154785, 0.881591796875, 0.277587890625, -0.3798828125
462, 603338769, -7.403487205505371, -1.4058785438537598, 6.093325614929199, -1.4196860790252686, 1.0764696598052979, -3.6958353519439697, 0.881103515625, 0.279296875, -0.376953125
463, 603355436, -7.399849891662598, -1.4352797269821167, 6.09158992767334, -1.3233442306518555, 0.7053290009498596, -3.507941246032715, 0.880126953125, 0.27978515625, -0.380615234375
464, 603372103, -7.404195785522461, -1.4476584196090698, 6.0987067222595215, -1.1796823740005493, 0.22391900420188904, -3.0666213035583496, 0.879638671875, 0.27978515625, -0.37890625
465, 603388770, -7.414480209350586, -1.4315526485443115, 6.052262783050537, -0.8436182141304016, -0.1807488203048706, -2.6132636070251465, 0.879150390625, 0.28076171875, -0.37841796875
466, 603405437, -7.4151177406311035, -1.4201310873031616, 6.070481300354004, -0.6398437023162842, -0.5690757632255554, -2.2265634536743164, 0.879638671875, 0.2822265625, -0.3779296875
467, 603422104, -7.411086559295654, -1.4564526081085205, 6.094849586486816, -0.5008563995361328, -0.9126060009002686, -2.0270018577575684, 0.87890625, 0.28173828125, -0.37744140625
468, 603438771, -7.4060797691345215, -1.4108389616012573, 6.098473072052002, -0.38807082176208496, -0.9077140092849731, -1.724400520324707, 0.882568359375, 0.28125, -0.379638671875
469, 603455438, -7.416548252105713, -1.4095525741577148, 6.116055488586426, -0.36427658796310425, -0.9289085268974304, -1.6041233539581299, 0.882080078125, 0.28125, -0.380615234375
470, 603472105, -7.418614864349365, -1.4230190515518188, 6.0934882164001465, -0.4328802525997162, -0.724250316619873, -1.4445050954818726, 0.8798828125, 0.285400390625, -0.378662109375
471, 603488772, -7.413430690765381, -1.4074126482009888, 6.120683193206787, -0.3271253705024719, -0.7769740223884583, -1.3682559728622437, 0.87939453125, 0.28173828125, -0.37841796875
472, 603505439, -7.396816730499268, -1.4400155544281006, 6.085846424102783, -0.08115383237600327, -1.0196799039840698, -1.1911952495574951, 0.8779296875, 0.28271484375, -0.37841796875
473, 603522106, -7.405796051025391, -1.4312796592712402, 6.076053619384766, 0.04761400818824768, -1.3532214164733887, -1.0113173723220825, 0.87841796875, 0.28369140625, -0.380126953125
474, 603538773, -7.419619083404541, -1.4283390045166016, 6.081926345825195, 0.25578761100769043, -1.5872188806533813, -0.8264705538749695, 0.879638671875, 0.28125, -0.37744140625
475, 603555440, -7.4003448486328125, -1.4322909116744995, 6.087240219116211, 0.1312330663204193, -1.6801801919937134, -0.9728855490684509, 0.880126953125, 0.28173828125, -0.379150390625
476, 603572107, -7.388566970825195, -1.4267383813858032, 6.12445068359375, 0.09287804365158081, -1.5795351266860962, -1.114626169204712, 0.87841796875, 0.28076171875, -0.383056640625
477, 603588774, -7.389831066131592, -1.3973881006240845, 6.130965232849121, -0.1408698558807373, -1.2217642068862915, -1.2641277313232422, 0.87744140625, 0.28173828125, -0.381103515625
478, 603605441, -7.403791904449463, -1.3973922729492188, 6.114902973175049, -0.44913145899772644, -0.8846753835678101, -1.6826390027999878, 0.87890625, 0.28271484375, -0.379150390625
479, 603622108, -7.391171932220459, -1.419469952583313, 6.1321120262146, -0.577502429485321, -0.7097792029380798, -1.9280985593795776, 0.87939453125, 0.2822265625, -0.380126953125
480, 603638775, -7.394313335418701, -1.403144359588623, 6.088878154754639, -0.5728152394294739, -0.585980236530304, -1.9840494394302368, 0.881591796875, 0.28125, -0.381591796875
481, 603655442, -7.393646717071533, -1.432387113571167, 6.090407848358154, -0.7383117079734802, -0.6969470977783203, -2.2741260528564453, 0.87841796875, 0.28173828125, -0.381591796875
482, 603672109, -7.39687442779541, -1.4373246431350708, 6.099392414093018, -1.049736499786377, -0.27125129103660583, -2.5960519313812256, 0.87890625, 0.283203125, -0.381103515625
483, 603688776, -7.406250476837158, -1.4383634328842163, 6.110261917114258, -1.2332643270492554, 0.21652978658676147, -2.8370420932769775, 0.8798828125, 0.28369140625, -0.380615234375
484, 603705443, -7.398710250854492, -1.4224292039871216, 6.108593940734863, -1.3661428689956665, 0.45693692564964294, -2.917414426803589, 0.87841796875, 0.28466796875, -0.381591796875
485, 603722110, -7.38660192489624, -1.4339390993118286, 6.117385387420654, -1.7888420820236206, 1.2096878290176392, -3.5169692039489746, 0.880859375, 0.284423828125, -0.379150390625
486, 603738777, -7.424253463745117, -1.3771510124206543, 6.1405863761901855, -2.635495662689209, 2.6857669353485107, -4.74222993850708, 0.8798828125, 0.286376953125, -0.380615234375
487, 603755444, -7.431764125823975, -1.472273349761963, 6.081557273864746, -2.8452765941619873, 3.3437061309814453, -5.1779022216796875, 0.88037109375, 0.287353515625, -0.378662109375
488, 603772111, -7.430727481842041, -1.5113476514816284, 6.049668788909912, -2.507765293121338, 2.857795000076294, -4.651561260223389, 0.88037109375, 0.288818359375, -0.378173828125
489, 603788778, -7.427371978759766, -1.5169737339019775, 6.034541130065918, -2.148470163345337, 2.175267457962036, -4.256255149841309, 0.87939453125, 0.2900390625, -0.375
490, 603805445, -7.4385199546813965, -1.5380972623825073, 6.062636852264404, -1.936768889427185, 2.0172500610351562, -3.8900063037872314, 0.8779296875, 0.289794921875, -0.37255859375
491, 603822112, -7.450769424438477, -1.5136168003082275, 6.033125877380371, -1.6155340671539307, 1.3964879512786865, -3.3727705478668213, 0.880859375, 0.2900390625, -0.37255859375
492, 603838779, -7.423094749450684, -1.540260672569275, 6.042275428771973, -1.3659125566482544, 0.6283244490623474, -2.931091785430908, 0.8828125, 0.29150390625, -0.37353515625
493, 603855446, -7.439527988433838, -1.527227759361267, 6.009645938873291, -1.0306037664413452, 0.019087862223386765, -2.510838508605957, 0.88134765625, 0.29345703125, -0.37255859375
494, 603872113, -7.439812183380127, -1.5196188688278198, 6.044000625610352, -0.8483310341835022, -0.3835374116897583, -2.245824098587036, 0.8798828125, 0.29052734375, -0.37255859375
495, 603888780, -7.42234468460083, -1.5450612306594849, 6.044623851776123, -0.6009123921394348, -0.6977540254592896, -1.90605890750885, 0.87890625, 0.2919921875, -0.3720703125
496, 603905447, -7.433372974395752, -1.5294015407562256, 6.063172817230225, -0.3736380338668823, -0.871446430683136, -1.633475422859192, 0.88037109375, 0.291015625, -0.37451171875
497, 603922114, -7.434903621673584, -1.539764165878296, 6.020156383514404, -0.3647248148918152, -0.7157213091850281, -1.4319931268692017, 0.88232421875, 0.29248046875, -0.37353515625
498, 603938781, -7.44286584854126, -1.5463939905166626, 6.034196853637695, -0.3210935890674591, -0.923286497592926, -1.2844129800796509, 0.880859375, 0.2919921875, -0.37451171875
499, 603955448, -7.431066989898682, -1.5317366123199463, 6.050429821014404, -0.09184713661670685, -1.158180594444275, -1.0239956378936768, 0.87939453125, 0.294921875, -0.37255859375
500, 603972115, -7.441624641418457, -1.539190649986267, 6.057602882385254, -0.042324990034103394, -1.2589666843414307, -1.0633240938186646, 0.880859375, 0.29296875, -0.3720703125
501, 603988782, -7.40998649597168, -1.534334659576416, 6.030551910400391, -0.08333732932806015, -1.0370646715164185, -1.1727862358093262, 0.87841796875, 0.29345703125, -0.371337890625
502, 604005449, -7.443815231323242, -1.5326104164123535, 6.043319225311279, -0.18859273195266724, -0.7199282646179199, -1.2541706562042236, 0.8779296875, 0.29296875, -0.37158203125
503, 604022116, -7.445487976074219, -1.5193895101547241, 6.034609794616699, -0.2218571901321411, -0.8933069109916687, -1.3580877780914307, 0.88037109375, 0.29296875, -0.3740234375
504, 604038783, -7.416630268096924, -1.53452467918396, 6.0508880615234375, -0.257138729095459, -1.0078085660934448, -1.4290094375610352, 0.8818359375, 0.29248046875, -0.373046875
505, 604055450, -7.432034969329834, -1.5283217430114746, 6.068835258483887, -0.18099214136600494, -0.8432213068008423, -1.344244122505188, 0.880859375, 0.2939453125, -0.37353515625
506, 604072117, -7.438256740570068, -1.5368006229400635, 6.056326389312744, -0.2287854552268982, -0.7917141914367676, -1.3695622682571411, 0.880859375, 0.29296875, -0.3740234375
507, 604088784, -7.42909574508667, -1.5231378078460693, 6.0710625648498535, -0.37032121419906616, -0.6541611552238464, -1.4523810148239136, 0.88037109375, 0.29345703125, -0.3720703125
508, 604105451, -7.443716049194336, -1.5488862991333008, 6.044172286987305, -0.41059717535972595, -0.5219740271568298, -1.5573161840438843, 0.87841796875, 0.29443359375, -0.37158203125
509, 604122118, -7.433352947235107, -1.5196266174316406, 6.070093631744385, -0.4498614966869354, -0.6229777336120605, -1.563719391822815, 0.8798828125, 0.29345703125, -0.370361328125
510, 604138785, -7.427242279052734, -1.5396754741668701, 6.044095516204834, -0.42608004808425903, -0.5819461345672607, -1.6990694999694824, 0.880859375, 0.29296875, -0.371826171875
511, 604155452, -7.441024303436279, -1.534109354019165, 6.06423807144165, -0.5364066958427429, -0.39853358268737793, -1.7259372472763062, 0.8798828125, 0.29345703125, -0.3720703125
512, 604172119, -7.4405741691589355, -1.518232822418213, 6.0473809242248535, -0.6805165410041809, -0.1418815404176712, -1.8984256982803345, 0.8798828125, 0.29296875, -0.3720703125
513, 604188786, -7.442335605621338, -1.5475610494613647, 6.040156841278076, -0.6158957481384277, -0.3888392150402069, -1.8561521768569946, 0.8798828125, 0.29248046875, -0.371337890625
514, 604205453, -7.427921772003174, -1.5443472862243652, 6.056618690490723, -0.668555498123169, -0.2596103549003601, -2.035505533218384, 0.87939453125, 0.294921875, -0.371337890625
515, 604222120, -7.451436996459961, -1.5361281633377075, 6.045057773590088, -0.8287501335144043, 0.19554653763771057, -2.2910046577453613, 0.87939453125, 0.295654296875, -0.37109375
516, 604238787, -7.457462787628174, -1.5546607971191406, 6.025524139404297, -0.9360800981521606, 0.18982212245464325, -2.194803476333618, 0.88134765625, 0.2939453125, -0.37353515625
517, 604255454, -7.432425022125244, -1.5793499946594238, 6.0107622146606445, -0.6002719402313232, -0.3350396752357483, -1.8129817247390747, 0.8798828125, 0.2939453125, -0.37255859375
518, 604272121, -7.420665264129639, -1.55376136302948, 6.042117118835449, -0.40018561482429504, -0.42068856954574585, -1.5541658401489258, 0.87890625, 0.295166015625, -0.37353515625
519, 604288788, -7.436553478240967, -1.5566328763961792, 6.05681848526001, -0.615088939666748, -0.19560417532920837, -1.7811710834503174, 0.88232421875, 0.295166015625, -0.370849609375
520, 604305455, -7.434443473815918, -1.5884015560150146, 6.037097454071045, -0.5453328490257263, -0.254116415977478, -1.7162431478500366, 0.87890625, 0.295654296875, -0.370361328125
521, 604322122, -7.43918514251709, -1.5757261514663696, 6.018012523651123, -0.31330737471580505, -0.44856804609298706, -1.4312121868133545, 0.880859375, 0.296142578125, -0.37158203125
522, 604338789, -7.433656215667725, -1.571160078048706, 6.023433685302734, -0.1629095822572708, -0.7898060083389282, -1.1009106636047363, 0.88232421875, 0.294677734375, -0.3720703125
523, 604355456, -7.430991172790527, -1.5685642957687378, 6.03472375869751, -0.05420926958322525, -0.9389229416847229, -0.9894440770149231, 0.8818359375, 0.29443359375, -0.37255859375
524, 604372123, -7.446958541870117, -1.573805570602417, 6.030497074127197, -0.001370279467664659, -1.071789026260376, -0.8432725071907043, 0.88134765625, 0.294677734375, -0.37158203125
525, 604388790, -7.4261298179626465, -1.5561847686767578, 6.014265537261963, 0.13914738595485687, -1.184087872505188, -0.817659854888916, 0.8798828125, 0.294921875, -0.371337890625
526, 604405457, -7.423949241638184, -1.5726020336151123, 6.050898551940918, 0.2894362807273865, -1.5208308696746826, -0.6223757266998291, 0.87890625, 0.296142578125, -0.373046875
527, 604422124, -7.428633689880371, -1.562692642211914, 6.024564743041992, 0.5473626255989075, -1.8876813650131226, -0.2686900496482849, 0.88037109375, 0.29345703125, -0.3720703125
528, 604438791, -7.425271511077881, -1.5724897384643555, 6.01843786239624, 0.7958954572677612, -2.3822500705718994, 0.07210615277290344, 0.88134765625, 0.29248046875, -0.3720703125
529, 604455458, -7.415655136108398, -1.561898946762085, 6.0554728507995605, 0.8615151643753052, -2.4137790203094482, 0.11665943264961243, 0.8818359375, 0.29296875, -0.373046875
530, 604472125, -7.423131942749023, -1.516586184501648, 6.072404384613037, 0.5379754304885864, -1.8882062435150146, -0.22154982388019562, 0.88134765625, 0.294677734375, -0.37255859375
531, 604488792, -7.4391279220581055, -1.512363076210022, 6.043040752410889, 0.05320397764444351, -1.1800538301467896, -0.694232165813446, 0.876708984375, 0.29443359375, -0.375
532, 604505459, -7.41745138168335, -1.5210456848144531, 6.041955471038818, -0.04240182414650917, -0.9419582486152649, -0.9310601353645325, 0.87939453125, 0.29296875, -0.37353515625
533, 604522126, -7.418115139007568, -1.5421134233474731, 6.030781269073486, -0.07574955374002457, -0.8495988249778748, -0.9705548286437988, 0.880859375, 0.2919921875, -0.375
534, 604538793, -7.416470050811768, -1.5408480167388916, 6.028028964996338, -0.0651843249797821, -0.90096515417099, -0.9533815979957581, 0.88134765625, 0.294677734375, -0.3740234375
535, 604555460, -7.416605472564697, -1.532631278038025, 6.028639316558838, 0.0780739039182663, -0.8917189836502075, -0.8856744170188904, 0.8798828125, 0.29052734375, -0.37255859375
536, 604572127, -7.423483371734619, -1.5599316358566284, 6.048142433166504, 0.1171460822224617, -0.9526003003120422, -0.8889272212982178, 0.87841796875, 0.2919921875, -0.37548828125
537, 604588794, -7.419264316558838, -1.5268152952194214, 6.061497211456299, 0.2294577807188034, -1.0403238534927368, -0.7590708136558533, 0.87939453125, 0.29296875, -0.371337890625
538, 604605461, -7.428701877593994, -1.5182709693908691, 6.03867244720459, 0.2061886340379715, -1.0403238534927368, -0.610017716884613, 0.87939453125, 0.29296875, -0.37353515625
539, 604622128, -7.424045085906982, -1.5299203395843506, 6.0560479164123535, 0.3104451298713684, -1.3489185571670532, -0.5796153545379639, 0.88037109375, 0.29150390625, -0.37353515625
540, 604638795, -7.42885160446167, -1.5333422422409058, 6.011725902557373, 0.5815427303314209, -2.0966169834136963, -0.21969294548034668, 0.8798828125, 0.2919921875, -0.37353515625
541, 604655462, -7.409170150756836, -1.5349756479263306, 6.071107864379883, 0.8918022513389587, -2.3128013610839844, 0.07771533727645874, 0.880859375, 0.28955078125, -0.37451171875
542, 604672129, -7.425917625427246, -1.540542721748352, 6.0776591300964355, 0.8997038006782532, -2.124394178390503, 0.2353614866733551, 0.88134765625, 0.288818359375, -0.375
543, 604688796, -7.397623062133789, -1.4838558435440063, 6.058496475219727, 0.7078389525413513, -2.0519230365753174, 4.546254058368504E-4, 0.876953125, 0.290283203125, -0.3759765625
544, 604705463, -7.432775020599365, -1.4978234767913818, 6.07389497756958, 0.31415894627571106, -1.5597622394561768, -0.36338019371032715, 0.87890625, 0.29150390625, -0.37353515625
545, 604722130, -7.409903049468994, -1.4876511096954346, 6.062925815582275, 0.22001948952674866, -1.3169153928756714, -0.717821478843689, 0.8779296875, 0.29248046875, -0.375
546, 604738797, -7.414585113525391, -1.4849709272384644, 6.086643218994141, 0.14959096908569336, -1.184696078300476, -0.8107123374938965, 0.883544921875, 0.28955078125, -0.3759765625
547, 604755464, -7.413050174713135, -1.511620283126831, 6.071983337402344, 0.025350166484713554, -1.2309590578079224, -0.9176003932952881, 0.8818359375, 0.28955078125, -0.3759765625
548, 604772131, -7.405978202819824, -1.5167229175567627, 6.0738701820373535, 0.14407142996788025, -1.334933876991272, -0.8553873896598816, 0.8798828125, 0.29052734375, -0.3759765625
549, 604788798, -7.402635097503662, -1.484630823135376, 6.077908992767334, 0.13784755766391754, -1.3311688899993896, -0.8830490708351135, 0.87890625, 0.289306640625, -0.378173828125
550, 604805465, -7.403289794921875, -1.5001552104949951, 6.096012592315674, 0.010955831967294216, -1.0886421203613281, -1.0572667121887207, 0.87841796875, 0.288330078125, -0.37646484375
551, 604822132, -7.410739421844482, -1.4980804920196533, 6.087723255157471, -0.1881316751241684, -0.7580398321151733, -1.3003631830215454, 0.88134765625, 0.29052734375, -0.375
552, 604838799, -7.401097774505615, -1.483189582824707, 6.080463409423828, -0.2622356414794922, -0.689378559589386, -1.3005231618881226, 0.8818359375, 0.288330078125, -0.3759765625
553, 604855466, -7.415683746337891, -1.4828752279281616, 6.055453300476074, -0.2058492749929428, -0.7399765253067017, -1.3564612865447998, 0.8818359375, 0.291015625, -0.37451171875
554, 604872133, -7.404408931732178, -1.4955130815505981, 6.083181858062744, -0.21782319247722626, -0.8159180879592896, -1.3816642761230469, 0.88037109375, 0.289306640625, -0.3759765625
555, 604888800, -7.389969348907471, -1.497410774230957, 6.077410697937012, -0.3116937279701233, -0.7768074870109558, -1.3517229557037354, 0.87939453125, 0.289794921875, -0.37646484375
556, 604905467, -7.408379554748535, -1.5009448528289795, 6.066793441772461, -0.3312874734401703, -0.7268884181976318, -1.4746512174606323, 0.87939453125, 0.2900390625, -0.377685546875
557, 604922134, -7.416501998901367, -1.479965090751648, 6.068803310394287, -0.6045109033584595, -0.2293873131275177, -1.7914800643920898, 0.87939453125, 0.289306640625, -0.37646484375
558, 604938801, -7.42863655090332, -1.4707105159759521, 6.08574104309082, -0.8898492455482483, 0.1972113847732544, -2.1836748123168945, 0.8798828125, 0.29052734375, -0.37646484375
559, 604955468, -7.445186138153076, -1.4973351955413818, 6.045769214630127, -1.0217673778533936, 0.3447917401790619, -2.324544668197632, 0.88232421875, 0.2919921875, -0.37353515625
560, 604972135, -7.426390647888184, -1.5304971933364868, 6.068912029266357, -0.9248232841491699, 0.18774747848510742, -2.3733623027801514, 0.87841796875, 0.290283203125, -0.37548828125
561, 604988802, -7.414170742034912, -1.536041021347046, 6.064260482788086, -0.860125720500946, 0.03206069767475128, -2.0862185955047607, 0.87744140625, 0.2919921875, -0.37548828125
562, 605005469, -7.408138275146484, -1.5474333763122559, 6.068119525909424, -0.6840127110481262, -0.26104462146759033, -1.823073387145996, 0.8798828125, 0.29150390625, -0.373046875
563, 605022136, -7.421631336212158, -1.5291458368301392, 6.0624003410339355, -0.558894693851471, -0.30247315764427185, -1.618658423423767, 0.8779296875, 0.291015625, -0.37353515625
564, 605038803, -7.419705867767334, -1.5215524435043335, 6.054999828338623, -0.44121721386909485, -0.3692454993724823, -1.5140691995620728, 0.88232421875, 0.29296875, -0.37548828125
565, 605055470, -7.436254501342773, -1.51250422000885, 6.05452299118042, -0.5165184736251831, -0.2957882583141327, -1.4902364015579224, 0.880859375, 0.29150390625, -0.3740234375
566, 605072137, -7.422886371612549, -1.5496538877487183, 6.066563606262207, -0.39955809712409973, -0.3667994737625122, -1.498509407043457, 0.880859375, 0.29248046875, -0.376953125
567, 605088804, -7.427822589874268, -1.510072112083435, 6.05160665512085, -0.38632917404174805, -0.430715948343277, -1.5577389001846313, 0.87890625, 0.29052734375, -0.3740234375
568, 605105471, -7.415981769561768, -1.5350120067596436, 6.051097393035889, -0.4887927770614624, -0.3691302537918091, -1.5673308372497559, 0.88037109375, 0.29248046875, -0.37353515625
569, 605122138, -7.417208194732666, -1.5390636920928955, 6.063309192657471, -0.44030794501304626, -0.49527281522750854, -1.5634889602661133, 0.87939453125, 0.29296875, -0.373046875
570, 605138805, -7.4228739738464355, -1.5497887134552002, 6.033672332763672, -0.2802797257900238, -0.8079397082328796, -1.4211077690124512, 0.87939453125, 0.29345703125, -0.373046875
571, 605155472, -7.422382831573486, -1.5234375, 6.075992107391357, -0.2518048584461212, -0.780643105506897, -1.286147952079773, 0.880859375, 0.29345703125, -0.37548828125
572, 605172139, -7.423614501953125, -1.5396559238433838, 6.061363220214844, -0.21764390170574188, -0.8412874937057495, -1.242113471031189, 0.876708984375, 0.2919921875, -0.37548828125
573, 605188806, -7.4198527336120605, -1.52781081199646, 6.05746603012085, -0.39213046431541443, -0.542976438999176, -1.4167282581329346, 0.88134765625, 0.29296875, -0.371337890625
574, 605205473, -7.420107841491699, -1.5064557790756226, 6.059022903442383, -0.48844701051712036, -0.3229633569717407, -1.5734267234802246, 0.87939453125, 0.2919921875, -0.3740234375
575, 605222140, -7.430412769317627, -1.5206865072250366, 6.074310302734375, -0.47949540615081787, -0.3850741684436798, -1.6454880237579346, 0.87939453125, 0.29345703125, -0.373046875
576, 605238807, -7.423061847686768, -1.5516674518585205, 6.065678596496582, -0.5683457851409912, -0.2884629964828491, -1.5148502588272095, 0.88330078125, 0.29150390625, -0.37451171875
577, 605255474, -7.429340362548828, -1.5136510133743286, 6.0725531578063965, -0.6936430931091309, 0.0724647268652916, -1.6624433994293213, 0.88330078125, 0.29345703125, -0.37451171875
578, 605272141, -7.428457736968994, -1.5449156761169434, 6.038827419281006, -0.6219275593757629, 0.04827994480729103, -1.645359992980957, 0.8798828125, 0.29150390625, -0.37255859375
579, 605288808, -7.4273457527160645, -1.567858099937439, 6.051731586456299, -0.540261447429657, -0.18500053882598877, -1.5377992391586304, 0.87744140625, 0.2939453125, -0.37255859375
580, 605305475, -7.4262003898620605, -1.5474704504013062, 6.036784648895264, -0.36327773332595825, -0.49537521600723267, -1.3621602058410645, 0.880859375, 0.29345703125, -0.37255859375
581, 605322142, -7.419234275817871, -1.53702974319458, 6.052519798278809, -0.30554670095443726, -0.673063337802887, -1.2958362102508545, 0.880859375, 0.29296875, -0.37353515625
582, 605338809, -7.435980796813965, -1.5401288270950317, 6.0575737953186035, -0.2890777289867401, -0.783722996711731, -1.3598421812057495, 0.88134765625, 0.29443359375, -0.37451171875
583, 605355476, -7.430157661437988, -1.5424396991729736, 6.026706218719482, -0.2103314995765686, -0.8988777995109558, -1.2620017528533936, 0.8818359375, 0.295166015625, -0.37353515625
584, 605372143, -7.426126956939697, -1.550826907157898, 6.061092376708984, -0.236021026968956, -0.8496629595756531, -1.2466470003128052, 0.88134765625, 0.29443359375, -0.373046875
585, 605388810, -7.440921306610107, -1.5334768295288086, 6.044668674468994, -0.2470472753047943, -0.7780498266220093, -1.301573395729065, 0.87841796875, 0.29150390625, -0.3720703125
586, 605405477, -7.439996719360352, -1.5266740322113037, 6.0520172119140625, -0.30911967158317566, -0.6029229164123535, -1.3027642965316772, 0.87939453125, 0.294921875, -0.371337890625
587, 605422144, -7.441553592681885, -1.5299708843231201, 6.045393466949463, -0.292407363653183, -0.825894296169281, -1.3609564304351807, 0.88037109375, 0.29345703125, -0.3720703125
588, 605438811, -7.433096408843994, -1.5504204034805298, 6.033096790313721, -0.3333621025085449, -1.0219852924346924, -1.356845736503601, 0.8798828125, 0.294921875, -0.37255859375
589, 605455478, -7.425150394439697, -1.5312939882278442, 6.074316501617432, -0.2442811280488968, -0.7055914998054504, -1.3901549577713013, 0.8828125, 0.29345703125, -0.3740234375
590, 605472145, -7.436563491821289, -1.5475550889968872, 6.065409183502197, -0.30879953503608704, -0.6885589957237244, -1.3511595726013184, 0.88134765625, 0.2939453125, -0.373046875
591, 605488812, -7.426334381103516, -1.5477079153060913, 6.044831275939941, -0.30471429228782654, -0.8160718679428101, -1.232521414756775, 0.87939453125, 0.29248046875, -0.37255859375
592, 605505479, -7.4330949783325195, -1.544916033744812, 6.068321704864502, -0.26617997884750366, -0.7956072092056274, -1.2715553045272827, 0.87890625, 0.29296875, -0.37353515625
593, 605522146, -7.426548957824707, -1.5566880702972412, 6.0411176681518555, -0.3117770254611969, -0.8199713826179504, -1.2388670444488525, 0.88037109375, 0.29296875, -0.371337890625
594, 605538813, -7.421909332275391, -1.5471616983413696, 6.04591703414917, -0.3325168788433075, -0.8210663199424744, -1.3560899496078491, 0.880859375, 0.29345703125, -0.373046875
595, 605555480, -7.427751064300537, -1.5487756729125977, 6.062851428985596, -0.20021449029445648, -0.8783491849899292, -1.2792391777038574, 0.88037109375, 0.295654296875, -0.375
596, 605572147, -7.428771018981934, -1.534004807472229, 6.060236930847168, -0.21355867385864258, -0.738606333732605, -1.2272965908050537, 0.88134765625, 0.2939453125, -0.373046875
597, 605588814, -7.425924777984619, -1.527369737625122, 6.065391540527344, -0.31951841711997986, -0.5187724232673645, -1.3572168350219727, 0.87890625, 0.295166015625, -0.37158203125
598, 605605481, -7.431769847869873, -1.516521692276001, 6.059745788574219, -0.3402518928050995, -0.5340631604194641, -1.4267553091049194, 0.87890625, 0.294921875, -0.37353515625
599, 605622148, -7.424557685852051, -1.5337504148483276, 6.017669200897217, -0.3373448848724365, -0.6031022667884827, -1.4502935409545898, 0.8798828125, 0.29296875, -0.37255859375
600, 605638815, -7.4237141609191895, -1.5714279413223267, 6.041206359863281, -0.5547582507133484, -0.18032622337341309, -1.226643443107605, 0.88232421875, 0.29345703125, -0.37353515625
601, 605655482, -7.444004058837891, -1.4985321760177612, 6.05069637298584, -0.9083415269851685, 0.1712016761302948, -1.2728614807128906, 0.88037109375, 0.294921875, -0.37255859375
602, 605672149, -7.43340539932251, -1.5440820455551147, 6.046724796295166, -0.9513197541236877, 0.21887974441051483, -1.436539649963379, 0.88134765625, 0.2939453125, -0.371826171875
603, 605688816, -7.44266939163208, -1.52542245388031, 6.016807556152344, -0.8193246126174927, -0.054004374891519547, -1.5086519718170166, 0.8818359375, 0.2939453125, -0.37255859375
604, 605705483, -7.430737018585205, -1.5541585683822632, 6.028172016143799, -0.6778273582458496, -0.2359313815832138, -1.5386446714401245, 0.880859375, 0.29345703125, -0.371826171875
605, 605722150, -7.422524929046631, -1.5431147813796997, 6.033749580383301, -0.5639916658401489, -0.4921736717224121, -1.461140513420105, 0.8798828125, 0.2939453125, -0.37158203125
606, 605738817, -7.428946018218994, -1.5522438287734985, 6.051268577575684, -0.7115336060523987, -0.5260208249092102, -1.3287739753723145, 0.880859375, 0.2939453125, -0.37353515625
607, 605755484, -7.4213948249816895, -1.546919345855713, 6.0334553718566895, -0.8714208602905273, -0.4327905774116516, -1.351723074913025, 0.884033203125, 0.29248046875, -0.37255859375
608, 605772151, -7.434188365936279, -1.5620851516723633, 6.058203220367432, -0.8197088837623596, -0.5074388384819031, -1.138817548751831, 0.8818359375, 0.294677734375, -0.3720703125
609, 605788818, -7.438619613647461, -1.5563576221466064, 6.047365665435791, -0.9102625250816345, -0.5178503394126892, -1.1115655899047852, 0.88037109375, 0.29345703125, -0.370361328125
610, 605805485, -7.427957534790039, -1.5711538791656494, 6.044126987457275, -0.7625157237052917, -0.5238181352615356, -1.238245964050293, 0.87841796875, 0.296142578125, -0.369873046875
611, 605822152, -7.433159351348877, -1.575737714767456, 6.038700103759766, -0.559739887714386, -0.7475449442863464, -1.179643988609314, 0.88232421875, 0.29345703125, -0.371337890625
612, 605838819, -7.440784454345703, -1.5781978368759155, 6.051934719085693, -0.7066031694412231, -0.90927654504776, -1.1459122896194458, 0.8818359375, 0.295654296875, -0.371337890625
613, 605855486, -7.4713568687438965, -1.5390815734863281, 6.077386856079102, -1.081214427947998, -0.7279513478279114, -1.1110788583755493, 0.8818359375, 0.296630859375, -0.37255859375
614, 605872153, -7.441876411437988, -1.5486100912094116, 6.030534267425537, -1.5160541534423828, -0.991557240486145, -1.2233778238296509, 0.8818359375, 0.294677734375, -0.369384765625
615, 605888820, -7.400035381317139, -1.5680227279663086, 6.030280113220215, -1.195946455001831, -1.187622308731079, -1.2361712455749512, 0.87890625, 0.295166015625, -0.370849609375
616, 605905487, -7.403601169586182, -1.5739294290542603, 6.035250186920166, -0.6594245433807373, -1.1508170366287231, -1.0358928442001343, 0.8798828125, 0.29345703125, -0.373046875
617, 605922154, -7.409435272216797, -1.585515022277832, 6.04051399230957, -0.2284909039735794, -0.9629223346710205, -0.8857511878013611, 0.8798828125, 0.295654296875, -0.369873046875
618, 605938821, -7.428045272827148, -1.5833839178085327, 6.016349792480469, -0.351572722196579, -1.142710566520691, -0.8544396162033081, 0.8818359375, 0.29443359375, -0.371337890625
619, 605955488, -7.445786952972412, -1.5663554668426514, 6.030021667480469, -0.25701066851615906, -1.1484606266021729, -0.7115849256515503, 0.88037109375, 0.295654296875, -0.368896484375
620, 605972155, -7.42478084564209, -1.5622570514678955, 6.013057231903076, -0.29952773451805115, -1.3162751197814941, -0.7104706764221191, 0.88232421875, 0.294189453125, -0.370849609375
621, 605988822, -7.423768520355225, -1.561983585357666, 6.037761211395264, -0.09147575497627258, -1.4263328313827515, -0.43110013008117676, 0.8798828125, 0.295166015625, -0.370361328125
622, 606005489, -7.402597904205322, -1.571348786354065, 6.060152053833008, 0.16533637046813965, -1.7899562120437622, -0.30258843302726746, 0.87841796875, 0.295654296875, -0.373046875
623, 606022156, -7.4178690910339355, -1.580496072769165, 6.016617298126221, 0.2821558713912964, -1.8361741304397583, -0.09691844135522842, 0.8798828125, 0.295166015625, -0.370849609375
624, 606038823, -7.411812782287598, -1.564559817314148, 6.043982982635498, 0.6772446632385254, -2.010315418243408, 0.11615999788045883, 0.88037109375, 0.294921875, -0.373046875
625, 606055490, -7.417243003845215, -1.5431638956069946, 6.043278217315674, 0.5141301155090332, -1.7441864013671875, 0.038246165961027145, 0.8828125, 0.2919921875, -0.37255859375
626, 606072157, -7.4175519943237305, -1.5363824367523193, 6.073681831359863, 0.5058444738388062, -1.4140515327453613, -0.08229360729455948, 0.87890625, 0.2939453125, -0.37255859375
627, 606088824, -7.421626567840576, -1.5495840311050415, 6.0733771324157715, 0.3915989398956299, -1.2076771259307861, -0.16918469965457916, 0.87841796875, 0.29541015625, -0.37255859375
628, 606105491, -7.448399066925049, -1.5197603702545166, 6.075851917266846, 0.013811648823320866, -1.068946123123169, -0.23077042400836945, 0.880859375, 0.2919921875, -0.371826171875
629, 606122158, -7.4125075340271, -1.5488592386245728, 6.075798034667969, -0.0019337587291374803, -1.1549022197723389, -0.3356544077396393, 0.88232421875, 0.29345703125, -0.37353515625
630, 606138825, -7.4160542488098145, -1.5389773845672607, 6.054995536804199, 0.029909228906035423, -1.0286571979522705, -0.24251385033130646, 0.8818359375, 0.2900390625, -0.375
631, 606155492, -7.401215076446533, -1.5398719310760498, 6.0493011474609375, 0.23053351044654846, -0.7625157833099365, -0.1468888521194458, 0.88330078125, 0.29150390625, -0.37646484375
632, 606172159, -7.405766010284424, -1.555545687675476, 6.043067932128906, 0.4564759135246277, -0.7994619607925415, 0.027757761999964714, 0.8798828125, 0.2900390625, -0.3740234375
633, 606188826, -7.422275066375732, -1.5284423828125, 6.0631842613220215, 0.3384910523891449, -0.6874192953109741, 0.07223421335220337, 0.880859375, 0.291015625, -0.37255859375
634, 606205493, -7.440395832061768, -1.5214186906814575, 6.08335018157959, -0.18160684406757355, -0.1655604988336563, -0.19171105325222015, 0.8798828125, 0.29296875, -0.3740234375
635, 606222160, -7.4418044090271, -1.4864659309387207, 6.086495399475098, -0.838137149810791, 0.46217474341392517, -0.4376569986343384, 0.882080078125, 0.288818359375, -0.375
636, 606238827, -7.416477680206299, -1.4561727046966553, 6.065595626831055, -0.8930763602256775, 1.1191662549972534, -0.5788981914520264, 0.883544921875, 0.2900390625, -0.371826171875
637, 606255494, -7.4183149337768555, -1.46732497215271, 6.078171253204346, -1.1534550189971924, 2.2120087146759033, -0.7605434656143188, 0.881103515625, 0.288330078125, -0.372802734375
638, 606272161, -7.44428014755249, -1.4499351978302002, 6.114312648773193, -1.7140403985977173, 3.8954930305480957, -1.000009536743164, 0.8798828125, 0.29150390625, -0.3720703125
639, 606288828, -7.425779342651367, -1.4361302852630615, 6.100977420806885, -2.35056734085083, 5.485273838043213, -1.7276920080184937, 0.882568359375, 0.291015625, -0.369384765625
640, 606305495, -7.375211238861084, -1.4827287197113037, 6.040360927581787, -2.0156941413879395, 7.607670783996582, -2.1324880123138428, 0.88037109375, 0.291015625, -0.366943359375
641, 606322162, -7.383096218109131, -1.5813230276107788, 6.084897041320801, -1.5173609256744385, 10.558601379394531, -1.8424757719039917, 0.885498046875, 0.291015625, -0.36376953125
642, 606338829, -7.349312782287598, -1.4745798110961914, 6.127903938293457, -2.2767271995544434, 14.816107749938965, -2.137970447540283, 0.8876953125, 0.291015625, -0.360107421875
643, 606355496, -7.242932319641113, -1.6005805730819702, 6.120525360107422, -2.2747695446014404, 20.39098358154297, -1.6292004585266113, 0.8876953125, 0.29150390625, -0.356689453125
644, 606372163, -7.1840715408325195, -1.6116849184036255, 6.148712158203125, -2.026866912841797, 29.287281036376953, -0.18197877705097198, 0.890380859375, 0.292724609375, -0.349853515625
645, 606388830, -7.251838207244873, -1.7036681175231934, 6.45373010635376, -5.515477180480957, 44.324424743652344, 0.5579317212104797, 0.89404296875, 0.292236328125, -0.338623046875
646, 606405497, -7.128406047821045, -2.202570676803589, 7.883948802947998, -15.967616081237793, 64.6535873413086, 1.9961506128311157, 0.896728515625, 0.293212890625, -0.3203125
647, 606422164, -7.347813606262207, -2.958707571029663, 8.992536544799805, -12.366019248962402, 78.07099914550781, 17.65792465209961, 0.905517578125, 0.291015625, -0.304443359375
648, 606438831, -6.080766677856445, -2.765507698059082, 10.763755798339844, -12.835227966308594, 82.17591094970703, 35.923458099365234, 0.913818359375, 0.28076171875, -0.278564453125
649, 606455498, -4.785857200622559, -4.406894207000732, 12.506965637207031, -11.26541805267334, 70.87689208984375, 52.37898635864258, 0.922119140625, 0.271240234375, -0.259521484375
650, 606472165, -4.759006977081299, -6.307650566101074, 13.955526351928711, -2.3694536685943604, 42.99092102050781, 49.693145751953125, 0.923828125, 0.25732421875, -0.2451171875
651, 606488832, -2.428558349609375, -6.3902692794799805, 13.796182632446289, 4.262274265289307, 14.557793617248535, 33.41273498535156, 0.92333984375, 0.249267578125, -0.239990234375
652, 606505499, -1.1442030668258667, -6.163516521453857, 13.23325252532959, 2.17549991607666, -0.6603344082832336, 15.46311092376709, 0.925537109375, 0.2451171875, -0.2373046875
653, 606522166, -1.2673170566558838, -5.740307807922363, 12.893457412719727, -2.2763569355010986, -16.62027931213379, -0.13947410881519318, 0.927490234375, 0.24560546875, -0.242431640625
