sep=,
DeviceTag:,A,,,,,,,,,,,,,,,,,
FirmwareVersion:,2.2.1,,,,,,,,,,,,,,,,,
AppVersion:,2022.0.1,,,,,,,,,,,,,,,,,
SyncStatus:,Synced,,,,,,,,,,,,,,,,,
OutputRate:,60Hz,,,,,,,,,,,,,,,,,
FilterProfile:,General,,,,,,,,,,,,,,,,,
Measurement Mode:,Inertial Mode - Rate quantities (with mag),,,,,,,,,,,,,,,,,
StartTime:,2022-08-16 15:43:58.863 +0300,,,,,,,,,,,,,,,,,
© Xsens Technologies B. V. 2005-2022,,,,,,,,,,,,,,,,,,,

PacketCounter,SampleTimeFine,Acc_X,Acc_Y,Acc_Z,Gyr_X,Gyr_Y,Gyr_Z,Mag_X,Mag_Y,Mag_Z
1, 2061928635, -5.496021747589111, 1.6641486883163452, 8.044452667236328, -2.4824600219726562, -1.785179615020752, -2.191678762435913, 0.3134765625, -0.155029296875, -0.914306640625
2, 2061945302, -5.476487159729004, 1.6644396781921387, 8.060408592224121, -2.4913604259490967, -1.9180456399917603, -2.0939407348632812, 0.316650390625, -0.15869140625, -0.911865234375
3, 2061961969, -5.488218784332275, 1.6687716245651245, 8.061184883117676, -2.448817491531372, -1.6524161100387573, -2.2350924015045166, 0.31494140625, -0.157470703125, -0.913818359375
4, 2061978636, -5.466944217681885, 1.6571406126022339, 8.04432201385498, -2.3300132751464844, -1.638751745223999, -2.1499686241149902, 0.31494140625, -0.156005859375, -0.912841796875
5, 2061995303, -5.472877025604248, 1.6683236360549927, 8.060883522033691, -2.3609399795532227, -1.5749120712280273, -2.1656432151794434, 0.316162109375, -0.158203125, -0.913330078125
6, 2062011970, -5.487922191619873, 1.6602208614349365, 8.042577743530273, -2.2461698055267334, -1.559698224067688, -2.2238101959228516, 0.317138671875, -0.156005859375, -0.912841796875
7, 2062028637, -5.461662769317627, 1.6831127405166626, 8.051294326782227, -2.334482431411743, -1.5088571310043335, -2.227843999862671, 0.3154296875, -0.15869140625, -0.914794921875
8, 2062045304, -5.487704277038574, 1.6656529903411865, 8.05507755279541, -2.3011858463287354, -1.562105655670166, -2.332292318344116, 0.316162109375, -0.1572265625, -0.911376953125
9, 2062061971, -5.5022454261779785, 1.6604479551315308, 8.039629936218262, -2.409297466278076, -1.6321951150894165, -2.134126901626587, 0.315185546875, -0.15869140625, -0.911376953125
10, 2062078638, -5.500814914703369, 1.658233404159546, 8.038928985595703, -2.3438949584960938, -1.698646903038025, -2.0401666164398193, 0.315185546875, -0.155517578125, -0.9091796875
11, 2062095305, -5.484955310821533, 1.6608679294586182, 8.047616004943848, -2.36806058883667, -1.6693974733352661, -2.0719521045684814, 0.316650390625, -0.156494140625, -0.913330078125
12, 2062111972, -5.4558305740356445, 1.6761550903320312, 8.058616638183594, -2.392508029937744, -1.7536760568618774, -2.1361377239227295, 0.3154296875, -0.158203125, -0.913818359375
13, 2062128639, -5.482545852661133, 1.6729258298873901, 8.05164909362793, -2.396131992340088, -1.5797784328460693, -2.203319549560547, 0.315673828125, -0.156005859375, -0.911376953125
14, 2062145306, -5.484675407409668, 1.6535636186599731, 8.061488151550293, -2.3669593334198, -1.693934440612793, -2.2141542434692383, 0.31396484375, -0.156005859375, -0.911865234375
15, 2062161973, -5.473783016204834, 1.6501609086990356, 8.038229942321777, -2.3485310077667236, -1.5455471277236938, -2.203409433364868, 0.315673828125, -0.156494140625, -0.912841796875
16, 2062178640, -5.469349384307861, 1.6624031066894531, 8.057287216186523, -2.3327534198760986, -1.3861336708068848, -2.1421053409576416, 0.316162109375, -0.156005859375, -0.914306640625
17, 2062195307, -5.471173286437988, 1.6712865829467773, 8.052902221679688, -2.298393964767456, -1.3018038272857666, -2.207174301147461, 0.31396484375, -0.156982421875, -0.911376953125
18, 2062211974, -5.472598075866699, 1.6788080930709839, 8.049221992492676, -2.268632173538208, -1.2556371688842773, -2.32643985748291, 0.31396484375, -0.158203125, -0.910888671875
19, 2062228641, -5.498899459838867, 1.6569314002990723, 8.03244400024414, -2.286637544631958, -1.2908672094345093, -2.342947244644165, 0.31494140625, -0.15771484375, -0.910400390625
20, 2062245308, -5.476360321044922, 1.6728829145431519, 8.050860404968262, -2.2961783409118652, -1.0520159006118774, -2.330717086791992, 0.316162109375, -0.15771484375, -0.911376953125
21, 2062261975, -5.48196268081665, 1.6499989032745361, 8.035367965698242, -2.1771175861358643, -1.0906014442443848, -2.293271541595459, 0.316650390625, -0.15771484375, -0.911865234375
22, 2062278642, -5.490561008453369, 1.670880675315857, 8.044791221618652, -2.216830253601074, -1.1043810844421387, -2.1992855072021484, 0.3154296875, -0.155517578125, -0.912841796875
23, 2062295309, -5.481528282165527, 1.6937769651412964, 8.02829360961914, -2.3135569095611572, -1.23609459400177, -2.348095417022705, 0.315673828125, -0.156982421875, -0.911865234375
24, 2062311976, -5.495380401611328, 1.6784917116165161, 8.038864135742188, -2.4410698413848877, -1.1953190565109253, -2.5784049034118652, 0.31494140625, -0.1572265625, -0.911376953125
25, 2062328643, -5.504097938537598, 1.6463557481765747, 8.048402786254883, -2.4001147747039795, -1.4141796827316284, -2.407670736312866, 0.319091796875, -0.15869140625, -0.9111328125
26, 2062345310, -5.507785797119141, 1.651749610900879, 8.016082763671875, -2.314504384994507, -1.3892840147018433, -2.287149667739868, 0.317626953125, -0.15673828125, -0.91064453125
27, 2062361977, -5.484035015106201, 1.6834408044815063, 8.034696578979492, -2.433962106704712, -1.491235375404358, -2.338618755340576, 0.3154296875, -0.156494140625, -0.912353515625
28, 2062378644, -5.480418682098389, 1.6616687774658203, 8.048355102539062, -2.3487870693206787, -1.3690245151519775, -2.4630327224731445, 0.31494140625, -0.155517578125, -0.912353515625
29, 2062395311, -5.518812656402588, 1.6376782655715942, 8.026328086853027, -2.384158134460449, -1.391960620880127, -2.3952999114990234, 0.317138671875, -0.15771484375, -0.911376953125
30, 2062411978, -5.503819465637207, 1.6515865325927734, 8.034175872802734, -2.3378374576568604, -1.512878179550171, -2.1723411083221436, 0.317626953125, -0.1572265625, -0.913330078125
31, 2062428645, -5.515021800994873, 1.6659690141677856, 8.031513214111328, -2.3656527996063232, -1.5941855907440186, -2.139415979385376, 0.316650390625, -0.15673828125, -0.910888671875
32, 2062445312, -5.472630500793457, 1.671419382095337, 8.03624439239502, -2.3461742401123047, -1.7614109516143799, -2.18149733543396, 0.317626953125, -0.15673828125, -0.910888671875
33, 2062461979, -5.480340480804443, 1.6878206729888916, 8.06044864654541, -2.452954053878784, -1.6014726161956787, -2.4031245708465576, 0.317138671875, -0.15771484375, -0.915283203125
34, 2062478646, -5.503443717956543, 1.653737187385559, 8.042859077453613, -2.553279161453247, -1.5087677240371704, -2.3950695991516113, 0.315673828125, -0.1572265625, -0.910888671875
35, 2062495313, -5.491758346557617, 1.645939588546753, 8.067594528198242, -2.559810161590576, -1.4259870052337646, -2.4100399017333984, 0.316650390625, -0.154052734375, -0.911376953125
36, 2062511980, -5.50085973739624, 1.6554561853408813, 8.065855026245117, -2.4968414306640625, -1.4375897645950317, -2.285933494567871, 0.317626953125, -0.156005859375, -0.910888671875
37, 2062528647, -5.50968599319458, 1.6526947021484375, 8.053272247314453, -2.4166476726531982, -1.4541096687316895, -2.213871955871582, 0.317138671875, -0.156005859375, -0.913330078125
38, 2062545314, -5.4877519607543945, 1.6613094806671143, 8.030224800109863, -2.45320987701416, -1.4900699853897095, -2.237717628479004, 0.316650390625, -0.155517578125, -0.912841796875
39, 2062561981, -5.494416236877441, 1.661217212677002, 8.043876647949219, -2.444424867630005, -1.492644190788269, -2.3334708213806152, 0.319091796875, -0.155517578125, -0.914306640625
40, 2062578648, -5.5153889656066895, 1.643692135810852, 8.03929615020752, -2.351181983947754, -1.501659870147705, -2.3618242740631104, 0.319091796875, -0.15625, -0.912353515625
41, 2062595315, -5.505438327789307, 1.6433519124984741, 8.067469596862793, -2.2747793197631836, -1.4717442989349365, -2.23122501373291, 0.317626953125, -0.156005859375, -0.91064453125
42, 2062611982, -5.49855375289917, 1.6654096841812134, 8.046795845031738, -2.258450984954834, -1.509817361831665, -2.2256922721862793, 0.317138671875, -0.156494140625, -0.9091796875
43, 2062628649, -5.495591640472412, 1.6580771207809448, 8.028655052185059, -2.2343878746032715, -1.4940656423568726, -2.1899497509002686, 0.316650390625, -0.15869140625, -0.911376953125
44, 2062645316, -5.503269195556641, 1.660744071006775, 8.015892028808594, -2.3075504302978516, -1.4936556816101074, -2.262587308883667, 0.317138671875, -0.156494140625, -0.911376953125
45, 2062661983, -5.494306564331055, 1.6598901748657227, 8.034945487976074, -2.25687575340271, -1.5735161304473877, -2.1443207263946533, 0.316162109375, -0.156005859375, -0.910888671875
46, 2062678650, -5.486341953277588, 1.668355107307434, 8.04620361328125, -2.247283697128296, -1.4246550798416138, -2.202845573425293, 0.317138671875, -0.1572265625, -0.912353515625
47, 2062695317, -5.516419410705566, 1.6543800830841064, 8.055621147155762, -2.292656898498535, -1.4998669624328613, -2.3738107681274414, 0.317138671875, -0.1572265625, -0.912353515625
48, 2062711984, -5.4969868659973145, 1.6812235116958618, 8.030129432678223, -2.3521554470062256, -1.4484367370605469, -2.255608081817627, 0.318115234375, -0.15771484375, -0.912353515625
49, 2062728651, -5.495641231536865, 1.654961347579956, 8.054579734802246, -2.401024103164673, -1.3415805101394653, -2.4732649326324463, 0.317626953125, -0.155517578125, -0.911376953125
50, 2062745318, -5.518085956573486, 1.6171865463256836, 8.055156707763672, -2.28261661529541, -1.2670345306396484, -2.3370048999786377, 0.318603515625, -0.154541015625, -0.912841796875
51, 2062761985, -5.517270088195801, 1.6606696844100952, 8.036078453063965, -2.255812883377075, -1.30381441116333, -2.1362783908843994, 0.318115234375, -0.156005859375, -0.911376953125
52, 2062778652, -5.523474216461182, 1.6537152528762817, 8.04449462890625, -2.247283697128296, -1.551950216293335, -2.0669448375701904, 0.317626953125, -0.156005859375, -0.912841796875
53, 2062795319, -5.493343830108643, 1.6711534261703491, 8.028902053833008, -2.351976156234741, -1.6129214763641357, -2.1522867679595947, 0.319091796875, -0.1572265625, -0.9111328125
54, 2062811986, -5.510117053985596, 1.6492935419082642, 8.062996864318848, -2.3251335620880127, -1.788893461227417, -2.2174453735351562, 0.315673828125, -0.156494140625, -0.911376953125
55, 2062828653, -5.5096116065979, 1.6361479759216309, 8.03750228881836, -2.2982146739959717, -1.7379240989685059, -2.093594789505005, 0.317626953125, -0.15673828125, -0.912841796875
56, 2062845320, -5.512098789215088, 1.68317449092865, 8.02613639831543, -2.2800424098968506, -1.819103479385376, -2.018946409225464, 0.317626953125, -0.16015625, -0.911865234375
57, 2062861987, -5.506689548492432, 1.6738382577896118, 8.049317359924316, -2.4005630016326904, -1.721685767173767, -2.1337430477142334, 0.318603515625, -0.1572265625, -0.912353515625
58, 2062878654, -5.499919891357422, 1.661668300628662, 8.046027183532715, -2.4352426528930664, -1.7533687353134155, -2.293783664703369, 0.319091796875, -0.15673828125, -0.91064453125
59, 2062895321, -5.490717887878418, 1.6619720458984375, 8.036604881286621, -2.3794326782226562, -1.657257080078125, -2.129452705383301, 0.317626953125, -0.1591796875, -0.914306640625
60, 2062911988, -5.483991622924805, 1.6512713432312012, 8.047750473022461, -2.386425256729126, -1.5147095918655396, -2.2515227794647217, 0.319580078125, -0.15771484375, -0.91015625
61, 2062928655, -5.514030933380127, 1.662337064743042, 8.040017127990723, -2.331523895263672, -1.4689650535583496, -2.2437620162963867, 0.318115234375, -0.156005859375, -0.912353515625
62, 2062945322, -5.512551784515381, 1.6542768478393555, 8.049969673156738, -2.312378406524658, -1.3872861862182617, -2.3046817779541016, 0.316650390625, -0.156005859375, -0.913818359375
63, 2062961989, -5.519059181213379, 1.6551345586776733, 8.034164428710938, -2.303286075592041, -1.4714879989624023, -2.2310068607330322, 0.318115234375, -0.15625, -0.911376953125
64, 2062978656, -5.523952484130859, 1.6403765678405762, 8.044662475585938, -2.3819940090179443, -1.6749682426452637, -2.056892156600952, 0.316162109375, -0.158203125, -0.911376953125
65, 2062995323, -5.523888111114502, 1.6557331085205078, 8.02503490447998, -2.363616704940796, -1.8724547624588013, -2.033686637878418, 0.317626953125, -0.15771484375, -0.91064453125
66, 2063011990, -5.496400833129883, 1.6605286598205566, 8.038163185119629, -2.4007039070129395, -1.9056618213653564, -2.0794055461883545, 0.318115234375, -0.155517578125, -0.912841796875
67, 2063028657, -5.4913249015808105, 1.6710789203643799, 8.052742004394531, -2.370506763458252, -1.9014228582382202, -2.0856807231903076, 0.316650390625, -0.158203125, -0.91064453125
68, 2063045324, -5.496978282928467, 1.6621220111846924, 8.0322265625, -2.381532907485962, -1.9146134853363037, -2.2057018280029297, 0.317626953125, -0.155517578125, -0.914794921875
69, 2063061991, -5.482882976531982, 1.6733660697937012, 8.0595121383667, -2.4054553508758545, -1.805785059928894, -2.3056297302246094, 0.316650390625, -0.156494140625, -0.912841796875
70, 2063078658, -5.504311561584473, 1.6454483270645142, 8.034805297851562, -2.4991719722747803, -1.6756469011306763, -2.3331634998321533, 0.316162109375, -0.156494140625, -0.91015625
71, 2063095325, -5.505229949951172, 1.6645081043243408, 8.04171085357666, -2.318474292755127, -1.765662670135498, -2.2454652786254883, 0.317138671875, -0.1572265625, -0.91064453125
72, 2063111992, -5.494986057281494, 1.6671042442321777, 8.047019958496094, -2.33585262298584, -1.46485435962677, -2.2548909187316895, 0.317138671875, -0.1572265625, -0.911865234375
73, 2063128659, -5.518131732940674, 1.655088186264038, 8.050529479980469, -2.2000155448913574, -1.3554879426956177, -2.128953218460083, 0.317626953125, -0.155517578125, -0.911376953125
74, 2063145326, -5.505736827850342, 1.6721339225769043, 8.03697395324707, -2.2858948707580566, -1.5119816064834595, -2.0625393390655518, 0.317138671875, -0.1572265625, -0.91015625
75, 2063161993, -5.536430358886719, 1.651426076889038, 8.016616821289062, -2.2924137115478516, -1.6242934465408325, -2.1594324111938477, 0.317626953125, -0.155029296875, -0.91015625
76, 2063178660, -5.493284702301025, 1.6739816665649414, 8.031949043273926, -2.3592560291290283, -1.792357325553894, -2.1850385665893555, 0.317138671875, -0.15673828125, -0.912841796875
77, 2063195327, -5.503510475158691, 1.6547147035598755, 8.036354064941406, -2.3346104621887207, -1.8062845468521118, -2.1559104919433594, 0.318115234375, -0.15869140625, -0.9111328125
78, 2063211994, -5.505425930023193, 1.6604231595993042, 8.054672241210938, -2.3570215702056885, -1.64861261844635, -2.0894713401794434, 0.315673828125, -0.1572265625, -0.911865234375
79, 2063228661, -5.490833759307861, 1.6646872758865356, 8.035886764526367, -2.3851442337036133, -1.605647325515747, -2.1117541790008545, 0.315673828125, -0.156005859375, -0.912353515625
80, 2063245328, -5.490522384643555, 1.6733522415161133, 8.037853240966797, -2.362835645675659, -1.4606666564941406, -2.2516510486602783, 0.318115234375, -0.158203125, -0.91015625
81, 2063261995, -5.505936622619629, 1.6699178218841553, 8.044297218322754, -2.4509308338165283, -1.4826936721801758, -2.2396512031555176, 0.317138671875, -0.156982421875, -0.915283203125
82, 2063278662, -5.499922275543213, 1.6562931537628174, 8.031889915466309, -2.449061155319214, -1.4450814723968506, -2.3321263790130615, 0.316162109375, -0.15673828125, -0.910888671875
83, 2063295329, -5.521810531616211, 1.6598304510116577, 8.024846076965332, -2.412947177886963, -1.5191404819488525, -2.220416307449341, 0.316650390625, -0.156005859375, -0.910400390625
84, 2063311996, -5.504331111907959, 1.642099142074585, 8.052202224731445, -2.389050245285034, -1.4980229139328003, -2.2420077323913574, 0.318115234375, -0.15869140625, -0.911376953125
85, 2063328663, -5.514893531799316, 1.66615629196167, 8.032356262207031, -2.3071277141571045, -1.6147654056549072, -2.1680121421813965, 0.316162109375, -0.155517578125, -0.910400390625
86, 2063345330, -5.503434658050537, 1.6441422700881958, 8.019632339477539, -2.3132238388061523, -1.6477417945861816, -2.1776556968688965, 0.317626953125, -0.158203125, -0.910888671875
87, 2063361997, -5.511926651000977, 1.6589341163635254, 8.05237102508545, -2.38651442527771, -1.733992576599121, -2.0694034099578857, 0.318115234375, -0.15771484375, -0.912353515625
88, 2063378664, -5.5110955238342285, 1.6573247909545898, 8.040914535522461, -2.4293649196624756, -1.6952534914016724, -2.164337396621704, 0.318603515625, -0.15673828125, -0.911376953125
89, 2063395331, -5.496359825134277, 1.6678882837295532, 8.0374174118042, -2.3915088176727295, -1.9006927013397217, -2.1681532859802246, 0.317138671875, -0.1572265625, -0.911376953125
90, 2063411998, -5.4793009757995605, 1.6759127378463745, 8.04442024230957, -2.3960041999816895, -1.736886978149414, -2.2229135036468506, 0.319580078125, -0.1572265625, -0.911376953125
91, 2063428665, -5.502032279968262, 1.6591882705688477, 8.038432121276855, -2.371133804321289, -1.6646844148635864, -2.3176801204681396, 0.316162109375, -0.155517578125, -0.910400390625
92, 2063445332, -5.488976001739502, 1.6665436029434204, 8.047257423400879, -2.4071202278137207, -1.6803597211837769, -2.336672306060791, 0.317138671875, -0.156005859375, -0.910400390625
93, 2063461999, -5.522526741027832, 1.6625170707702637, 8.026660919189453, -2.4525058269500732, -1.7761130332946777, -2.3212666511535645, 0.318603515625, -0.1591796875, -0.911865234375
94, 2063478666, -5.490309715270996, 1.6699657440185547, 8.038812637329102, -2.4881973266601562, -1.7883174419403076, -2.311405658721924, 0.317138671875, -0.156494140625, -0.910888671875
95, 2063495333, -5.51288366317749, 1.5993144512176514, 8.04018497467041, -2.404059410095215, -1.5645006895065308, -2.098628044128418, 0.317138671875, -0.15673828125, -0.910888671875
96, 2063512000, -5.489399433135986, 1.7184213399887085, 8.02878475189209, -2.4281225204467773, -1.626137614250183, -2.289301633834839, 0.316650390625, -0.1572265625, -0.912353515625
97, 2063528667, -5.509772777557373, 1.6371043920516968, 8.037513732910156, -2.4117815494537354, -1.5193455219268799, -2.290070056915283, 0.319580078125, -0.15673828125, -0.911376953125
98, 2063545334, -5.508878231048584, 1.6494052410125732, 8.01309871673584, -2.2862789630889893, -1.6303250789642334, -2.0482983589172363, 0.316162109375, -0.158203125, -0.911376953125
99, 2063562001, -5.514536380767822, 1.6745779514312744, 8.034446716308594, -2.3535382747650146, -1.748924970626831, -2.1513259410858154, 0.317138671875, -0.155029296875, -0.911376953125
100, 2063578668, -5.501428127288818, 1.6422895193099976, 8.053133010864258, -2.3398735523223877, -1.734466314315796, -2.014105796813965, 0.318115234375, -0.15625, -0.911376953125
101, 2063595335, -5.512439250946045, 1.6755667924880981, 8.012008666992188, -2.3841323852539062, -1.994742512702942, -1.985816478729248, 0.317138671875, -0.156494140625, -0.90869140625
102, 2063612002, -5.493015766143799, 1.687617301940918, 8.057393074035645, -2.539806604385376, -1.9346554279327393, -2.2172532081604004, 0.317626953125, -0.15625, -0.9091796875
103, 2063628669, -5.479308605194092, 1.673911452293396, 8.047700881958008, -2.553727388381958, -1.8053754568099976, -2.3168740272521973, 0.316650390625, -0.156005859375, -0.911865234375
104, 2063645336, -5.4927287101745605, 1.6545969247817993, 8.066561698913574, -2.553112506866455, -1.5559718608856201, -2.411986827850342, 0.317138671875, -0.15771484375, -0.912353515625
105, 2063662003, -5.525826930999756, 1.6364877223968506, 8.055018424987793, -2.4279048442840576, -1.5613503456115723, -2.1782705783843994, 0.316162109375, -0.15673828125, -0.9091796875
106, 2063678670, -5.517574310302734, 1.6486096382141113, 8.031339645385742, -2.375859498977661, -1.5780112743377686, -1.997572898864746, 0.315673828125, -0.15771484375, -0.911865234375
107, 2063695337, -5.521335124969482, 1.6820143461227417, 8.02997875213623, -2.4027531147003174, -1.836328148841858, -2.107067346572876, 0.315185546875, -0.156494140625, -0.911865234375
108, 2063712004, -5.5051751136779785, 1.6745882034301758, 8.049893379211426, -2.6229841709136963, -1.9800797700881958, -2.288264513015747, 0.315185546875, -0.155517578125, -0.910400390625
109, 2063728671, -5.485827922821045, 1.6491121053695679, 8.04784107208252, -2.693264961242676, -1.9039583206176758, -2.447268009185791, 0.317138671875, -0.1591796875, -0.912841796875
110, 2063745338, -5.481035232543945, 1.635276198387146, 8.053211212158203, -2.517164945602417, -1.7024633884429932, -2.322572708129883, 0.316162109375, -0.156494140625, -0.913330078125
111, 2063762005, -5.5007476806640625, 1.6495609283447266, 8.056242942810059, -2.3452396392822266, -1.4978177547454834, -2.1815104484558105, 0.319091796875, -0.1572265625, -0.912353515625
112, 2063778672, -5.50972843170166, 1.6584240198135376, 8.02538776397705, -2.229790210723877, -1.5646157264709473, -2.099229574203491, 0.317626953125, -0.15673828125, -0.9091796875
113, 2063795339, -5.514873027801514, 1.6731072664260864, 8.016583442687988, -2.3254024982452393, -1.66081702709198, -2.0637691020965576, 0.317626953125, -0.156005859375, -0.913818359375
114, 2063812006, -5.50625467300415, 1.668616533279419, 8.036998748779297, -2.4856996536254883, -1.8510043621063232, -2.0219433307647705, 0.317138671875, -0.1572265625, -0.912353515625
115, 2063828673, -5.5035834312438965, 1.6668920516967773, 8.039177894592285, -2.403841495513916, -1.9481405019760132, -2.2219018936157227, 0.318603515625, -0.15869140625, -0.913818359375
116, 2063845340, -5.491846561431885, 1.6679686307907104, 8.045265197753906, -2.5054216384887695, -1.9552866220474243, -2.2125275135040283, 0.315185546875, -0.156982421875, -0.909912109375
117, 2063862007, -5.4771952629089355, 1.674646019935608, 8.065232276916504, -2.5540218353271484, -1.5950182676315308, -2.3490047454833984, 0.315673828125, -0.156494140625, -0.910400390625
118, 2063878674, -5.500345230102539, 1.6421639919281006, 8.040128707885742, -2.3724660873413086, -1.3013429641723633, -2.4146885871887207, 0.317626953125, -0.156005859375, -0.911376953125
119, 2063895341, -5.506752014160156, 1.6515697240829468, 8.033577919006348, -2.3359038829803467, -1.3938686847686768, -2.2022695541381836, 0.316162109375, -0.156494140625, -0.90966796875
120, 2063912008, -5.5068678855896, 1.6598907709121704, 8.039872169494629, -2.399845838546753, -1.3861465454101562, -2.2039215564727783, 0.317138671875, -0.15771484375, -0.911376953125
121, 2063928675, -5.509047031402588, 1.6665399074554443, 8.06080150604248, -2.3544857501983643, -1.593468427658081, -2.2710907459259033, 0.31494140625, -0.156982421875, -0.909912109375
122, 2063945342, -5.506039142608643, 1.655261754989624, 8.027395248413086, -2.396132469177246, -1.96481454372406, -2.2941172122955322, 0.316162109375, -0.156494140625, -0.914306640625
123, 2063962009, -5.498186111450195, 1.6559133529663086, 8.039285659790039, -2.5623586177825928, -2.0657029151916504, -2.1860055923461914, 0.31494140625, -0.155517578125, -0.911376953125
124, 2063978676, -5.49414587020874, 1.6651191711425781, 8.036355972290039, -2.4790406227111816, -2.0631802082061768, -2.1334996223449707, 0.315185546875, -0.1572265625, -0.911865234375
125, 2063995343, -5.491644859313965, 1.6635726690292358, 8.037023544311523, -2.5647664070129395, -1.9776208400726318, -2.1372647285461426, 0.317138671875, -0.156494140625, -0.910400390625
126, 2064012010, -5.479269504547119, 1.6721515655517578, 8.033890724182129, -2.565598487854004, -1.8307061195373535, -2.2070209980010986, 0.317626953125, -0.156494140625, -0.912353515625
127, 2064028677, -5.488988399505615, 1.6439659595489502, 8.055684089660645, -2.5081751346588135, -1.5907024145126343, -2.3343288898468018, 0.316650390625, -0.1572265625, -0.910888671875
128, 2064045344, -5.505002975463867, 1.651789903640747, 8.064449310302734, -2.451237916946411, -1.5649102926254272, -2.28041410446167, 0.318603515625, -0.15625, -0.910888671875
129, 2064062011, -5.501245975494385, 1.653161644935608, 8.054465293884277, -2.4378294944763184, -1.508536696434021, -2.2530465126037598, 0.316162109375, -0.1572265625, -0.911865234375
130, 2064078678, -5.503913402557373, 1.6525226831436157, 8.047587394714355, -2.2845888137817383, -1.5355583429336548, -2.1469333171844482, 0.316650390625, -0.156982421875, -0.916015625
131, 2064095345, -5.505925178527832, 1.652883529663086, 8.045862197875977, -2.2754709720611572, -1.6547468900680542, -2.0927882194519043, 0.316650390625, -0.15771484375, -0.910888671875
132, 2064112012, -5.499648094177246, 1.6721258163452148, 8.020774841308594, -2.2868425846099854, -1.746914029121399, -2.0724387168884277, 0.316162109375, -0.156494140625, -0.910888671875
133, 2064128679, -5.507038116455078, 1.6592024564743042, 8.023653030395508, -2.3403093814849854, -1.8118295669555664, -2.1177732944488525, 0.317138671875, -0.156005859375, -0.91015625
134, 2064145346, -5.500417709350586, 1.6509300470352173, 8.036726951599121, -2.3236868381500244, -1.984702467918396, -2.108412265777588, 0.315673828125, -0.156494140625, -0.910400390625
135, 2064162013, -5.488652229309082, 1.6563475131988525, 8.04368782043457, -2.360018014907837, -1.94892156124115, -2.0828120708465576, 0.315185546875, -0.156494140625, -0.90966796875
136, 2064178680, -5.508615493774414, 1.6787327527999878, 8.0645751953125, -2.3829798698425293, -2.0541255474090576, -2.056161880493164, 0.315673828125, -0.155517578125, -0.911376953125
137, 2064195347, -5.499448776245117, 1.660027265548706, 8.054840087890625, -2.36982798576355, -1.9415451288223267, -2.12481689453125, 0.317626953125, -0.15625, -0.90966796875
138, 2064212014, -5.483322620391846, 1.6630032062530518, 8.049901962280273, -2.440634250640869, -1.8686513900756836, -2.117952585220337, 0.317138671875, -0.155029296875, -0.910888671875
139, 2064228681, -5.499195575714111, 1.659693956375122, 8.02949047088623, -2.43410325050354, -2.0108275413513184, -2.12982439994812, 0.317138671875, -0.155517578125, -0.911865234375
140, 2064245348, -5.4713454246521, 1.6870567798614502, 8.071859359741211, -2.4271364212036133, -1.947064757347107, -2.0692243576049805, 0.31494140625, -0.155517578125, -0.912841796875
141, 2064262015, -5.49788236618042, 1.6630033254623413, 8.050793647766113, -2.36263108253479, -1.8572025299072266, -2.154860496520996, 0.316162109375, -0.155517578125, -0.911865234375
142, 2064278682, -5.491973400115967, 1.6490992307662964, 8.063718795776367, -2.335097074508667, -1.8210885524749756, -2.048874855041504, 0.316162109375, -0.1572265625, -0.912841796875
143, 2064295349, -5.4940643310546875, 1.6692076921463013, 8.049823760986328, -2.285933017730713, -1.7252329587936401, -2.0255930423736572, 0.316162109375, -0.15771484375, -0.910888671875
144, 2064312016, -5.47694206237793, 1.6748560667037964, 8.051631927490234, -2.313863754272461, -1.6858022212982178, -2.0548043251037598, 0.31494140625, -0.156494140625, -0.912353515625
145, 2064328683, -5.485047340393066, 1.676925539970398, 8.059542655944824, -2.313492774963379, -1.6745328903198242, -2.128953456878662, 0.316162109375, -0.156982421875, -0.912353515625
146, 2064345350, -5.494719982147217, 1.6486785411834717, 8.037580490112305, -2.3282201290130615, -1.7372839450836182, -2.118093490600586, 0.317138671875, -0.1572265625, -0.912841796875
147, 2064362017, -5.50763463973999, 1.6547425985336304, 8.044530868530273, -2.339681625366211, -1.7804155349731445, -1.959179401397705, 0.318115234375, -0.155029296875, -0.912353515625
148, 2064378684, -5.493628978729248, 1.6730364561080933, 8.03786849975586, -2.4583966732025146, -2.026515483856201, -1.970141887664795, 0.316650390625, -0.158203125, -0.912353515625
149, 2064395351, -5.4829301834106445, 1.6652510166168213, 8.046055793762207, -2.4897849559783936, -1.9526991844177246, -2.068417549133301, 0.317626953125, -0.1572265625, -0.913818359375
150, 2064412018, -5.4727783203125, 1.6657699346542358, 8.042004585266113, -2.4516992568969727, -1.8655650615692139, -2.1520943641662598, 0.315673828125, -0.156005859375, -0.913818359375
151, 2064428685, -5.479827404022217, 1.6444734334945679, 8.057809829711914, -2.4117045402526855, -1.7326865196228027, -2.1136624813079834, 0.314453125, -0.155517578125, -0.910888671875
152, 2064445352, -5.504546642303467, 1.6711996793746948, 8.032523155212402, -2.3953893184661865, -1.6981605291366577, -2.050258159637451, 0.316162109375, -0.156982421875, -0.913330078125
153, 2064462019, -5.500755786895752, 1.663748025894165, 8.05031681060791, -2.335750102996826, -1.9460912942886353, -2.1048641204833984, 0.31494140625, -0.155517578125, -0.913330078125
154, 2064478686, -5.523355960845947, 1.6439653635025024, 8.071845054626465, -2.424600601196289, -2.1814210414886475, -1.9508681297302246, 0.316162109375, -0.156982421875, -0.913330078125
155, 2064495353, -5.459601402282715, 1.6877614259719849, 8.047266960144043, -2.4107186794281006, -2.4217453002929688, -1.9028701782226562, 0.316650390625, -0.156005859375, -0.912353515625
156, 2064512020, -5.491252899169922, 1.6800469160079956, 8.049345016479492, -2.731812000274658, -2.4253432750701904, -2.040128231048584, 0.3154296875, -0.15771484375, -0.915283203125
157, 2064528687, -5.5017900466918945, 1.6593300104141235, 8.062897682189941, -2.3866941928863525, -2.5604634284973145, -1.858970046043396, 0.31494140625, -0.15771484375, -0.910400390625
158, 2064545354, -5.483783721923828, 1.6805847883224487, 8.062092781066895, -2.263010025024414, -2.5909297466278076, -1.7234658002853394, 0.31494140625, -0.156005859375, -0.913330078125
159, 2064562021, -5.4683709144592285, 1.6649729013442993, 8.040701866149902, -2.3594422340393066, -2.581094264984131, -1.6954456567764282, 0.3134765625, -0.15869140625, -0.912353515625
160, 2064578688, -5.449372291564941, 1.6678229570388794, 8.044151306152344, -2.386348247528076, -2.36328387260437, -1.798946499824524, 0.31396484375, -0.156005859375, -0.912353515625
161, 2064595355, -5.446127414703369, 1.6895586252212524, 8.084823608398438, -2.3224825859069824, -2.1978766918182373, -1.9498820304870605, 0.31396484375, -0.155517578125, -0.912353515625
162, 2064612022, -5.451885223388672, 1.6765979528427124, 8.057662010192871, -2.36622953414917, -1.9952164888381958, -2.0109684467315674, 0.3134765625, -0.158203125, -0.914306640625
163, 2064628689, -5.435542106628418, 1.6864495277404785, 8.080899238586426, -2.3058600425720215, -1.8534375429153442, -2.0940306186676025, 0.31201171875, -0.157470703125, -0.911376953125
164, 2064645356, -5.472548484802246, 1.6574606895446777, 8.0552339553833, -2.32828426361084, -1.722710371017456, -2.2330944538116455, 0.31494140625, -0.1572265625, -0.911865234375
165, 2064662023, -5.466344833374023, 1.6576933860778809, 8.069931983947754, -2.282104253768921, -1.5974255800247192, -2.2273571491241455, 0.315673828125, -0.156982421875, -0.913330078125
166, 2064678690, -5.479816436767578, 1.6610321998596191, 8.07126235961914, -2.3538453578948975, -1.6370099782943726, -2.030484914779663, 0.3134765625, -0.157470703125, -0.912353515625
167, 2064695357, -5.470370769500732, 1.6607381105422974, 8.058371543884277, -2.2483081817626953, -1.683279275894165, -2.1182215213775635, 0.3134765625, -0.157470703125, -0.911376953125
168, 2064712024, -5.466479301452637, 1.6833703517913818, 8.047656059265137, -2.3870012760162354, -1.8879505395889282, -2.141157865524292, 0.3125, -0.157470703125, -0.91455078125
169, 2064728691, -5.452718734741211, 1.6832596063613892, 8.062581062316895, -2.4408516883850098, -1.911040186882019, -2.1566660404205322, 0.31201171875, -0.156982421875, -0.912841796875
170, 2064745358, -5.475409984588623, 1.7012419700622559, 8.08142375946045, -2.5027711391448975, -1.74568510055542, -2.3366596698760986, 0.31396484375, -0.1591796875, -0.912841796875
171, 2064762025, -5.456566333770752, 1.6615626811981201, 8.057339668273926, -2.581145763397217, -1.5154396295547485, -2.3683300018310547, 0.314453125, -0.15869140625, -0.911865234375
172, 2064778692, -5.456113815307617, 1.6549553871154785, 8.05379581451416, -2.483023166656494, -1.5079861879348755, -2.2357451915740967, 0.31201171875, -0.157958984375, -0.912353515625
173, 2064795359, -5.485409736633301, 1.6618729829788208, 8.050605773925781, -2.540818452835083, -1.621322512626648, -2.214371681213379, 0.3134765625, -0.157470703125, -0.9150390625
174, 2064812026, -5.4719367027282715, 1.684058427810669, 8.068526268005371, -2.6868491172790527, -1.6380987167358398, -2.253815174102783, 0.315673828125, -0.158203125, -0.912353515625
175, 2064828693, -5.468039035797119, 1.6649231910705566, 8.06512451171875, -2.5809407234191895, -1.6732650995254517, -2.324570417404175, 0.31298828125, -0.157470703125, -0.914306640625
176, 2064845360, -5.490786552429199, 1.6361868381500244, 8.058759689331055, -2.458319902420044, -1.68030846118927, -2.265712261199951, 0.3134765625, -0.156982421875, -0.913818359375
177, 2064862027, -5.489450454711914, 1.6539688110351562, 8.050725936889648, -2.5103652477264404, -1.876565933227539, -2.1754915714263916, 0.31396484375, -0.157470703125, -0.911865234375
178, 2064878694, -5.482428073883057, 1.6526119709014893, 8.046380996704102, -2.359877347946167, -1.990260362625122, -2.181151866912842, 0.3125, -0.157470703125, -0.911376953125
179, 2064895361, -5.467206001281738, 1.6569255590438843, 8.081401824951172, -2.309522867202759, -1.905918002128601, -2.119527816772461, 0.314453125, -0.157470703125, -0.913818359375
180, 2064912028, -5.457887649536133, 1.6658154726028442, 8.071477890014648, -2.1592016220092773, -1.7806332111358643, -1.9429152011871338, 0.31201171875, -0.155517578125, -0.911376953125
181, 2064928695, -5.477331638336182, 1.6555293798446655, 8.08871078491211, -2.1405301094055176, -1.7206480503082275, -1.863925814628601, 0.31201171875, -0.155029296875, -0.913818359375
182, 2064945362, -5.458746910095215, 1.6835911273956299, 8.051158905029297, -2.17061185836792, -1.7795062065124512, -1.8844287395477295, 0.3115234375, -0.155517578125, -0.912841796875
183, 2064962029, -5.445879936218262, 1.6747597455978394, 8.046978950500488, -2.297625780105591, -1.7305477857589722, -2.0085480213165283, 0.31396484375, -0.156494140625, -0.913330078125
184, 2064978696, -5.430071830749512, 1.680309534072876, 8.083950996398926, -2.4030094146728516, -1.6731497049331665, -2.034327268600464, 0.3115234375, -0.154541015625, -0.913818359375
185, 2064995363, -5.439565181732178, 1.677865743637085, 8.071657180786133, -2.4566550254821777, -1.541807770729065, -2.3039138317108154, 0.314453125, -0.155517578125, -0.910888671875
186, 2065012030, -5.435881614685059, 1.698979139328003, 8.093459129333496, -2.5738332271575928, -1.4280744791030884, -2.35717511177063, 0.3115234375, -0.158203125, -0.912841796875
187, 2065028697, -5.456575393676758, 1.6836485862731934, 8.093530654907227, -2.588240146636963, -1.2028236389160156, -2.458832263946533, 0.310546875, -0.155517578125, -0.912353515625
188, 2065045364, -5.484264373779297, 1.6635081768035889, 8.065614700317383, -2.564164161682129, -1.2405641078948975, -2.45218563079834, 0.3125, -0.156494140625, -0.911865234375
189, 2065062031, -5.495396137237549, 1.6407115459442139, 8.040986061096191, -2.5662386417388916, -1.4663910865783691, -2.387500524520874, 0.31396484375, -0.156494140625, -0.910888671875
190, 2065078698, -5.476544380187988, 1.6685657501220703, 8.037787437438965, -2.6350347995758057, -1.6345899105072021, -2.348620653152466, 0.3134765625, -0.154052734375, -0.91455078125
191, 2065095365, -5.468849182128906, 1.6687686443328857, 8.063051223754883, -2.505012035369873, -1.7683011293411255, -2.394813299179077, 0.3134765625, -0.156494140625, -0.913330078125
192, 2065112032, -5.469080924987793, 1.633455753326416, 8.090910911560059, -2.5243752002716064, -1.6970335245132446, -2.226012706756592, 0.3134765625, -0.158203125, -0.914794921875
193, 2065128699, -5.481302738189697, 1.6518222093582153, 8.050440788269043, -2.4232044219970703, -1.6535173654556274, -2.0146820545196533, 0.3134765625, -0.156494140625, -0.912353515625
194, 2065145366, -5.461193561553955, 1.6703451871871948, 8.080255508422852, -2.35819935798645, -1.7482715845108032, -1.9496002197265625, 0.3125, -0.154541015625, -0.912841796875
195, 2065162033, -5.469460487365723, 1.680398941040039, 8.058893203735352, -2.5402934551239014, -1.6111669540405273, -2.127403736114502, 0.31201171875, -0.156982421875, -0.914306640625
196, 2065178700, -5.44549036026001, 1.6879647970199585, 8.069604873657227, -2.6074371337890625, -1.6437593698501587, -2.283397912979126, 0.31396484375, -0.155517578125, -0.909423828125
197, 2065195367, -5.449701309204102, 1.6856049299240112, 8.036346435546875, -2.5795958042144775, -1.4976385831832886, -2.2675561904907227, 0.3125, -0.155517578125, -0.911865234375
198, 2065212034, -5.453627109527588, 1.6450856924057007, 8.057361602783203, -2.6202175617218018, -1.4287147521972656, -2.3393101692199707, 0.31494140625, -0.15771484375, -0.912841796875
199, 2065228701, -5.466515064239502, 1.651869297027588, 8.05443286895752, -2.4142403602600098, -1.3324495553970337, -2.3534743785858154, 0.314453125, -0.155029296875, -0.913330078125
200, 2065245368, -5.47788667678833, 1.6494977474212646, 8.039632797241211, -2.4500725269317627, -1.419724702835083, -2.1458446979522705, 0.3134765625, -0.155029296875, -0.913330078125
201, 2065262035, -5.497063636779785, 1.6777433156967163, 8.042655944824219, -2.364372491836548, -1.4851140975952148, -2.1160061359405518, 0.3154296875, -0.16015625, -0.912841796875
202, 2065278702, -5.490375518798828, 1.6437883377075195, 8.06374740600586, -2.25746488571167, -1.6892086267471313, -1.9706155061721802, 0.3125, -0.155517578125, -0.911376953125
203, 2065295369, -5.469494342803955, 1.6459014415740967, 8.065520286560059, -2.195495367050171, -1.815402626991272, -1.8859144449234009, 0.31298828125, -0.155517578125, -0.914306640625
204, 2065312036, -5.484037399291992, 1.680350661277771, 8.057975769042969, -2.1136622428894043, -1.6899640560150146, -1.9020755290985107, 0.31201171875, -0.157470703125, -0.912841796875
205, 2065328703, -5.4599127769470215, 1.6462746858596802, 8.046363830566406, -2.1594579219818115, -1.750461459159851, -2.035710096359253, 0.3134765625, -0.156005859375, -0.910400390625
206, 2065345370, -5.465246200561523, 1.662036657333374, 8.036635398864746, -2.10583758354187, -1.7910447120666504, -2.0126843452453613, 0.31494140625, -0.155517578125, -0.910888671875
207, 2065362037, -5.454135417938232, 1.6724557876586914, 8.076024055480957, -2.135138511657715, -1.7705930471420288, -2.1790642738342285, 0.31201171875, -0.157470703125, -0.911376953125
208, 2065378704, -5.470585823059082, 1.6498414278030396, 8.046186447143555, -2.1542201042175293, -1.5952870845794678, -2.163581609725952, 0.31298828125, -0.154541015625, -0.911865234375
209, 2065395371, -5.4703474044799805, 1.6792317628860474, 8.076118469238281, -2.214294672012329, -1.6997482776641846, -2.1842381954193115, 0.31103515625, -0.157470703125, -0.912841796875
210, 2065412038, -5.4890313148498535, 1.6746724843978882, 8.056760787963867, -2.2342472076416016, -1.7004400491714478, -2.193138837814331, 0.315673828125, -0.1572265625, -0.912353515625
211, 2065428705, -5.4688215255737305, 1.6748417615890503, 8.067710876464844, -2.123971462249756, -1.7720530033111572, -1.9597300291061401, 0.3125, -0.158203125, -0.913330078125
212, 2065445372, -5.466358184814453, 1.6537177562713623, 8.100775718688965, -2.1476504802703857, -1.776151180267334, -1.9230271577835083, 0.31396484375, -0.158203125, -0.913330078125
213, 2065462039, -5.4754815101623535, 1.6536928415298462, 8.065342903137207, -2.170778751373291, -1.8893332481384277, -2.068481683731079, 0.3115234375, -0.16015625, -0.913330078125
214, 2065478706, -5.479542255401611, 1.684745192527771, 8.054727554321289, -2.206752061843872, -2.09187912940979, -1.916521668434143, 0.3134765625, -0.158203125, -0.912841796875
215, 2065495373, -5.470832824707031, 1.7017909288406372, 8.045631408691406, -2.2989449501037598, -2.215332269668579, -1.9744958877563477, 0.3125, -0.156982421875, -0.913330078125
216, 2065512040, -5.448657989501953, 1.6964991092681885, 8.045496940612793, -2.4021899700164795, -2.3387982845306396, -1.917175054550171, 0.31298828125, -0.1591796875, -0.912841796875
217, 2065528707, -5.445127010345459, 1.6860344409942627, 8.072782516479492, -2.5144121646881104, -2.177156448364258, -2.031407594680786, 0.31298828125, -0.157958984375, -0.912841796875
218, 2065545374, -5.467395782470703, 1.6552551984786987, 8.07279109954834, -2.6962103843688965, -2.1802167892456055, -2.2916321754455566, 0.31396484375, -0.156494140625, -0.912353515625
219, 2065562041, -5.45310640335083, 1.652099609375, 8.07655143737793, -2.486557960510254, -2.188387632369995, -2.158843517303467, 0.3115234375, -0.156982421875, -0.912841796875
220, 2065578708, -5.452027797698975, 1.6671704053878784, 8.077589988708496, -2.43483304977417, -2.0534467697143555, -2.024965524673462, 0.3125, -0.1591796875, -0.911865234375
221, 2065595375, -5.450417518615723, 1.6793919801712036, 8.054146766662598, -2.5566859245300293, -2.002068519592285, -2.030447006225586, 0.3125, -0.158203125, -0.91552734375
222, 2065612042, -5.477137088775635, 1.6995632648468018, 8.046839714050293, -2.5586321353912354, -2.029128074645996, -2.1242151260375977, 0.3125, -0.157958984375, -0.914306640625
223, 2065628709, -5.456777095794678, 1.6742281913757324, 8.058897972106934, -2.5214555263519287, -2.139915704727173, -2.057814121246338, 0.310546875, -0.158447265625, -0.913330078125
224, 2065645376, -5.436649799346924, 1.674797534942627, 8.0570650100708, -2.5077781677246094, -2.1921403408050537, -2.2068419456481934, 0.31201171875, -0.158203125, -0.912353515625
225, 2065662043, -5.446165084838867, 1.6615720987319946, 8.076847076416016, -2.519444465637207, -1.996189832687378, -2.0774078369140625, 0.308349609375, -0.157470703125, -0.9140625
226, 2065678710, -5.447303771972656, 1.6642794609069824, 8.102373123168945, -2.363450288772583, -1.9303137063980103, -2.0549323558807373, 0.31396484375, -0.156005859375, -0.911865234375
227, 2065695377, -5.445459365844727, 1.6611493825912476, 8.077681541442871, -2.2636759281158447, -1.8174002170562744, -1.9690018892288208, 0.31103515625, -0.156494140625, -0.9140625
228, 2065712044, -5.448246479034424, 1.6849910020828247, 8.086482048034668, -2.309048891067505, -1.8223819732666016, -2.0372982025146484, 0.31298828125, -0.156982421875, -0.912353515625
229, 2065728711, -5.4644317626953125, 1.6621103286743164, 8.053668975830078, -2.2780189514160156, -1.8247510194778442, -2.0484139919281006, 0.31103515625, -0.157470703125, -0.9140625
230, 2065745378, -5.45738410949707, 1.6834564208984375, 8.070599555969238, -2.290966272354126, -1.9635590314865112, -1.8710460662841797, 0.309814453125, -0.156982421875, -0.91357421875
231, 2065762045, -5.4556193351745605, 1.6695760488510132, 8.082386016845703, -2.2900187969207764, -1.8140963315963745, -2.0360560417175293, 0.31005859375, -0.156494140625, -0.913330078125
232, 2065778712, -5.415485858917236, 1.6876716613769531, 8.072627067565918, -2.3534867763519287, -1.837134838104248, -2.0046801567077637, 0.3115234375, -0.157958984375, -0.912841796875
233, 2065795379, -5.455323696136475, 1.6771007776260376, 8.079145431518555, -2.5118632316589355, -1.664556622505188, -2.255415916442871, 0.31201171875, -0.156494140625, -0.911865234375
234, 2065812046, -5.439981460571289, 1.6710690259933472, 8.089375495910645, -2.411038398742676, -1.6635959148406982, -2.2173938751220703, 0.310546875, -0.155517578125, -0.913330078125
235, 2065828713, -5.464256286621094, 1.6680394411087036, 8.075573921203613, -2.4118711948394775, -1.6760823726654053, -2.1512749195098877, 0.31005859375, -0.158447265625, -0.912353515625
236, 2065845380, -5.464210033416748, 1.6736211776733398, 8.075252532958984, -2.4372658729553223, -1.8775259256362915, -2.1617629528045654, 0.308837890625, -0.156005859375, -0.916015625
237, 2065862047, -5.444920539855957, 1.6774859428405762, 8.077993392944336, -2.474776029586792, -1.9836267232894897, -2.105376958847046, 0.31298828125, -0.157958984375, -0.913818359375
238, 2065878714, -5.423659324645996, 1.6772149801254272, 8.076404571533203, -2.4514174461364746, -2.090137481689453, -2.1057612895965576, 0.31201171875, -0.157470703125, -0.912353515625
239, 2065895381, -5.4083099365234375, 1.6916617155075073, 8.085355758666992, -2.5192015171051025, -1.9070196151733398, -2.1208600997924805, 0.3115234375, -0.157470703125, -0.914306640625
240, 2065912048, -5.434998035430908, 1.6601760387420654, 8.084678649902344, -2.4117815494537354, -1.800765037536621, -2.1442439556121826, 0.31005859375, -0.157958984375, -0.9140625
241, 2065928715, -5.435327053070068, 1.679580569267273, 8.074042320251465, -2.4352941513061523, -1.724708080291748, -2.049861192703247, 0.310546875, -0.1591796875, -0.914306640625
242, 2065945382, -5.434559345245361, 1.686689853668213, 8.09909439086914, -2.565534830093384, -1.7422784566879272, -2.139813184738159, 0.309326171875, -0.156494140625, -0.9140625
243, 2065962049, -5.423393726348877, 1.6788570880889893, 8.078405380249023, -2.638864278793335, -1.8168115615844727, -2.3107783794403076, 0.309326171875, -0.155029296875, -0.9140625
244, 2065978716, -5.441288471221924, 1.6820088624954224, 8.091538429260254, -2.517498016357422, -1.7961164712905884, -2.253943681716919, 0.3115234375, -0.154052734375, -0.919189453125
245, 2065995383, -5.430079460144043, 1.6469652652740479, 8.098979949951172, -2.564189910888672, -1.6574233770370483, -2.29018497467041, 0.31298828125, -0.157470703125, -0.913818359375
246, 2066012050, -5.453915596008301, 1.6510390043258667, 8.069352149963379, -2.44284987449646, -1.6864938735961914, -2.229764699935913, 0.31005859375, -0.155029296875, -0.91357421875
247, 2066028717, -5.451967716217041, 1.669195532798767, 8.07572078704834, -2.4109106063842773, -1.7620255947113037, -2.2646236419677734, 0.310546875, -0.155517578125, -0.9140625
248, 2066045384, -5.468297004699707, 1.6680923700332642, 8.083000183105469, -2.4594085216522217, -1.8588545322418213, -2.178603172302246, 0.307861328125, -0.157470703125, -0.9140625
249, 2066062051, -5.459569931030273, 1.6634769439697266, 8.082551002502441, -2.416327476501465, -1.9750207662582397, -2.120821475982666, 0.310546875, -0.156005859375, -0.913330078125
250, 2066078718, -5.426090717315674, 1.6715224981307983, 8.06474494934082, -2.3453421592712402, -1.9616254568099976, -2.1743390560150146, 0.310302734375, -0.156005859375, -0.9150390625
251, 2066095385, -5.42092752456665, 1.6710093021392822, 8.088149070739746, -2.3719282150268555, -1.8061308860778809, -2.1294145584106445, 0.31103515625, -0.156005859375, -0.91796875
252, 2066112052, -5.439268112182617, 1.6786378622055054, 8.06432819366455, -2.399193048477173, -1.9224892854690552, -2.1453070640563965, 0.310546875, -0.156494140625, -0.912841796875
253, 2066128719, -5.458145618438721, 1.6713882684707642, 8.079407691955566, -2.4517505168914795, -2.1276731491088867, -2.147484540939331, 0.308349609375, -0.156982421875, -0.9150390625
254, 2066145386, -5.442577838897705, 1.6850066184997559, 8.082114219665527, -2.4364469051361084, -2.1890664100646973, -2.1663992404937744, 0.309814453125, -0.156005859375, -0.91455078125
255, 2066162053, -5.43729305267334, 1.6820789575576782, 8.100175857543945, -2.6463942527770996, -2.1150712966918945, -2.2329025268554688, 0.309326171875, -0.156005859375, -0.91357421875
256, 2066178720, -5.437817096710205, 1.6711604595184326, 8.0814208984375, -2.7642762660980225, -2.241046905517578, -2.3898825645446777, 0.310302734375, -0.156005859375, -0.9150390625
257, 2066195387, -5.400899410247803, 1.6734731197357178, 8.115796089172363, -2.7208118438720703, -1.8533481359481812, -2.343357563018799, 0.310302734375, -0.156005859375, -0.91552734375
258, 2066212054, -5.404787540435791, 1.6300477981567383, 8.080928802490234, -2.602558135986328, -1.8047608137130737, -2.273998260498047, 0.309814453125, -0.154541015625, -0.91455078125
259, 2066228721, -5.457317352294922, 1.6456130743026733, 8.07308578491211, -2.4010369777679443, -1.6339750289916992, -2.1803321838378906, 0.308837890625, -0.156494140625, -0.9150390625
260, 2066245388, -5.446506500244141, 1.6453617811203003, 8.068552017211914, -2.3476216793060303, -1.7527412176132202, -1.9522255659103394, 0.309814453125, -0.156005859375, -0.91455078125
261, 2066262055, -5.450225353240967, 1.6969696283340454, 8.071739196777344, -2.3986291885375977, -1.9333105087280273, -2.0046803951263428, 0.308349609375, -0.156005859375, -0.9130859375
262, 2066278722, -5.435828685760498, 1.6711775064468384, 8.0996732711792, -2.46763014793396, -2.027181625366211, -2.1069138050079346, 0.307861328125, -0.155029296875, -0.91455078125
263, 2066295389, -5.428430557250977, 1.6670185327529907, 8.084859848022461, -2.605170249938965, -1.9581552743911743, -2.1297731399536133, 0.309326171875, -0.155029296875, -0.91552734375
264, 2066312056, -5.421638011932373, 1.6445800065994263, 8.099276542663574, -2.5169858932495117, -1.992296814918518, -2.108078956604004, 0.309326171875, -0.155517578125, -0.912841796875
265, 2066328723, -5.428165912628174, 1.6631277799606323, 8.108766555786133, -2.542534351348877, -2.0165774822235107, -2.126276731491089, 0.308837890625, -0.154541015625, -0.911865234375
266, 2066345390, -5.441342830657959, 1.6688929796218872, 8.113378524780273, -2.417403221130371, -2.060861587524414, -2.049771308898926, 0.308837890625, -0.156982421875, -0.9140625
267, 2066362057, -5.401827335357666, 1.673287272453308, 8.078581809997559, -2.4849956035614014, -2.16283917427063, -2.0678415298461914, 0.308349609375, -0.155029296875, -0.91552734375
268, 2066378724, -5.440525531768799, 1.6538814306259155, 8.087719917297363, -2.616107225418091, -2.0278220176696777, -2.1444363594055176, 0.309814453125, -0.156494140625, -0.9150390625
269, 2066395391, -5.436652660369873, 1.6570125818252563, 8.079657554626465, -2.7612414360046387, -1.9184298515319824, -2.2297394275665283, 0.308349609375, -0.154052734375, -0.9130859375
270, 2066412058, -5.437454700469971, 1.6233700513839722, 8.111231803894043, -2.4306840896606445, -2.141580820083618, -2.0688531398773193, 0.307373046875, -0.156982421875, -0.9140625
271, 2066428725, -5.405035018920898, 1.6777586936950684, 8.088041305541992, -2.6418352127075195, -2.276060104370117, -2.05098819732666, 0.307861328125, -0.156982421875, -0.91357421875
272, 2066445392, -5.389288425445557, 1.6085600852966309, 8.125311851501465, -2.631141185760498, -2.379457950592041, -2.106990337371826, 0.305419921875, -0.155517578125, -0.91357421875
273, 2066462059, -5.399352073669434, 1.675568699836731, 8.115245819091797, -2.5609118938446045, -2.1836111545562744, -1.9998911619186401, 0.309326171875, -0.156005859375, -0.913330078125
274, 2066478726, -5.429662227630615, 1.6709765195846558, 8.0982084274292, -2.2928872108459473, -1.982282280921936, -1.931722640991211, 0.305908203125, -0.156982421875, -0.9130859375
275, 2066495393, -5.392692565917969, 1.6730713844299316, 8.077156066894531, -2.4575002193450928, -1.9155353307724, -2.0286412239074707, 0.305908203125, -0.155517578125, -0.91650390625
276, 2066512060, -5.4184441566467285, 1.6626970767974854, 8.100826263427734, -2.4300432205200195, -1.9686176776885986, -2.07576847076416, 0.307373046875, -0.156494140625, -0.91357421875
277, 2066528727, -5.415597438812256, 1.6604094505310059, 8.098337173461914, -2.428532123565674, -2.011262893676758, -2.0119030475616455, 0.307373046875, -0.155029296875, -0.91455078125
278, 2066545394, -5.388761520385742, 1.7031798362731934, 8.089577674865723, -2.7190957069396973, -1.9179303646087646, -2.2308919429779053, 0.306884765625, -0.154541015625, -0.9140625
279, 2066562061, -5.442569732666016, 1.641133427619934, 8.135167121887207, -2.596731185913086, -2.2537899017333984, -2.163069725036621, 0.305419921875, -0.155517578125, -0.9150390625
280, 2066578728, -5.39581823348999, 1.667721152305603, 8.117829322814941, -2.597384452819824, -2.0972707271575928, -2.1601881980895996, 0.306884765625, -0.156494140625, -0.91455078125
281, 2066595395, -5.407391548156738, 1.6408202648162842, 8.104264259338379, -2.584834098815918, -1.9646480083465576, -2.2033071517944336, 0.306396484375, -0.156494140625, -0.9150390625
282, 2066612062, -5.404801845550537, 1.6399916410446167, 8.128578186035156, -2.3773837089538574, -1.7393074035644531, -2.086449384689331, 0.307861328125, -0.155029296875, -0.91552734375
283, 2066628729, -5.417431354522705, 1.6559690237045288, 8.09795093536377, -2.166846990585327, -1.7138736248016357, -1.9770313501358032, 0.306884765625, -0.156005859375, -0.9169921875
284, 2066645396, -5.401203632354736, 1.6765105724334717, 8.08731746673584, -2.2677738666534424, -1.7324813604354858, -1.9665557146072388, 0.30419921875, -0.157470703125, -0.91650390625
285, 2066662063, -5.417771816253662, 1.6712336540222168, 8.095989227294922, -2.310624122619629, -1.9025242328643799, -2.114072322845459, 0.306884765625, -0.157958984375, -0.91455078125
286, 2066678730, -5.4023942947387695, 1.651640772819519, 8.120171546936035, -2.459113836288452, -2.0175893306732178, -2.0958361625671387, 0.309326171875, -0.155517578125, -0.913330078125
287, 2066695397, -5.402441024780273, 1.6619329452514648, 8.112639427185059, -2.424907684326172, -2.0156936645507812, -2.069121837615967, 0.306884765625, -0.155517578125, -0.91552734375
288, 2066712064, -5.404472351074219, 1.6479594707489014, 8.101900100708008, -2.4200031757354736, -2.0320730209350586, -2.0513339042663574, 0.307373046875, -0.155029296875, -0.9150390625
289, 2066728731, -5.418918609619141, 1.6615265607833862, 8.112098693847656, -2.381161689758301, -2.054804563522339, -2.0749874114990234, 0.307861328125, -0.1533203125, -0.91552734375
290, 2066745398, -5.401360511779785, 1.6956169605255127, 8.103317260742188, -2.3461873531341553, -2.2105298042297363, -2.003028631210327, 0.305419921875, -0.156982421875, -0.91748046875
291, 2066762065, -5.417530536651611, 1.6693055629730225, 8.070002555847168, -2.5053834915161133, -2.1859288215637207, -2.056636095046997, 0.305419921875, -0.156494140625, -0.91455078125
292, 2066778732, -5.402337074279785, 1.6662124395370483, 8.128833770751953, -2.550461769104004, -2.212873697280884, -2.129145622253418, 0.30322265625, -0.155517578125, -0.916015625
293, 2066795399, -5.398134231567383, 1.6440671682357788, 8.087409019470215, -2.540895462036133, -2.072836399078369, -2.1947784423828125, 0.304443359375, -0.155517578125, -0.91455078125
294, 2066812066, -5.394279479980469, 1.6795263290405273, 8.118416786193848, -2.6361873149871826, -1.9549150466918945, -2.162980079650879, 0.30419921875, -0.154541015625, -0.9169921875
295, 2066828733, -5.388062477111816, 1.6600946187973022, 8.12889289855957, -2.516268730163574, -2.1422080993652344, -2.1175172328948975, 0.3046875, -0.156494140625, -0.91650390625
296, 2066845400, -5.379969120025635, 1.6727995872497559, 8.103181838989258, -2.439328193664551, -2.00783109664917, -2.105018138885498, 0.3046875, -0.156005859375, -0.91552734375
297, 2066862067, -5.367980480194092, 1.6632438898086548, 8.096250534057617, -2.4537863731384277, -1.9280343055725098, -2.1930108070373535, 0.30322265625, -0.155029296875, -0.91650390625
298, 2066878734, -5.385098934173584, 1.660308837890625, 8.109976768493652, -2.4281609058380127, -1.8212552070617676, -2.122934341430664, 0.30419921875, -0.156005859375, -0.92333984375
299, 2066895401, -5.378949165344238, 1.656419038772583, 8.111062049865723, -2.382941722869873, -1.6912323236465454, -2.078099489212036, 0.30322265625, -0.15478515625, -0.916015625
300, 2066912068, -5.387099742889404, 1.666388750076294, 8.105088233947754, -2.3605048656463623, -1.677017092704773, -2.101803779602051, 0.307373046875, -0.156494140625, -0.9150390625
301, 2066928735, -5.376530170440674, 1.667136549949646, 8.094219207763672, -2.381315231323242, -1.849185824394226, -2.1819334030151367, 0.302734375, -0.154296875, -0.91650390625
302, 2066945402, -5.405656814575195, 1.6517724990844727, 8.098556518554688, -2.501246929168701, -1.743200421333313, -2.1750943660736084, 0.30322265625, -0.155517578125, -0.91650390625
303, 2066962069, -5.37898588180542, 1.6701630353927612, 8.133066177368164, -2.4206180572509766, -1.619823932647705, -2.233389139175415, 0.305908203125, -0.156005859375, -0.91650390625
304, 2066978736, -5.396778583526611, 1.6500060558319092, 8.144798278808594, -2.381584405899048, -1.4201219081878662, -2.210158586502075, 0.304443359375, -0.156005859375, -0.9140625
305, 2066995403, -5.394082069396973, 1.6524429321289062, 8.112150192260742, -2.309471368789673, -1.3557183742523193, -2.1433346271514893, 0.30419921875, -0.154541015625, -0.91552734375
306, 2067012070, -5.394134998321533, 1.6487834453582764, 8.121809005737305, -2.3070638179779053, -1.489314317703247, -2.1347031593322754, 0.30322265625, -0.156005859375, -0.9150390625
307, 2067028737, -5.41447114944458, 1.6512824296951294, 8.105720520019531, -2.3314857482910156, -1.7242854833602905, -2.132078170776367, 0.3037109375, -0.15380859375, -0.9140625
308, 2067045404, -5.4034600257873535, 1.6802396774291992, 8.100940704345703, -2.3343026638031006, -1.8276196718215942, -2.035377264022827, 0.306396484375, -0.154541015625, -0.916015625
309, 2067062071, -5.404613494873047, 1.6464180946350098, 8.104740142822266, -2.3460466861724854, -1.9164320230484009, -2.138263702392578, 0.3037109375, -0.158447265625, -0.91357421875
310, 2067078738, -5.388606548309326, 1.661321759223938, 8.101268768310547, -2.3227648735046387, -2.012505292892456, -2.0844385623931885, 0.305419921875, -0.157470703125, -0.916015625
311, 2067095405, -5.391256809234619, 1.645340919494629, 8.116324424743652, -2.351437568664551, -1.9096827507019043, -1.8199998140335083, 0.305908203125, -0.157958984375, -0.9169921875
312, 2067112072, -5.40305757522583, 1.7005929946899414, 8.123722076416016, -2.4903995990753174, -2.0211238861083984, -2.119527816772461, 0.305419921875, -0.154052734375, -0.916015625
313, 2067128739, -5.40344762802124, 1.687672734260559, 8.120014190673828, -3.0807340145111084, -2.1543610095977783, -2.356419801712036, 0.3046875, -0.156005859375, -0.91552734375
314, 2067145406, -5.3956379890441895, 1.6456291675567627, 8.113382339477539, -2.9225375652313232, -2.1911025047302246, -2.3239686489105225, 0.3046875, -0.155029296875, -0.91552734375
315, 2067162073, -5.426774978637695, 1.6603187322616577, 8.154550552368164, -2.7462828159332275, -2.2049715518951416, -2.207174301147461, 0.302734375, -0.156005859375, -0.91650390625
316, 2067178740, -5.2927374839782715, 1.6705416440963745, 8.072153091430664, -2.760152578353882, -2.146843671798706, -2.340744733810425, 0.306396484375, -0.156494140625, -0.91552734375
317, 2067195407, -5.382195949554443, 1.6520642042160034, 8.130115509033203, -2.704317092895508, -1.9087226390838623, -2.370455503463745, 0.305419921875, -0.156005859375, -0.917724609375
318, 2067212074, -5.3945536613464355, 1.6387711763381958, 8.116144180297852, -2.4718174934387207, -1.897324800491333, -2.157984972000122, 0.3037109375, -0.156494140625, -0.91455078125
319, 2067228741, -5.377425670623779, 1.6586133241653442, 8.130402565002441, -2.5993566513061523, -2.06364107131958, -2.176234483718872, 0.30224609375, -0.155517578125, -0.918212890625
320, 2067245408, -5.402609348297119, 1.6504977941513062, 8.117450714111328, -2.6231634616851807, -2.0445854663848877, -2.1652209758758545, 0.302734375, -0.156494140625, -0.91455078125
321, 2067262075, -5.383022785186768, 1.6466805934906006, 8.124650955200195, -2.557748556137085, -2.0662407875061035, -2.0497078895568848, 0.3017578125, -0.154296875, -0.916259765625
322, 2067278742, -5.369843006134033, 1.6561373472213745, 8.116841316223145, -2.5371432304382324, -2.1258416175842285, -2.1986584663391113, 0.302734375, -0.155029296875, -0.9150390625
323, 2067295409, -5.369227409362793, 1.666037917137146, 8.109527587890625, -2.4847779273986816, -1.9112327098846436, -2.1744158267974854, 0.302734375, -0.156005859375, -0.917724609375
324, 2067312076, -5.370519161224365, 1.6763417720794678, 8.10761833190918, -2.625199556350708, -1.9939360618591309, -2.216369867324829, 0.299072265625, -0.15478515625, -0.91552734375
325, 2067328743, -5.372719764709473, 1.6491624116897583, 8.126585960388184, -2.674286365509033, -1.8432437181472778, -2.265763759613037, 0.30224609375, -0.155517578125, -0.91650390625
326, 2067345410, -5.369452476501465, 1.6607342958450317, 8.12861442565918, -2.648071527481079, -1.8344712257385254, -2.2334530353546143, 0.30126953125, -0.155517578125, -0.916748046875
327, 2067362077, -5.373481273651123, 1.6637561321258545, 8.115289688110352, -2.6497747898101807, -1.6368950605392456, -2.3929951190948486, 0.3046875, -0.15283203125, -0.916015625
328, 2067378744, -5.390876770019531, 1.6448707580566406, 8.134819030761719, -2.594067335128784, -1.6069666147232056, -2.3729403018951416, 0.302734375, -0.1533203125, -0.916748046875
329, 2067395411, -5.3878607749938965, 1.6438696384429932, 8.1234130859375, -2.586780548095703, -1.5282331705093384, -2.3938403129577637, 0.3037109375, -0.15283203125, -0.919189453125
330, 2067412078, -5.40168571472168, 1.630558729171753, 8.110334396362305, -2.546786069869995, -1.5183594226837158, -2.274203062057495, 0.302734375, -0.154296875, -0.916015625
331, 2067428745, -5.39513635635376, 1.6274093389511108, 8.126014709472656, -2.382877826690674, -1.705665111541748, -2.1408634185791016, 0.30322265625, -0.15283203125, -0.918212890625
332, 2067445412, -5.367464065551758, 1.6552966833114624, 8.126143455505371, -2.4249720573425293, -1.8028523921966553, -2.1408121585845947, 0.3017578125, -0.155029296875, -0.91650390625
333, 2067462079, -5.369477272033691, 1.6707727909088135, 8.119009017944336, -2.4513144493103027, -1.8228174448013306, -2.1299009323120117, 0.30224609375, -0.15478515625, -0.916748046875
334, 2067478746, -5.371051788330078, 1.6497772932052612, 8.118590354919434, -2.4686672687530518, -1.8725061416625977, -2.0825302600860596, 0.302734375, -0.155029296875, -0.91455078125
335, 2067495413, -5.3715643882751465, 1.6419968605041504, 8.121191024780273, -2.4203743934631348, -1.8597763776779175, -2.12892746925354, 0.3046875, -0.154541015625, -0.916015625
336, 2067512080, -5.372948169708252, 1.6444765329360962, 8.151387214660645, -2.5228769779205322, -1.920568585395813, -2.1305031776428223, 0.3046875, -0.154541015625, -0.9169921875
337, 2067528747, -5.380338191986084, 1.6584093570709229, 8.13243579864502, -2.527064323425293, -1.738193154335022, -2.2079427242279053, 0.30322265625, -0.15380859375, -0.916748046875
338, 2067545414, -5.363480567932129, 1.6461697816848755, 8.145054817199707, -2.4985570907592773, -1.8502229452133179, -2.1205391883850098, 0.30224609375, -0.15380859375, -0.91552734375
339, 2067562081, -5.392631530761719, 1.640972375869751, 8.13239574432373, -2.43770170211792, -2.0072033405303955, -2.174800157546997, 0.302734375, -0.15478515625, -0.91552734375
340, 2067578748, -5.3776750564575195, 1.6279243230819702, 8.072166442871094, -2.4560275077819824, -1.9783380031585693, -2.083862066268921, 0.30224609375, -0.15478515625, -0.916015625
341, 2067595415, -5.334641456604004, 1.635635495185852, 8.14695930480957, -2.5268213748931885, -2.0363762378692627, -2.078944683074951, 0.30224609375, -0.15380859375, -0.916015625
342, 2067612082, -5.332808017730713, 1.724858045578003, 8.111058235168457, -2.6491858959198, -1.8067073822021484, -2.4097583293914795, 0.30224609375, -0.155517578125, -0.916748046875
343, 2067628749, -5.350704669952393, 1.6646742820739746, 8.147037506103516, -2.573410749435425, -1.7026941776275635, -2.3964016437530518, 0.302734375, -0.1533203125, -0.917724609375
344, 2067645416, -5.348781108856201, 1.6326290369033813, 8.14520263671875, -2.5620639324188232, -1.3277113437652588, -2.4405317306518555, 0.302734375, -0.15185546875, -0.916748046875
345, 2067662083, -5.393741607666016, 1.621829867362976, 8.13585376739502, -2.5290749073028564, -1.5720819234848022, -2.465183973312378, 0.302734375, -0.15380859375, -0.917724609375
346, 2067678750, -5.373788833618164, 1.6490044593811035, 8.150249481201172, -2.4684369564056396, -1.6760696172714233, -2.3689444065093994, 0.30224609375, -0.1533203125, -0.918212890625
347, 2067695417, -5.368537902832031, 1.6580126285552979, 8.128352165222168, -2.5869343280792236, -1.7693768739700317, -2.432694673538208, 0.3046875, -0.15283203125, -0.917236328125
348, 2067712084, -5.361196517944336, 1.6380497217178345, 8.137505531311035, -2.5874085426330566, -1.7083929777145386, -2.3516433238983154, 0.3017578125, -0.154296875, -0.916259765625
349, 2067728751, -5.394515037536621, 1.6198056936264038, 8.123761177062988, -2.4302098751068115, -1.6922439336776733, -2.3648593425750732, 0.30224609375, -0.15185546875, -0.916015625
350, 2067745418, -5.3784332275390625, 1.634202241897583, 8.135098457336426, -2.373324394226074, -1.873569130897522, -2.0641918182373047, 0.3017578125, -0.15380859375, -0.916259765625
351, 2067762085, -5.381372928619385, 1.6430662870407104, 8.153255462646484, -2.370659828186035, -1.8603655099868774, -2.1866328716278076, 0.302734375, -0.154296875, -0.916748046875
352, 2067778752, -5.363609313964844, 1.6490833759307861, 8.157090187072754, -2.3494529724121094, -1.776996374130249, -2.1788852214813232, 0.3017578125, -0.156494140625, -0.917236328125
353, 2067795419, -5.375953197479248, 1.625972867012024, 8.133313179016113, -2.238985538482666, -1.748054027557373, -2.1579084396362305, 0.30224609375, -0.15478515625, -0.91650390625
354, 2067812086, -5.3867597579956055, 1.6448982954025269, 8.132678031921387, -2.1850452423095703, -1.8472903966903687, -2.1204755306243896, 0.302734375, -0.1533203125, -0.916748046875
355, 2067828753, -5.387256145477295, 1.628943681716919, 8.141678810119629, -2.267902135848999, -1.997329592704773, -2.0271685123443604, 0.30078125, -0.15283203125, -0.916748046875
356, 2067845420, -5.3722243309021, 1.641689658164978, 8.12717342376709, -2.2203524112701416, -2.196622133255005, -2.0077285766601562, 0.3017578125, -0.156005859375, -0.917724609375
357, 2067862087, -5.351781368255615, 1.6332054138183594, 8.140498161315918, -2.3166303634643555, -2.2368340492248535, -2.0439703464508057, 0.302734375, -0.15380859375, -0.916748046875
358, 2067878754, -5.3907976150512695, 1.6553354263305664, 8.15074634552002, -2.4119479656219482, -2.2006304264068604, -2.0014660358428955, 0.30078125, -0.15283203125, -0.917236328125
359, 2067895421, -5.406135559082031, 1.6307523250579834, 8.135725975036621, -2.8700437545776367, -2.474161148071289, -2.1815104484558105, 0.30029296875, -0.15380859375, -0.917724609375
360, 2067912088, -5.367995262145996, 1.6283692121505737, 8.097187995910645, -2.513784408569336, -2.3615939617156982, -1.8378396034240723, 0.30126953125, -0.15380859375, -0.919189453125
361, 2067928755, -5.314090251922607, 1.6577333211898804, 8.162093162536621, -3.2387776374816895, -2.3109958171844482, -2.2352335453033447, 0.30029296875, -0.1552734375, -0.917236328125
362, 2067945422, -5.291913032531738, 1.684687852859497, 8.149890899658203, -2.741314649581909, -2.1545016765594482, -2.2337348461151123, 0.302734375, -0.1533203125, -0.917724609375
363, 2067962089, -5.302300453186035, 1.6801942586898804, 8.149048805236816, -3.0897622108459473, -1.580047369003296, -2.4695894718170166, 0.3017578125, -0.15283203125, -0.916259765625
364, 2067978756, -5.351123332977295, 1.6151666641235352, 8.137649536132812, -2.5859477519989014, -1.292826533317566, -2.4297101497650146, 0.30029296875, -0.154296875, -0.915771484375
365, 2067995423, -5.375333309173584, 1.6154288053512573, 8.147770881652832, -2.311558723449707, -1.2968733310699463, -2.20444655418396, 0.30029296875, -0.1533203125, -0.915771484375
366, 2068012090, -5.399271011352539, 1.6273291110992432, 8.14116382598877, -2.2447869777679443, -1.3823559284210205, -2.0828378200531006, 0.299072265625, -0.15380859375, -0.916748046875
367, 2068028757, -5.349242210388184, 1.6310219764709473, 8.112041473388672, -2.2370386123657227, -1.4013090133666992, -2.0567126274108887, 0.297607421875, -0.1533203125, -0.916259765625
368, 2068045424, -5.364161491394043, 1.6355596780776978, 8.129746437072754, -2.287457227706909, -1.4479882717132568, -2.0598628520965576, 0.3017578125, -0.15283203125, -0.9150390625
369, 2068062091, -5.349580764770508, 1.6334059238433838, 8.125372886657715, -2.183072805404663, -1.6004608869552612, -1.9801948070526123, 0.30029296875, -0.15478515625, -0.91552734375
370, 2068078758, -5.323323726654053, 1.652442455291748, 8.119555473327637, -2.1804988384246826, -1.4874191284179688, -1.9836139678955078, 0.30078125, -0.154296875, -0.91552734375
371, 2068095425, -5.357217788696289, 1.657334566116333, 8.12279987335205, -2.279940128326416, -1.3678460121154785, -2.1418747901916504, 0.30029296875, -0.15380859375, -0.9150390625
372, 2068112092, -5.346322536468506, 1.6509642601013184, 8.144594192504883, -2.329859495162964, -1.4735627174377441, -2.2495763301849365, 0.30078125, -0.154296875, -0.917724609375
373, 2068128759, -5.369422435760498, 1.6381409168243408, 8.113856315612793, -2.383556365966797, -1.5280921459197998, -2.274625539779663, 0.298583984375, -0.15478515625, -0.917724609375
374, 2068145426, -5.337391376495361, 1.658839225769043, 8.131098747253418, -2.547503709793091, -1.606544017791748, -2.3784468173980713, 0.302734375, -0.154296875, -0.919189453125
375, 2068162093, -5.30653715133667, 1.6486822366714478, 8.153385162353516, -2.4380602836608887, -1.3313226699829102, -2.4509177207946777, 0.2998046875, -0.1533203125, -0.91552734375
376, 2068178760, -5.373815059661865, 1.639819860458374, 8.14255428314209, -2.4668614864349365, -1.0239700078964233, -2.542418956756592, 0.29931640625, -0.1533203125, -0.91552734375
377, 2068195427, -5.35719108581543, 1.6059943437576294, 8.14520263671875, -2.290095329284668, -1.0883091688156128, -2.153195381164551, 0.30224609375, -0.15185546875, -0.918212890625
378, 2068212094, -5.361968040466309, 1.6419647932052612, 8.147847175598145, -2.1446406841278076, -1.0492626428604126, -2.1482903957366943, 0.30078125, -0.154296875, -0.917236328125
379, 2068228761, -5.336192607879639, 1.6503359079360962, 8.144253730773926, -2.12760853767395, -0.8425936698913574, -2.2493584156036377, 0.30126953125, -0.15380859375, -0.917724609375
380, 2068245428, -5.3734283447265625, 1.657953143119812, 8.084721565246582, -2.1778860092163086, -0.866439163684845, -2.4706521034240723, 0.302734375, -0.15283203125, -0.917236328125
381, 2068262095, -5.3853960037231445, 1.6274727582931519, 8.115296363830566, -2.2262301445007324, -1.0261600017547607, -2.3909451961517334, 0.3017578125, -0.15234375, -0.9130859375
382, 2068278762, -5.402578830718994, 1.652471661567688, 8.110868453979492, -2.2720894813537598, -1.2335331439971924, -2.308881998062134, 0.2998046875, -0.1533203125, -0.915771484375
383, 2068295429, -5.343797206878662, 1.6694118976593018, 8.129929542541504, -2.4244470596313477, -1.3735707998275757, -2.4265217781066895, 0.30126953125, -0.15478515625, -0.917236328125
384, 2068312096, -5.334664344787598, 1.6490890979766846, 8.136929512023926, -2.4960858821868896, -1.1491522789001465, -2.5518832206726074, 0.302734375, -0.154296875, -0.917236328125
385, 2068328763, -5.409116744995117, 1.622239351272583, 8.113469123840332, -2.372952461242676, -1.0700088739395142, -2.3927125930786133, 0.30078125, -0.1533203125, -0.916748046875
386, 2068345430, -5.407981872558594, 1.6343331336975098, 8.118133544921875, -2.224616527557373, -1.1830121278762817, -2.257554531097412, 0.30322265625, -0.15478515625, -0.917724609375
387, 2068362097, -5.362751007080078, 1.6469603776931763, 8.139202117919922, -2.2402148246765137, -1.3277239799499512, -2.234196186065674, 0.302734375, -0.15283203125, -0.91552734375
388, 2068378764, -5.3706560134887695, 1.6435573101043701, 8.117505073547363, -2.270156145095825, -1.3928955793380737, -2.3109443187713623, 0.30224609375, -0.15380859375, -0.91552734375
389, 2068395431, -5.3602800369262695, 1.6325112581253052, 8.133687019348145, -2.2553646564483643, -1.2414731979370117, -2.4190170764923096, 0.30419921875, -0.15234375, -0.918212890625
390, 2068412098, -5.3770060539245605, 1.6597436666488647, 8.108258247375488, -2.1726226806640625, -1.1612030267715454, -2.4069790840148926, 0.304931640625, -0.154052734375, -0.91455078125
391, 2068428765, -5.396413803100586, 1.6232742071151733, 8.137917518615723, -2.184929847717285, -1.0905375480651855, -2.20886492729187, 0.30126953125, -0.15234375, -0.9150390625
392, 2068445432, -5.431824684143066, 1.642544150352478, 8.103337287902832, -2.1351771354675293, -1.285821557044983, -2.1839308738708496, 0.30322265625, -0.155517578125, -0.9169921875
393, 2068462099, -5.376089096069336, 1.660961627960205, 8.105511665344238, -2.274984359741211, -1.5223420858383179, -2.174403190612793, 0.3037109375, -0.15380859375, -0.91650390625
394, 2068478766, -5.366570472717285, 1.6583646535873413, 8.128851890563965, -2.2604362964630127, -1.4154218435287476, -2.410142421722412, 0.30419921875, -0.150390625, -0.91650390625
395, 2068495433, -5.38718318939209, 1.6390776634216309, 8.12443733215332, -2.3022615909576416, -1.3423359394073486, -2.3520398139953613, 0.30419921875, -0.154541015625, -0.91455078125
396, 2068512100, -5.369881629943848, 1.634910225868225, 8.119634628295898, -2.153028964996338, -1.2857190370559692, -2.1950466632843018, 0.3046875, -0.154541015625, -0.916015625
397, 2068528767, -5.3592939376831055, 1.641607403755188, 8.132932662963867, -2.1832520961761475, -1.2030540704727173, -2.2716798782348633, 0.302734375, -0.155029296875, -0.917724609375
398, 2068545434, -5.396673679351807, 1.6546688079833984, 8.129349708557129, -2.3219962120056152, -1.1574763059616089, -2.5174338817596436, 0.302734375, -0.154296875, -0.916015625
399, 2068562101, -5.360000133514404, 1.657783031463623, 8.14306640625, -2.2877261638641357, -1.016042947769165, -2.4950995445251465, 0.30419921875, -0.155029296875, -0.916015625
400, 2068578768, -5.417113780975342, 1.6163008213043213, 8.112476348876953, -2.139159679412842, -0.9949381947517395, -2.5303168296813965, 0.3046875, -0.1533203125, -0.9169921875
401, 2068595435, -5.367502689361572, 1.6225861310958862, 8.127460479736328, -2.1571907997131348, -1.0847105979919434, -2.3784337043762207, 0.3037109375, -0.15380859375, -0.91650390625
402, 2068612102, -5.421066761016846, 1.652138352394104, 8.09912109375, -2.0647294521331787, -0.971873939037323, -2.288802146911621, 0.30419921875, -0.15234375, -0.91455078125
403, 2068628769, -5.433812141418457, 1.6151243448257446, 8.1030855178833, -1.886733889579773, -1.035956859588623, -2.116825580596924, 0.305908203125, -0.154541015625, -0.91455078125
404, 2068645436, -5.42943000793457, 1.6561564207077026, 8.093362808227539, -1.9665175676345825, -1.4171251058578491, -2.0702104568481445, 0.3046875, -0.155029296875, -0.917236328125
405, 2068662103, -5.3796563148498535, 1.6675320863723755, 8.110175132751465, -2.0890231132507324, -1.659510850906372, -2.155654191970825, 0.3046875, -0.15380859375, -0.916015625
406, 2068678770, -5.402844429016113, 1.6511335372924805, 8.101431846618652, -2.2125275135040283, -1.658678412437439, -2.0878961086273193, 0.3037109375, -0.1533203125, -0.91552734375
407, 2068695437, -5.414481163024902, 1.6489319801330566, 8.115910530090332, -2.241379976272583, -1.7581580877304077, -2.1166460514068604, 0.302734375, -0.156005859375, -0.9130859375
408, 2068712104, -5.371991157531738, 1.6773550510406494, 8.163500785827637, -2.3676764965057373, -1.7193678617477417, -2.2590019702911377, 0.305419921875, -0.155029296875, -0.9169921875
409, 2068728771, -5.408946514129639, 1.6512728929519653, 8.143582344055176, -2.4142017364501953, -1.5049893856048584, -2.3940317630767822, 0.308349609375, -0.155029296875, -0.91552734375
410, 2068745438, -5.424134254455566, 1.637587070465088, 8.118396759033203, -2.431797981262207, -1.47118079662323, -2.2835004329681396, 0.30517578125, -0.154541015625, -0.918212890625
411, 2068762105, -5.38603401184082, 1.6451075077056885, 8.102287292480469, -2.362297773361206, -1.6276743412017822, -2.2563509941101074, 0.305908203125, -0.15283203125, -0.9169921875
412, 2068778772, -5.407883644104004, 1.6323062181472778, 8.112448692321777, -2.3021209239959717, -1.417893648147583, -2.292938709259033, 0.306884765625, -0.155029296875, -0.91650390625
413, 2068795439, -5.415277481079102, 1.6373391151428223, 8.103217124938965, -2.128786563873291, -1.404382586479187, -2.1397616863250732, 0.304931640625, -0.154541015625, -0.9130859375
414, 2068812106, -5.425561904907227, 1.651738166809082, 8.122029304504395, -2.171483039855957, -1.4964858293533325, -2.050706148147583, 0.309326171875, -0.153076171875, -0.9150390625
415, 2068828773, -5.404792308807373, 1.6433868408203125, 8.086816787719727, -2.176323652267456, -1.6086055040359497, -1.975353717803955, 0.306884765625, -0.154052734375, -0.9169921875
416, 2068845440, -5.384462833404541, 1.6524776220321655, 8.11679458618164, -2.1004462242126465, -1.6582814455032349, -1.9398802518844604, 0.30419921875, -0.1533203125, -0.91455078125
417, 2068862107, -5.388720989227295, 1.644289255142212, 8.114956855773926, -2.1070542335510254, -1.5533332824707031, -1.9270867109298706, 0.305419921875, -0.155517578125, -0.9140625
418, 2068878774, -5.392441272735596, 1.6795239448547363, 8.117274284362793, -2.2562224864959717, -1.582749366760254, -2.0517308712005615, 0.306884765625, -0.154541015625, -0.916015625
419, 2068895441, -5.397541522979736, 1.681876540184021, 8.106724739074707, -2.3504390716552734, -1.6825110912322998, -2.1303491592407227, 0.307861328125, -0.155029296875, -0.91552734375
420, 2068912108, -5.405965328216553, 1.6412181854248047, 8.102738380432129, -2.428813934326172, -1.872531771659851, -2.2894680500030518, 0.308349609375, -0.153564453125, -0.91552734375
421, 2068928775, -5.382545471191406, 1.644587755203247, 8.101624488830566, -2.4240756034851074, -1.8576761484146118, -2.110499382019043, 0.305419921875, -0.154052734375, -0.91748046875
422, 2068945442, -5.365243434906006, 1.6582552194595337, 8.127799987792969, -2.467297315597534, -1.8500696420669556, -2.2890329360961914, 0.30419921875, -0.15380859375, -0.91552734375
423, 2068962109, -5.387907981872559, 1.673472285270691, 8.102056503295898, -2.279965877532959, -1.576346516609192, -2.313185453414917, 0.3046875, -0.15283203125, -0.91650390625
424, 2068978776, -5.4039411544799805, 1.6135462522506714, 8.123896598815918, -2.0819921493530273, -1.440048336982727, -2.060093402862549, 0.304931640625, -0.15380859375, -0.91455078125
425, 2068995443, -5.397590637207031, 1.6295281648635864, 8.114105224609375, -1.9399701356887817, -1.3907569646835327, -1.8972737789154053, 0.307373046875, -0.15283203125, -0.916015625
426, 2069012110, -5.404071807861328, 1.6493092775344849, 8.120698928833008, -1.9161118268966675, -1.5363906621932983, -1.939176082611084, 0.30517578125, -0.154541015625, -0.917236328125
427, 2069028777, -5.401534557342529, 1.648585557937622, 8.107942581176758, -1.9585133790969849, -1.6215400695800781, -1.9385483264923096, 0.30419921875, -0.155029296875, -0.9169921875
428, 2069045444, -5.39096736907959, 1.6535305976867676, 8.098040580749512, -1.9290205240249634, -1.6860584020614624, -2.052255868911743, 0.305419921875, -0.154541015625, -0.91650390625
429, 2069062111, -5.377279281616211, 1.6414868831634521, 8.136326789855957, -1.849941372871399, -1.5929051637649536, -1.8065918684005737, 0.305419921875, -0.156494140625, -0.9150390625
430, 2069078778, -5.381194114685059, 1.688722014427185, 8.098771095275879, -1.7429953813552856, -1.5650639533996582, -1.7882529497146606, 0.30322265625, -0.155029296875, -0.91650390625
431, 2069095445, -5.395252704620361, 1.6517562866210938, 8.116781234741211, -1.7501157522201538, -1.2724003791809082, -1.9484220743179321, 0.3046875, -0.156005859375, -0.9169921875
432, 2069112112, -5.397543907165527, 1.6639043092727661, 8.115386962890625, -1.7456719875335693, -1.2439191341400146, -1.9400851726531982, 0.305419921875, -0.157958984375, -0.916015625
433, 2069128779, -5.390361309051514, 1.6808751821517944, 8.1199951171875, -1.695752739906311, -1.2317148447036743, -1.9022809267044067, 0.305908203125, -0.156982421875, -0.91552734375
434, 2069145446, -5.41567850112915, 1.662657380104065, 8.102949142456055, -1.6611371040344238, -1.2880498170852661, -1.8151590824127197, 0.305419921875, -0.156982421875, -0.91552734375
435, 2069162113, -5.378052234649658, 1.6552724838256836, 8.103360176086426, -1.5784211158752441, -1.3014708757400513, -1.7572487592697144, 0.305908203125, -0.158447265625, -0.916015625
436, 2069178780, -5.39703893661499, 1.6593941450119019, 8.113394737243652, -1.5386316776275635, -1.211480736732483, -1.797063946723938, 0.305419921875, -0.154541015625, -0.9169921875
437, 2069195447, -5.393054485321045, 1.6823384761810303, 8.109038352966309, -1.3859670162200928, -1.2913408279418945, -1.7029368877410889, 0.304931640625, -0.156982421875, -0.9150390625
438, 2069212114, -5.4169135093688965, 1.685921549797058, 8.1241455078125, -1.5146070718765259, -1.1980596780776978, -1.717818260192871, 0.304443359375, -0.155029296875, -0.91455078125
439, 2069228781, -5.412193298339844, 1.6748279333114624, 8.115416526794434, -1.339365005493164, -1.285514235496521, -1.5274773836135864, 0.307861328125, -0.157958984375, -0.91552734375
440, 2069245448, -5.419875621795654, 1.7045412063598633, 8.1102933883667, -1.5757315158843994, -1.2293967008590698, -1.6377016305923462, 0.305419921875, -0.156005859375, -0.912353515625
441, 2069262115, -5.3783674240112305, 1.6888453960418701, 8.06218147277832, -1.598206877708435, -1.525466799736023, -1.7333011627197266, 0.305419921875, -0.157470703125, -0.91455078125
442, 2069278782, -5.3735198974609375, 1.7036796808242798, 8.110358238220215, -1.8545259237289429, -1.3744031190872192, -1.900193452835083, 0.306884765625, -0.156494140625, -0.9150390625
443, 2069295449, -5.401432037353516, 1.679406762123108, 8.095091819763184, -1.9477179050445557, -1.4209285974502563, -1.997905969619751, 0.3037109375, -0.158935546875, -0.91455078125
444, 2069312116, -5.419086933135986, 1.6937215328216553, 8.10318374633789, -1.9091322422027588, -1.417714238166809, -1.9209010601043701, 0.307861328125, -0.157958984375, -0.916015625
445, 2069328783, -5.404533863067627, 1.6918580532073975, 8.093509674072266, -1.8812912702560425, -1.4719107151031494, -1.899156093597412, 0.305908203125, -0.158447265625, -0.91455078125
446, 2069345450, -5.413315296173096, 1.6940830945968628, 8.089284896850586, -1.8608909845352173, -1.6448605060577393, -1.8367507457733154, 0.306884765625, -0.158447265625, -0.912841796875
447, 2069362117, -5.383764743804932, 1.6976799964904785, 8.121896743774414, -1.8086665868759155, -1.5301796197891235, -1.8112660646438599, 0.30322265625, -0.158935546875, -0.9140625
448, 2069378784, -5.401517868041992, 1.6753958463668823, 8.111655235290527, -1.7442760467529297, -1.3857110738754272, -1.6920260190963745, 0.307861328125, -0.15966796875, -0.9150390625
449, 2069395451, -5.40186882019043, 1.6931674480438232, 8.103350639343262, -1.6948562860488892, -1.3617759943008423, -1.775689959526062, 0.308349609375, -0.15966796875, -0.9140625
450, 2069412118, -5.432191848754883, 1.7018723487854004, 8.073760986328125, -1.8112022876739502, -1.4212102890014648, -1.8085896968841553, 0.304931640625, -0.159912109375, -0.916015625
451, 2069428785, -5.411247253417969, 1.6857550144195557, 8.099921226501465, -1.7061514854431152, -1.6317212581634521, -1.7427138090133667, 0.304931640625, -0.158935546875, -0.9130859375
452, 2069445452, -5.415334224700928, 1.6992385387420654, 8.08151626586914, -1.8075908422470093, -1.7603482007980347, -1.7064719200134277, 0.306884765625, -0.15966796875, -0.91455078125
453, 2069462119, -5.437610149383545, 1.7053152322769165, 8.085783004760742, -1.7116069793701172, -1.838722586631775, -1.6074401140213013, 0.307861328125, -0.1611328125, -0.916015625
454, 2069478786, -5.375633239746094, 1.726726770401001, 8.06956958770752, -1.8381977081298828, -1.8136481046676636, -1.5004432201385498, 0.304443359375, -0.1611328125, -0.9140625
455, 2069495453, -5.393043518066406, 1.7221870422363281, 8.109931945800781, -1.9143059253692627, -1.8098191022872925, -1.8367763757705688, 0.30419921875, -0.1611328125, -0.916015625
456, 2069512120, -5.4003400802612305, 1.7225521802902222, 8.123645782470703, -1.9221949577331543, -1.554255723953247, -1.8310136795043945, 0.306884765625, -0.16064453125, -0.912841796875
457, 2069528787, -5.377896785736084, 1.7241617441177368, 8.108139038085938, -2.0013256072998047, -1.3940098285675049, -1.9313130378723145, 0.304443359375, -0.162109375, -0.91357421875
458, 2069545454, -5.3751912117004395, 1.7326674461364746, 8.061012268066406, -1.5742205381393433, -1.2807117700576782, -1.7366561889648438, 0.306396484375, -0.159912109375, -0.9150390625
459, 2069562121, -5.346644401550293, 1.7085505723953247, 8.135626792907715, -1.286948561668396, -0.8484334945678711, -1.7098783254623413, 0.305419921875, -0.16015625, -0.91455078125
460, 2069578788, -5.417476177215576, 1.6565489768981934, 8.081826210021973, -0.8588194847106934, -0.489023357629776, -1.5231233835220337, 0.306396484375, -0.162109375, -0.9150390625
461, 2069595455, -5.414435386657715, 1.6908477544784546, 8.096409797668457, -0.04220972955226898, -0.17323149740695953, -1.0574843883514404, 0.305419921875, -0.16357421875, -0.9140625
462, 2069612122, -5.404585361480713, 1.7166318893432617, 8.084694862365723, 1.1978739500045776, -0.23356221616268158, -0.5499559044837952, 0.308837890625, -0.162109375, -0.91455078125
463, 2069628789, -5.3847126960754395, 1.7204023599624634, 8.039731979370117, 1.2165966033935547, 0.20539464056491852, -0.7610043883323669, 0.308837890625, -0.16455078125, -0.912353515625
464, 2069645456, -5.408764362335205, 1.7187541723251343, 8.092893600463867, 1.760341763496399, 1.0667369365692139, -0.4445468485355377, 0.305908203125, -0.166748046875, -0.912841796875
465, 2069662123, -5.480677127838135, 1.7649186849594116, 8.101103782653809, 1.969456672668457, 1.154383659362793, -0.26375964283943176, 0.30908203125, -0.168701171875, -0.90966796875
466, 2069678790, -5.492795944213867, 1.7399823665618896, 7.994134902954102, 2.174166202545166, 0.7174693942070007, -0.06774558871984482, 0.308349609375, -0.166748046875, -0.910400390625
467, 2069695457, -5.410369396209717, 1.8228448629379272, 8.050196647644043, 2.5241892337799072, 0.836004912853241, 0.3251468241214752, 0.31005859375, -0.168212890625, -0.910400390625
468, 2069712124, -5.403529167175293, 1.8571019172668457, 8.104580879211426, 2.647552490234375, 0.831189751625061, 0.20243635773658752, 0.3095703125, -0.173828125, -0.911865234375
469, 2069728791, -5.431477069854736, 1.8533101081848145, 8.00576114654541, 2.206374168395996, 1.0723844766616821, -0.020963994786143303, 0.31103515625, -0.17333984375, -0.911865234375
470, 2069745458, -5.4418535232543945, 1.8539329767227173, 8.056055068969727, 1.754565954208374, 0.6384925246238708, -0.2731594443321228, 0.3095703125, -0.173828125, -0.91064453125
471, 2069762125, -5.500420570373535, 1.8416789770126343, 7.988163948059082, 1.8124632835388184, 0.90052330493927, -0.18917539715766907, 0.31201171875, -0.17529296875, -0.91064453125
472, 2069778792, -5.442856311798096, 1.836896300315857, 8.034595489501953, 2.651766061782837, 0.8548431396484375, 0.28415369987487793, 0.31298828125, -0.177001953125, -0.90771484375
473, 2069795459, -5.458130836486816, 1.8500956296920776, 8.014899253845215, 2.665712356567383, 1.2893755435943604, 0.4376378059387207, 0.3115234375, -0.177978515625, -0.90869140625
474, 2069812126, -5.479719638824463, 1.8775997161865234, 7.975061416625977, 3.210968494415283, 1.7070417404174805, 0.7521489858627319, 0.31396484375, -0.180908203125, -0.908203125
475, 2069828793, -5.4162678718566895, 1.883780598640442, 8.016016006469727, 4.264943599700928, 1.7855318784713745, 1.3031294345855713, 0.31396484375, -0.18310546875, -0.908203125
476, 2069845460, -5.4743266105651855, 1.8964729309082031, 8.025110244750977, 4.246540546417236, 2.293828248977661, 1.3496164083480835, 0.314208984375, -0.18505859375, -0.905029296875
477, 2069862127, -5.509537220001221, 1.9566396474838257, 7.948324680328369, 4.2408037185668945, 2.1522417068481445, 1.6503608226776123, 0.316162109375, -0.18701171875, -0.906982421875
478, 2069878794, -5.505023956298828, 1.9872400760650635, 7.9253129959106445, 4.7227325439453125, 1.635825753211975, 2.1333651542663574, 0.317138671875, -0.190673828125, -0.905029296875
479, 2069895461, -5.484760284423828, 1.9911478757858276, 7.975541114807129, 4.749741077423096, 1.9191275835037231, 2.6215813159942627, 0.318115234375, -0.190185546875, -0.906005859375
480, 2069912128, -5.4892802238464355, 2.070333957672119, 8.006820678710938, 5.115029335021973, 2.103820562362671, 2.4925572872161865, 0.317626953125, -0.19384765625, -0.904296875
481, 2069928795, -5.423089504241943, 2.1289937496185303, 7.91807746887207, 4.7533392906188965, 2.4418954849243164, 2.1129133701324463, 0.3212890625, -0.19677734375, -0.904296875
482, 2069945462, -5.511519908905029, 2.173248052597046, 7.859479904174805, 3.675402879714966, 1.9398610591888428, 1.2994410991668701, 0.319091796875, -0.198974609375, -0.90283203125
483, 2069962129, -5.539769649505615, 2.112117290496826, 7.886242866516113, 3.0073726177215576, 1.085920810699463, 0.976580023765564, 0.3193359375, -0.199951171875, -0.904296875
484, 2069978796, -5.521630764007568, 2.1948299407958984, 7.922601699829102, 2.0716769695281982, 0.4182618260383606, 0.5539579391479492, 0.31982421875, -0.202392578125, -0.90185546875
485, 2069995463, -5.543707370758057, 2.2026636600494385, 7.887867450714111, 0.8695447444915771, -0.4525763988494873, -0.10334724187850952, 0.3203125, -0.202880859375, -0.900146484375
486, 2070012130, -5.556487560272217, 2.2666804790496826, 7.89919900894165, -1.1318124532699585, -1.08079195022583, -0.8947284817695618, 0.32080078125, -0.201416015625, -0.899169921875
487, 2070028797, -5.588835716247559, 2.1950583457946777, 7.84365177154541, -1.4632537364959717, -2.587164878845215, -1.0360723733901978, 0.31982421875, -0.202880859375, -0.900634765625
488, 2070045464, -5.4635162353515625, 2.198385238647461, 7.861970901489258, -2.1338582038879395, -3.0815412998199463, -1.3635051250457764, 0.3212890625, -0.201416015625, -0.90283203125
489, 2070062131, -5.458653926849365, 2.1991734504699707, 7.942503452301025, -2.0741934776306152, -2.908719062805176, -1.5464435815811157, 0.32177734375, -0.203857421875, -0.901611328125
490, 2070078798, -5.47388219833374, 2.1282191276550293, 7.923835754394531, -1.8857864141464233, -2.0926215648651123, -1.549657940864563, 0.3203125, -0.203857421875, -0.898193359375
491, 2070095465, -5.497707843780518, 2.070113182067871, 7.983747959136963, -1.6901435852050781, -1.3211671113967896, -1.317440390586853, 0.31982421875, -0.203857421875, -0.900146484375
492, 2070112132, -5.502065181732178, 2.1359641551971436, 7.933406352996826, -1.3314249515533447, -0.9572489857673645, -1.2229294776916504, 0.322265625, -0.204345703125, -0.902099609375
493, 2070128799, -5.457496643066406, 2.1860358715057373, 7.878864765167236, -1.622449278831482, -0.9635114073753357, -1.217589259147644, 0.3212890625, -0.204345703125, -0.900146484375
494, 2070145466, -5.434508800506592, 2.2291316986083984, 7.955945014953613, -1.1847153902053833, -0.13225117325782776, -1.2334179878234863, 0.324462890625, -0.20556640625, -0.898681640625
495, 2070162133, -5.444124698638916, 2.2581052780151367, 7.950689315795898, -1.4601287841796875, 0.9949318170547485, -1.9844845533370972, 0.322265625, -0.203857421875, -0.900146484375
496, 2070178800, -5.552780628204346, 2.183852195739746, 7.892285346984863, -1.6655553579330444, 1.1300643682479858, -2.6151461601257324, 0.32421875, -0.20751953125, -0.901611328125
497, 2070195467, -5.554478645324707, 2.0712249279022217, 7.913885593414307, -1.2654720544815063, 1.287383794784546, -2.414777994155884, 0.324951171875, -0.20556640625, -0.901123046875
498, 2070212134, -5.525391101837158, 2.076641321182251, 7.95140266418457, -0.0321311317384243, 2.4602339267730713, -2.0179603099823, 0.327392578125, -0.2060546875, -0.899658203125
499, 2070228801, -5.5489726066589355, 2.1614508628845215, 7.901818752288818, 0.8632055521011353, 3.6381494998931885, -1.695944905281067, 0.324951171875, -0.209716796875, -0.900634765625
500, 2070245468, -5.603363513946533, 2.1739540100097656, 7.896665573120117, 1.5824229717254639, 4.360222339630127, -1.517296314239502, 0.328369140625, -0.210693359375, -0.89892578125
501, 2070262135, -5.571006774902344, 2.2043874263763428, 7.87846040725708, 1.9411033391952515, 4.728085994720459, -1.2480300664901733, 0.328369140625, -0.208251953125, -0.89599609375
502, 2070278802, -5.561056137084961, 2.279252290725708, 7.8512654304504395, 1.6765367984771729, 5.151052951812744, -1.6598821878433228, 0.33203125, -0.210693359375, -0.89794921875
503, 2070295469, -5.5398969650268555, 2.2950096130371094, 7.8448710441589355, 1.052534818649292, 5.4524126052856445, -2.505127191543579, 0.33203125, -0.211669921875, -0.8974609375
504, 2070312136, -5.5981550216674805, 2.2642953395843506, 7.81859016418457, 0.39455732703208923, 5.458125114440918, -3.276761293411255, 0.335205078125, -0.212158203125, -0.896728515625
505, 2070328803, -5.642082691192627, 2.2913124561309814, 7.779234886169434, -0.26272228360176086, 4.907668590545654, -3.8859589099884033, 0.336669921875, -0.21337890625, -0.897705078125
506, 2070345470, -5.669191837310791, 2.3004648685455322, 7.740061283111572, -1.1048166751861572, 3.848917007446289, -4.3662872314453125, 0.338623046875, -0.21533203125, -0.895263671875
507, 2070362137, -5.677490234375, 2.214035987854004, 7.7566680908203125, -2.060426712036133, 3.0225231647491455, -4.751194953918457, 0.3408203125, -0.210693359375, -0.893798828125
508, 2070378804, -5.660107612609863, 2.2348222732543945, 7.77091646194458, -2.351604461669922, 2.707486391067505, -4.87216329574585, 0.341796875, -0.210205078125, -0.8935546875
509, 2070395471, -5.6230974197387695, 2.300196886062622, 7.788247108459473, -2.819023847579956, 2.7905616760253906, -5.602126121520996, 0.3447265625, -0.212890625, -0.8935546875
510, 2070412138, -5.635440349578857, 2.2551636695861816, 7.816938877105713, -3.0527780055999756, 3.78076171875, -6.420464515686035, 0.345703125, -0.2138671875, -0.89453125
511, 2070428805, -5.637197971343994, 2.2158920764923096, 7.858121871948242, -2.748896837234497, 5.333698749542236, -7.2511491775512695, 0.346435546875, -0.21044921875, -0.89306640625
512, 2070445472, -5.678104400634766, 2.1000747680664062, 7.81791877746582, -2.193971872329712, 7.618147373199463, -7.385590553283691, 0.350341796875, -0.21044921875, -0.8916015625
513, 2070462139, -5.688361167907715, 2.1014256477355957, 7.8128533363342285, -1.2213808298110962, 10.468050956726074, -7.558517932891846, 0.35107421875, -0.20947265625, -0.890380859375
514, 2070478806, -5.677182674407959, 2.2195305824279785, 7.7626051902771, -0.3303913176059723, 13.48281192779541, -9.177142143249512, 0.356201171875, -0.208984375, -0.889892578125
515, 2070495473, -5.67010498046875, 2.262908697128296, 7.76163387298584, 1.364486813545227, 16.457460403442383, -12.714701652526855, 0.361328125, -0.20654296875, -0.88671875
516, 2070512140, -5.714125633239746, 2.2572457790374756, 7.795985221862793, 4.271984100341797, 19.464229583740234, -16.31544303894043, 0.369873046875, -0.20751953125, -0.884033203125
517, 2070528807, -5.735559940338135, 2.2231874465942383, 7.832816123962402, 3.897836685180664, 23.349462509155273, -17.50050926208496, 0.376708984375, -0.209228515625, -0.88134765625
518, 2070545474, -5.725508213043213, 2.121861457824707, 7.830464839935303, 3.5268900394439697, 30.3358211517334, -17.42672348022461, 0.38427734375, -0.21044921875, -0.878662109375
519, 2070562141, -5.692165851593018, 2.1766161918640137, 7.938823699951172, 3.837993860244751, 40.79549789428711, -18.05638885498047, 0.39453125, -0.208984375, -0.87255859375
520, 2070578808, -5.775476455688477, 2.0857510566711426, 7.844683647155762, 6.004383087158203, 52.93973159790039, -20.407943725585938, 0.408935546875, -0.209228515625, -0.86669921875
521, 2070595475, -5.818418502807617, 2.197575092315674, 7.828612804412842, 10.029769897460938, 65.99431610107422, -22.959434509277344, 0.42578125, -0.208740234375, -0.859375
522, 2070612142, -5.942771911621094, 2.1555676460266113, 7.770590305328369, 13.101364135742188, 83.92427825927734, -24.362123489379883, 0.44482421875, -0.209716796875, -0.84814453125
523, 2070628809, -6.099355220794678, 2.235584020614624, 7.54706335067749, 20.03946876525879, 107.039794921875, -29.036773681640625, 0.474609375, -0.21044921875, -0.8330078125
524, 2070645476, -6.248861312866211, 2.23874831199646, 7.533146381378174, 25.909460067749023, 134.53262329101562, -35.24877166748047, 0.50634765625, -0.2119140625, -0.81396484375
525, 2070662143, -6.372005939483643, 2.4307711124420166, 7.64987850189209, 20.839616775512695, 165.6380615234375, -40.54444885253906, 0.546875, -0.2119140625, -0.786376953125
526, 2070678810, -6.483322620391846, 2.4250216484069824, 7.687227725982666, 10.644185066223145, 199.09115600585938, -47.92149353027344, 0.592041015625, -0.208984375, -0.757080078125
527, 2070695477, -6.5795416831970215, 2.4761316776275635, 7.249598979949951, 2.155210018157959, 237.3710174560547, -63.38438034057617, 0.646484375, -0.19873046875, -0.716064453125
528, 2070712144, -7.357947826385498, 2.5120835304260254, 6.996816158294678, -4.1312761306762695, 280.1054382324219, -82.11548614501953, 0.705322265625, -0.183349609375, -0.660888671875
529, 2070728811, -8.807953834533691, 2.841067314147949, 7.4631028175354, -14.75119686126709, 322.4834289550781, -102.53569793701172, 0.770263671875, -0.158203125, -0.597412109375
530, 2070745478, -11.871707916259766, 3.314795970916748, 8.04466438293457, -15.985540390014648, 348.12127685546875, -112.67059326171875, 0.833251953125, -0.129150390625, -0.516845703125
531, 2070762145, -16.53839683532715, 5.610732555389404, 8.855402946472168, -15.649401664733887, 362.3573913574219, -127.32990264892578, 0.892822265625, -0.09521484375, -0.42822265625
532, 2070778812, -18.359344482421875, 4.356771945953369, 9.127490997314453, -17.90543556213379, 327.6242370605469, -136.69398498535156, 0.936767578125, -0.058349609375, -0.3408203125
533, 2070795479, -19.323226928710938, 4.6440510749816895, 12.328661918640137, 0.9821263551712036, 301.2532043457031, -129.64512634277344, 0.971923828125, -0.020263671875, -0.254638671875
534, 2070812146, -15.129900932312012, 5.652833938598633, 13.278508186340332, 2.725477695465088, 280.8128356933594, -130.12107849121094, 0.991455078125, 0.01513671875, -0.173828125
535, 2070828813, -9.489008903503418, 6.363621234893799, 13.302043914794922, -1.8355516195297241, 247.55810546875, -128.9267578125, 1.0029296875, 0.052978515625, -0.103271484375
536, 2070845480, -3.230743408203125, 4.384335041046143, 6.158371448516846, -21.87279510498047, 245.92825317382812, -126.14666748046875, 1.007080078125, 0.08935546875, -0.036865234375
537, 2070862147, -23.989124298095703, 8.873995780944824, 22.223251342773438, 25.696077346801758, 198.79855346679688, -75.2986831665039, 1.005859375, 0.11669921875, 0.031982421875
538, 2070878814, -16.083026885986328, 10.33327865600586, 21.15955352783203, 27.372390747070312, 4.851802825927734, -22.357406616210938, 1.005859375, 0.126708984375, 0.043701171875
539, 2070895481, -7.232709884643555, 6.819403171539307, 15.650371551513672, 6.840920448303223, -113.49430084228516, 10.019524574279785, 1.005615234375, 0.124755859375, 0.01611328125
540, 2070912148, -3.132535457611084, 4.046698093414307, 11.348856925964355, 10.485769271850586, -151.0193328857422, 32.030941009521484, 1.006103515625, 0.115234375, -0.0263671875
541, 2070928815, -2.413747549057007, 3.197441577911377, 9.542728424072266, 18.848960876464844, -158.02597045898438, 47.98812484741211, 1.002685546875, 0.1005859375, -0.07080078125
542, 2070945482, -3.3406429290771484, 3.1316895484924316, 9.105318069458008, 13.095300674438477, -163.79403686523438, 58.390865325927734, 0.99560546875, 0.08154296875, -0.116943359375
543, 2070962149, -4.749058246612549, 2.79418683052063, 9.17233657836914, -2.940521240234375, -178.08848571777344, 66.99609375, 0.9921875, 0.0615234375, -0.165283203125
544, 2070978816, -6.434899806976318, 2.1965653896331787, 9.636337280273438, -17.24919891357422, -208.2980194091797, 79.6618881225586, 0.978759765625, 0.04052734375, -0.220703125
545, 2070995483, -7.660639762878418, 1.1998010873794556, 10.020484924316406, -22.62213897705078, -247.6634521484375, 96.69483184814453, 0.96044921875, 0.014892578125, -0.286865234375
546, 2071012150, -8.053335189819336, 0.14106860756874084, 9.801007270812988, -15.752970695495605, -284.7336730957031, 114.7789535522461, 0.9326171875, -0.014892578125, -0.360107421875
547, 2071028817, -8.496519088745117, -0.6592738032341003, 9.409743309020996, -4.41304349899292, -311.79083251953125, 128.26272583007812, 0.8955078125, -0.046875, -0.441162109375
548, 2071045484, -9.022035598754883, -1.1817213296890259, 9.274798393249512, 0.2558623254299164, -329.2083740234375, 130.4268798828125, 0.8427734375, -0.084228515625, -0.5185546875
549, 2071062151, -9.681812286376953, -2.080256223678589, 9.479744911193848, 0.5132531523704529, -340.8858337402344, 121.95948791503906, 0.782958984375, -0.11669921875, -0.596923828125
550, 2071078818, -10.692882537841797, -2.7184417247772217, 10.182371139526367, 6.623984336853027, -348.1190490722656, 108.95452117919922, 0.71240234375, -0.1435546875, -0.67236328125
551, 2071095485, -11.939693450927734, -2.8395743370056152, 11.01445198059082, 16.477144241333008, -356.1737976074219, 92.33271026611328, 0.634033203125, -0.1689453125, -0.7373046875
552, 2071112152, -12.739299774169922, -2.95596981048584, 11.50567626953125, 30.683244705200195, -363.00909423828125, 74.16582489013672, 0.55078125, -0.191162109375, -0.797607421875
553, 2071128819, -13.843703269958496, -2.250739097595215, 12.206092834472656, 49.27447509765625, -359.8341979980469, 51.44041442871094, 0.45751953125, -0.21435546875, -0.843994140625
554, 2071145486, -17.834613800048828, -0.3853567838668823, 14.713223457336426, 64.11383819580078, -354.27044677734375, 30.65675163269043, 0.3623046875, -0.239501953125, -0.87744140625
555, 2071162153, -25.7501277923584, 1.647888422012329, 16.934114456176758, 73.23612976074219, -372.24346923828125, 24.20386505126953, 0.2666015625, -0.264404296875, -0.902587890625
556, 2071178820, -31.39110565185547, 3.208359956741333, 13.510665893554688, 77.96829223632812, -411.50372314453125, 36.17043685913086, 0.15478515625, -0.286865234375, -0.919189453125
557, 2071195487, -31.381879806518555, 6.077863693237305, 3.351243019104004, 66.84965515136719, -412.9942626953125, 44.58879852294922, 0.035400390625, -0.31298828125, -0.923828125
558, 2071212154, -31.0560359954834, 2.1660919189453125, -7.346537113189697, 62.654659271240234, -331.40313720703125, 49.769775390625, -0.064697265625, -0.3310546875, -0.9150390625
559, 2071228821, -37.83421325683594, -10.018433570861816, -19.162551879882812, 139.2108612060547, -206.3741912841797, 88.9604263305664, -0.138916015625, -0.35986328125, -0.893798828125
560, 2071245488, -37.04790115356445, -16.624032974243164, -25.853322982788086, 184.6236114501953, -66.65960693359375, 126.15630340576172, -0.178955078125, -0.404541015625, -0.868408203125
561, 2071262155, -27.327266693115234, -7.071154594421387, -17.262306213378906, 5.118786811828613, 81.3333740234375, 6.840218544006348, -0.17333984375, -0.4189453125, -0.8642578125
562, 2071278822, -27.461870193481445, -5.261468887329102, -2.7275586128234863, -121.11921691894531, 119.81642150878906, -108.68274688720703, -0.1337890625, -0.39404296875, -0.881103515625
563, 2071295489, -5.004274845123291, 4.122185230255127, 13.031858444213867, -32.798824310302734, 116.59884643554688, -72.98040771484375, -0.093505859375, -0.382568359375, -0.89599609375
564, 2071312156, 25.211973190307617, 22.303863525390625, 17.111228942871094, -35.138553619384766, 100.833740234375, -39.69279098510742, -0.0654296875, -0.374267578125, -0.90087890625
565, 2071328823, 2.614624500274658, 0.8057889938354492, -5.149657249450684, -69.8420639038086, 290.9761657714844, -61.18357849121094, 0.00341796875, -0.357421875, -0.90771484375
566, 2071345490, -28.514244079589844, -5.705575942993164, 21.174497604370117, -49.96286392211914, 305.4212341308594, -2.6579205989837646, 0.0966796875, -0.343017578125, -0.910400390625
567, 2071362157, -15.341859817504883, -8.339616775512695, 16.73855972290039, -57.328277587890625, 189.97230529785156, -101.51349639892578, 0.160400390625, -0.323486328125, -0.90576171875
568, 2071378824, -11.600946426391602, 5.4814019203186035, 10.62821102142334, -35.24042510986328, 141.0560760498047, -94.72504425048828, 0.212646484375, -0.306396484375, -0.902587890625
569, 2071395491, -11.903573036193848, 8.411983489990234, 12.9431791305542, -44.1547737121582, 130.0952606201172, -44.07493209838867, 0.2548828125, -0.295166015625, -0.895751953125
570, 2071412158, -16.72894287109375, 3.6843061447143555, 9.680924415588379, -87.0299301147461, 14.860488891601562, -53.5573844909668, 0.272705078125, -0.26806640625, -0.9013671875
571, 2071428825, -6.231939315795898, 2.405280828475952, 9.524084091186523, -69.904541015625, -20.762287139892578, -41.7791748046875, 0.272705078125, -0.24462890625, -0.9052734375
572, 2071445492, -6.700773239135742, 2.6887588500976562, 8.501368522644043, -77.70818328857422, -36.558441162109375, -43.599220275878906, 0.26904296875, -0.22119140625, -0.9111328125
573, 2071462159, -6.223294734954834, 0.2654690444469452, 8.956607818603516, -53.95309829711914, -26.55046844482422, -29.79629135131836, 0.262939453125, -0.2021484375, -0.91845703125
574, 2071478826, -4.776243209838867, 0.2600545287132263, 9.015175819396973, -29.65625762939453, -11.080475807189941, -17.671573638916016, 0.25830078125, -0.194580078125, -0.919921875
575, 2071495493, -4.662109851837158, -0.15286102890968323, 8.77079963684082, -9.951580047607422, 2.4897165298461914, -8.782268524169922, 0.2578125, -0.189453125, -0.923583984375
576, 2071512160, -4.859561920166016, 0.10682198405265808, 8.586190223693848, 5.809443473815918, 11.695539474487305, -0.17049100995063782, 0.263427734375, -0.191162109375, -0.919921875
577, 2071528827, -4.845868110656738, 0.3417949378490448, 8.448412895202637, 16.535228729248047, 17.021717071533203, 7.030182361602783, 0.26806640625, -0.19677734375, -0.916748046875
578, 2071545494, -5.076359748840332, 1.423561930656433, 8.334900856018066, 22.131664276123047, 19.575571060180664, 8.608308792114258, 0.272705078125, -0.201416015625, -0.91455078125
579, 2071562161, -5.274297714233398, 2.208399534225464, 8.178980827331543, 22.333646774291992, 19.525604248046875, 6.995869159698486, 0.2802734375, -0.210693359375, -0.910888671875
580, 2071578828, -5.35867977142334, 2.8045074939727783, 7.9651055335998535, 17.3896541595459, 15.8317232131958, 3.8445444107055664, 0.283447265625, -0.2158203125, -0.9091796875
581, 2071595495, -5.517341136932373, 2.52750301361084, 7.992172718048096, 10.476670265197754, 10.25602912902832, -0.2540781497955322, 0.285888671875, -0.222412109375, -0.90673828125
582, 2071612162, -5.47028112411499, 2.0811100006103516, 8.106453895568848, 6.252528667449951, 6.180148124694824, -2.0402441024780273, 0.2880859375, -0.223876953125, -0.903076171875
583, 2071628829, -5.422585964202881, 2.1247715950012207, 8.026446342468262, 3.6435797214508057, 3.565922260284424, -1.8329218626022339, 0.29052734375, -0.223876953125, -0.906005859375
584, 2071645496, -5.232941627502441, 2.303739547729492, 7.936709403991699, 1.153627872467041, 0.7577964663505554, -2.9446024894714355, 0.291748046875, -0.2255859375, -0.906005859375
585, 2071662163, -5.146557331085205, 2.1921727657318115, 7.955423831939697, -0.43553122878074646, -0.6471049189567566, -5.373301982879639, 0.290771484375, -0.2255859375, -0.903564453125
586, 2071678830, -5.048429489135742, 2.048438787460327, 8.142481803894043, -1.2269636392593384, -0.7192943692207336, -8.416577339172363, 0.291259765625, -0.228515625, -0.90283203125
587, 2071695497, -4.872490406036377, 1.8928136825561523, 8.266938209533691, -0.42905130982398987, 1.307727336883545, -10.377745628356934, 0.292724609375, -0.224853515625, -0.90234375
588, 2071712164, -4.958288669586182, 1.7807725667953491, 8.373489379882812, 1.5689771175384521, 5.295767784118652, -11.084489822387695, 0.2978515625, -0.22607421875, -0.90234375
589, 2071728831, -5.04335355758667, 1.8562051057815552, 8.25374698638916, 4.636484622955322, 10.497648239135742, -10.898211479187012, 0.2998046875, -0.22607421875, -0.90185546875
590, 2071745498, -5.150095462799072, 2.145770788192749, 8.243927001953125, 5.885685920715332, 15.963889122009277, -12.957369804382324, 0.304931640625, -0.228759765625, -0.899169921875
591, 2071762165, -4.9761481285095215, 2.249460220336914, 8.361014366149902, 7.258579730987549, 23.911575317382812, -16.761032104492188, 0.31103515625, -0.229736328125, -0.896484375
592, 2071778832, -5.174346446990967, 2.133347272872925, 8.372513771057129, 13.257019996643066, 36.70228958129883, -24.27733039855957, 0.322998046875, -0.22998046875, -0.891357421875
593, 2071795499, -4.418087959289551, 2.1156160831451416, 9.377120018005371, 13.030241012573242, 55.14070129394531, -30.81578254699707, 0.337646484375, -0.235107421875, -0.886962890625
594, 2071812166, -4.807423114776611, 1.128482460975647, 9.328457832336426, 14.242382049560547, 86.19735717773438, -27.58086395263672, 0.358154296875, -0.23388671875, -0.88037109375
595, 2071828833, -4.657137393951416, 2.111974000930786, 9.519953727722168, 20.882530212402344, 124.41244506835938, -31.04917335510254, 0.390625, -0.236328125, -0.863525390625
596, 2071845500, -4.97470760345459, 2.6424310207366943, 9.198758125305176, 32.06330490112305, 170.7772674560547, -46.00059127807617, 0.43212890625, -0.238525390625, -0.843017578125
597, 2071862167, -4.922874450683594, 3.428068161010742, 9.846314430236816, 35.60396957397461, 228.4161376953125, -68.30098724365234, 0.491455078125, -0.23974609375, -0.8115234375
598, 2071878834, -5.241471290588379, 4.261401653289795, 10.135034561157227, 19.158809661865234, 303.0249938964844, -99.55550384521484, 0.560791015625, -0.23193359375, -0.76806640625
599, 2071895501, -6.0077128410339355, 5.528384208679199, 10.498641967773438, -10.629240036010742, 405.1970520019531, -158.0377960205078, 0.65234375, -0.206298828125, -0.70263671875
600, 2071912168, -10.65237045288086, 6.566347122192383, 12.592805862426758, -21.191255569458008, 489.421630859375, -225.3641815185547, 0.755859375, -0.156494140625, -0.606201171875
601, 2071928835, -16.949504852294922, 9.786211967468262, 15.486721992492676, -16.629539489746094, 522.25048828125, -266.95654296875, 0.852783203125, -0.0908203125, -0.487060546875
602, 2071945502, -27.42975616455078, 10.05198860168457, 20.290573120117188, 1.3511220216751099, 470.4885559082031, -260.6644287109375, 0.925048828125, -0.02099609375, -0.360595703125
603, 2071962169, -22.066381454467773, 10.632990837097168, 20.991817474365234, 13.497411727905273, 361.6640930175781, -240.12710571289062, 0.96533203125, 0.045654296875, -0.254150390625
604, 2071978836, -0.7377666234970093, 9.037562370300293, 13.006621360778809, -23.78730010986328, 279.8046569824219, -250.258056640625, 0.980712890625, 0.112548828125, -0.175537109375
605, 2071995503, -13.045286178588867, 7.434795379638672, 11.000751495361328, -37.31554412841797, 380.99102783203125, -241.9212646484375, 0.987548828125, 0.189208984375, -0.068603515625
606, 2072012170, -22.96590232849121, 11.036795616149902, 24.947010040283203, 35.93959045410156, 164.98464965820312, -104.41622161865234, 0.985107421875, 0.229248046875, -0.00439453125
607, 2072028837, -12.28503131866455, 14.193626403808594, 20.49539566040039, 54.41484451293945, -58.96546173095703, 18.393335342407227, 0.98291015625, 0.230224609375, -0.017333984375
608, 2072045504, -3.127686023712158, 9.83443546295166, 11.519102096557617, -1.7387340068817139, -166.4552001953125, 79.02896118164062, 0.9833984375, 0.208984375, -0.05810546875
609, 2072062171, 0.9905745983123779, 5.060934543609619, 6.551249980926514, -35.22111129760742, -183.16702270507812, 107.84939575195312, 0.98388671875, 0.180908203125, -0.10791015625
610, 2072078838, 2.0515239238739014, 2.2233083248138428, 4.743499279022217, -34.785648345947266, -168.5880889892578, 128.01060485839844, 0.982666015625, 0.145263671875, -0.15478515625
611, 2072095505, 0.9745194911956787, 1.689740538597107, 4.878965377807617, -29.280229568481445, -148.2791748046875, 139.89952087402344, 0.979248046875, 0.1083984375, -0.194091796875
612, 2072112172, -1.9162790775299072, 2.0034337043762207, 6.437069892883301, -40.680789947509766, -148.17190551757812, 142.3983154296875, 0.97216796875, 0.068603515625, -0.233642578125
613, 2072128839, -5.032145023345947, 1.7736657857894897, 8.20907211303711, -62.4840202331543, -176.2653045654297, 140.64747619628906, 0.95947265625, 0.0341796875, -0.27978515625
614, 2072145506, -7.068600177764893, 1.1170287132263184, 9.031888008117676, -74.42335510253906, -223.713134765625, 141.69708251953125, 0.9384765625, 4.8828125E-4, -0.333984375
615, 2072162173, -8.019305229187012, 0.1071559265255928, 8.796223640441895, -68.97758483886719, -271.6166687011719, 144.41720581054688, 0.911376953125, -0.031494140625, -0.40625
616, 2072178840, -8.44029426574707, -0.38243567943573, 8.177339553833008, -46.459720611572266, -308.2327880859375, 144.63351440429688, 0.8681640625, -0.061767578125, -0.48095703125
617, 2072195507, -9.080423355102539, 0.2721894383430481, 8.002646446228027, -24.570064544677734, -330.9581604003906, 137.50050354003906, 0.811767578125, -0.09521484375, -0.559814453125
618, 2072212174, -10.219680786132812, 1.5105794668197632, 8.423745155334473, -13.319539070129395, -345.52557373046875, 126.59900665283203, 0.75, -0.123779296875, -0.63623046875
619, 2072228841, -11.973286628723145, 2.397392988204956, 9.44925594329834, -4.271142482757568, -355.7691955566406, 122.86814880371094, 0.673095703125, -0.148193359375, -0.7119140625
620, 2072245508, -13.600578308105469, 2.8713104724884033, 9.808124542236328, 7.74860143661499, -365.1605224609375, 126.8033218383789, 0.585205078125, -0.176025390625, -0.76806640625
621, 2072262175, -13.886479377746582, 2.8230459690093994, 10.3436279296875, 26.961009979248047, -354.9540100097656, 125.99127960205078, 0.493408203125, -0.20556640625, -0.82861328125
622, 2072278842, -18.065929412841797, 3.500624656677246, 13.117981910705566, 51.24661636352539, -328.6712951660156, 113.49787139892578, 0.40185546875, -0.234619140625, -0.863525390625
623, 2072295509, -28.886865615844727, 3.165637731552124, 17.189983367919922, 87.95884704589844, -331.7030944824219, 104.79964447021484, 0.3095703125, -0.265380859375, -0.8876953125
624, 2072312176, -37.26594543457031, 3.749978542327881, 13.7147798538208, 124.2609634399414, -396.3540954589844, 109.04647064208984, 0.203857421875, -0.308837890625, -0.904541015625
625, 2072328843, -37.6959114074707, 3.4300382137298584, 2.2226970195770264, 140.17892456054688, -428.7648620605469, 116.62064361572266, 0.075927734375, -0.3544921875, -0.905517578125
626, 2072345510, -33.60572052001953, -3.5095455646514893, -10.861030578613281, 142.77557373046875, -350.3158264160156, 115.19227600097656, -0.037353515625, -0.396484375, -0.886474609375
627, 2072362177, -39.70705032348633, -22.890098571777344, -24.868221282958984, 196.8277587890625, -194.7543487548828, 135.81068420410156, -0.11474609375, -0.4384765625, -0.86376953125
628, 2072378844, -39.69786071777344, -20.894367218017578, -28.86151885986328, 109.61742401123047, 0.802951455116272, 38.4447021484375, -0.14306640625, -0.48046875, -0.8408203125
629, 2072395511, -13.487085342407227, -15.61990737915039, -11.274137496948242, -148.71148681640625, 212.33477783203125, -227.16964721679688, -0.078857421875, -0.4560546875, -0.862060546875
630, 2072412178, -12.488435745239258, 19.13512420654297, 28.74219512939453, -149.879150390625, 126.08036041259766, -240.85169982910156, -0.003173828125, -0.4248046875, -0.881591796875
631, 2072428845, 3.0360543727874756, 9.027958869934082, -3.3562300205230713, -134.39004516601562, 170.2491455078125, -122.98758697509766, 0.04833984375, -0.3837890625, -0.897705078125
632, 2072445512, -10.37274169921875, -1.0522819757461548, 13.681615829467773, -117.5141830444336, 309.5723876953125, 8.789727210998535, 0.1298828125, -0.3486328125, -0.899658203125
633, 2072462179, -17.437593460083008, -22.289697647094727, 16.78206443786621, -72.41259765625, 223.308349609375, -54.639896392822266, 0.199951171875, -0.320556640625, -0.896484375
634, 2072478846, -19.44103240966797, 4.812014579772949, 21.72848129272461, -34.92041778564453, 135.19602966308594, -134.32716369628906, 0.255126953125, -0.309326171875, -0.890625
635, 2072495513, -16.5681095123291, 14.869924545288086, 1.9275023937225342, -89.40570068359375, 57.79899597167969, -25.611270904541016, 0.278076171875, -0.2783203125, -0.89013671875
636, 2072512180, -6.995149612426758, -5.506723403930664, 13.026180267333984, -27.22604751586914, 12.628536224365234, -22.381086349487305, 0.287109375, -0.26513671875, -0.89306640625
637, 2072528847, -7.3010053634643555, 2.830827474594116, 8.91683578491211, -18.709814071655273, 9.805998802185059, -7.596957206726074, 0.293212890625, -0.2626953125, -0.890380859375
638, 2072545514, -6.661394119262695, 1.918630838394165, 8.210827827453613, -6.9354352951049805, 2.488659143447876, -6.370944023132324, 0.292724609375, -0.256103515625, -0.89404296875
639, 2072562181, -5.342409133911133, 1.1045067310333252, 8.794892311096191, 0.1126638650894165, 6.7479166984558105, -1.2223663330078125, 0.29736328125, -0.260009765625, -0.892333984375
640, 2072578848, -5.459464073181152, 2.0209760665893555, 8.459214210510254, 6.8558526039123535, 13.201006889343262, 1.4467408657073975, 0.298828125, -0.26123046875, -0.889404296875
641, 2072595515, -5.282870292663574, 1.836822271347046, 8.44156551361084, 11.783353805541992, 19.102476119995117, 2.152219533920288, 0.303466796875, -0.263671875, -0.88623046875
642, 2072612182, -5.621830940246582, 1.8506438732147217, 4.629265785217285, 14.43274974822998, 24.418813705444336, 2.1486363410949707, 0.312255859375, -0.2705078125, -0.88232421875
643, 2072628849, -5.48067569732666, 2.4759504795074463, 8.016058921813965, 15.908171653747559, 26.92618751525879, 1.304337501525879, 0.31884765625, -0.274169921875, -0.88330078125
644, 2072645516, -5.641064167022705, 2.3216774463653564, 7.836715221405029, 17.05695343017578, 28.617698669433594, 0.5895874500274658, 0.3271484375, -0.27880859375, -0.87548828125
645, 2072662183, -5.802087306976318, 2.2957701683044434, 7.642534255981445, 18.70072364807129, 28.990861892700195, 1.5992443561553955, 0.330810546875, -0.284912109375, -0.872314453125
646, 2072678850, -5.883076190948486, 2.5870487689971924, 7.487978935241699, 16.858200073242188, 28.786720275878906, 2.8401970863342285, 0.341064453125, -0.289794921875, -0.86767578125
647, 2072695517, -5.802456378936768, 2.7994816303253174, 7.373507022857666, 15.29047679901123, 25.140958786010742, 2.7421233654022217, 0.350341796875, -0.29443359375, -0.86328125
648, 2072712184, -5.738466739654541, 2.92130184173584, 7.324575424194336, 11.91515827178955, 20.131973266601562, 0.19558534026145935, 0.35546875, -0.299560546875, -0.860595703125
649, 2072728851, -5.957829475402832, 2.6245810985565186, 7.344529151916504, 9.797771453857422, 16.420059204101562, -1.5481359958648682, 0.35888671875, -0.302001953125, -0.8564453125
650, 2072745518, -6.036629676818848, 2.5529425144195557, 7.259152412414551, 8.590181350708008, 13.838946342468262, -1.4417017698287964, 0.362060546875, -0.30322265625, -0.85546875
651, 2072762185, -6.026106357574463, 2.733962297439575, 7.103736877441406, 7.303957462310791, 10.702290534973145, -2.226512908935547, 0.36572265625, -0.307373046875, -0.853271484375
652, 2072778852, -5.690596103668213, 3.077709674835205, 7.305544853210449, 3.561875581741333, 5.606602191925049, -5.242844104766846, 0.370361328125, -0.309814453125, -0.8505859375
653, 2072795519, -5.718079090118408, 3.161996841430664, 7.35035514831543, 0.4165842533111572, 2.2576897144317627, -10.143247604370117, 0.370849609375, -0.310302734375, -0.84814453125
