sep=,
DeviceTag:,B,,,,,,,,,,,,,,,,,
FirmwareVersion:,2.2.1,,,,,,,,,,,,,,,,,
AppVersion:,2022.0.1,,,,,,,,,,,,,,,,,
SyncStatus:,Synced,,,,,,,,,,,,,,,,,
OutputRate:,60Hz,,,,,,,,,,,,,,,,,
FilterProfile:,General,,,,,,,,,,,,,,,,,
Measurement Mode:,Inertial Mode - Rate quantities (with mag),,,,,,,,,,,,,,,,,
StartTime:,2022-08-16 15:43:58.864 +0300,,,,,,,,,,,,,,,,,
© Xsens Technologies B. V. 2005-2022,,,,,,,,,,,,,,,,,,,

PacketCounter,SampleTimeFine,Acc_X,Acc_Y,Acc_Z,Gyr_X,Gyr_Y,Gyr_Z,Mag_X,Mag_Y,Mag_Z
1, 2061928635, -5.403366565704346, -2.1537561416625977, 7.730946063995361, -0.31278225779533386, -0.8458849191665649, -1.7283449172973633, 0.2744140625, 0.309326171875, -0.86474609375
2, 2061945302, -5.392061710357666, -2.1534533500671387, 7.75619649887085, -0.32981470227241516, -0.9228382706642151, -1.6604584455490112, 0.27783203125, 0.309814453125, -0.86865234375
3, 2061961969, -5.4196953773498535, -2.147630214691162, 7.774780750274658, -0.3554529845714569, -0.7821220755577087, -1.761794924736023, 0.27734375, 0.308349609375, -0.864013671875
4, 2061978636, -5.398311138153076, -2.150843381881714, 7.739694595336914, -0.4373496472835541, -0.6526755690574646, -1.8834810256958008, 0.278076171875, 0.307861328125, -0.8662109375
5, 2061995303, -5.38250207901001, -2.1848301887512207, 7.770262241363525, -0.4767675995826721, -0.5823174715042114, -1.7049477100372314, 0.275390625, 0.310302734375, -0.86572265625
6, 2062011970, -5.4125165939331055, -2.1482186317443848, 7.769921779632568, -0.42234063148498535, -0.45050176978111267, -1.6586657762527466, 0.27587890625, 0.309814453125, -0.86572265625
7, 2062028637, -5.430132865905762, -2.156639575958252, 7.7737908363342285, -0.5169795155525208, -0.47484660148620605, -1.7646124362945557, 0.27734375, 0.309326171875, -0.8671875
8, 2062045304, -5.409273624420166, -2.143749475479126, 7.7533416748046875, -0.4258238673210144, -0.5759398341178894, -1.741586446762085, 0.27783203125, 0.309814453125, -0.86474609375
9, 2062061971, -5.39955997467041, -2.1547088623046875, 7.757814407348633, -0.3530389964580536, -0.6923816204071045, -1.8138206005096436, 0.2783203125, 0.309814453125, -0.864501953125
10, 2062078638, -5.408474445343018, -2.1499292850494385, 7.762678623199463, -0.31716206669807434, -0.7850932478904724, -1.721083641052246, 0.27685546875, 0.310302734375, -0.865234375
11, 2062095305, -5.3981451988220215, -2.1677086353302, 7.758816242218018, -0.30572596192359924, -0.7804317474365234, -1.6820627450942993, 0.275390625, 0.30810546875, -0.8642578125
12, 2062111972, -5.395488262176514, -2.151663303375244, 7.765958309173584, -0.37634024024009705, -0.6555954813957214, -1.6007297039031982, 0.279052734375, 0.309814453125, -0.86865234375
13, 2062128639, -5.395709991455078, -2.1408703327178955, 7.751745700836182, -0.34642457962036133, -0.5740446448326111, -1.6334755420684814, 0.278076171875, 0.308837890625, -0.8662109375
14, 2062145306, -5.398723602294922, -2.1539533138275146, 7.742562294006348, -0.29768356680870056, -0.5679360032081604, -1.7298816442489624, 0.275390625, 0.3076171875, -0.86572265625
15, 2062161973, -5.371891975402832, -2.1635208129882812, 7.763232707977295, -0.36732444167137146, -0.5012404918670654, -1.7280757427215576, 0.27734375, 0.308349609375, -0.86669921875
16, 2062178640, -5.413888931274414, -2.15482759475708, 7.75141716003418, -0.40744686126708984, -0.28086891770362854, -1.6230640411376953, 0.275390625, 0.310302734375, -0.86669921875
17, 2062195307, -5.424586296081543, -2.1328623294830322, 7.745756149291992, -0.36492976546287537, -0.34901145100593567, -1.56228506565094, 0.27685546875, 0.3076171875, -0.864501953125
18, 2062211974, -5.4108076095581055, -2.150501251220703, 7.753664493560791, -0.3978292942047119, -0.3892234265804291, -1.6134464740753174, 0.279052734375, 0.307861328125, -0.865478515625
19, 2062228641, -5.395906925201416, -2.156937837600708, 7.749708652496338, -0.36500659584999084, -0.4000319242477417, -1.6058393716812134, 0.280517578125, 0.308837890625, -0.865966796875
20, 2062245308, -5.399456977844238, -2.153196334838867, 7.740652084350586, -0.4286285638809204, -0.35510727763175964, -1.563527226448059, 0.278076171875, 0.308349609375, -0.864501953125
21, 2062261975, -5.397644996643066, -2.14766001701355, 7.762584209442139, -0.4184859097003937, -0.2590468227863312, -1.4624722003936768, 0.278564453125, 0.309326171875, -0.86572265625
22, 2062278642, -5.421597957611084, -2.1398420333862305, 7.768913269042969, -0.4308696687221527, -0.22870859503746033, -1.339223861694336, 0.278076171875, 0.308837890625, -0.86767578125
23, 2062295309, -5.420340061187744, -2.156454086303711, 7.721914768218994, -0.4453536570072174, -0.17773932218551636, -1.349545955657959, 0.280517578125, 0.308837890625, -0.864990234375
24, 2062311976, -5.426229000091553, -2.130246877670288, 7.746748924255371, -0.36206114292144775, -0.356375128030777, -1.4530085325241089, 0.279052734375, 0.30615234375, -0.864501953125
25, 2062328643, -5.385561466217041, -2.1547439098358154, 7.785576343536377, -0.25699782371520996, -0.39624127745628357, -1.436232089996338, 0.280517578125, 0.308837890625, -0.865966796875
26, 2062345310, -5.427417755126953, -2.148603916168213, 7.764863014221191, -0.33194059133529663, -0.13271218538284302, -1.5009808540344238, 0.278564453125, 0.308349609375, -0.8671875
27, 2062361977, -5.427160739898682, -2.1447322368621826, 7.736189365386963, -0.31809693574905396, -0.2828666567802429, -1.4569655656814575, 0.280517578125, 0.308837890625, -0.864990234375
28, 2062378644, -5.441375732421875, -2.1379098892211914, 7.7573370933532715, -0.30157670378685, -0.394038587808609, -1.5903053283691406, 0.2783203125, 0.311279296875, -0.8662109375
29, 2062395311, -5.412935256958008, -2.1390719413757324, 7.747961521148682, -0.3376266360282898, -0.3389585018157959, -1.6112949848175049, 0.278564453125, 0.3076171875, -0.8662109375
30, 2062411978, -5.422338962554932, -2.13980770111084, 7.712881088256836, -0.266013503074646, -0.4631032645702362, -1.480068325996399, 0.281005859375, 0.309326171875, -0.865966796875
31, 2062428645, -5.412982940673828, -2.148669481277466, 7.7563934326171875, -0.35062503814697266, -0.48691022396087646, -1.4853060245513916, 0.279541015625, 0.309326171875, -0.865478515625
32, 2062445312, -5.435927391052246, -2.1396701335906982, 7.7428669929504395, -0.34970298409461975, -0.37135857343673706, -1.4766875505447388, 0.2783203125, 0.308837890625, -0.864501953125
33, 2062461979, -5.409595966339111, -2.1442172527313232, 7.763729572296143, -0.4228144586086273, -0.36715805530548096, -1.5315241813659668, 0.27734375, 0.308837890625, -0.8662109375
34, 2062478646, -5.413623809814453, -2.1349997520446777, 7.734123229980469, -0.45232027769088745, -0.26728132367134094, -1.591893196105957, 0.280029296875, 0.311279296875, -0.86669921875
35, 2062495313, -5.432583332061768, -2.119813919067383, 7.724857330322266, -0.48259443044662476, -0.3216058313846588, -1.661828637123108, 0.281005859375, 0.307861328125, -0.865478515625
36, 2062511980, -5.426303386688232, -2.163389205932617, 7.7375712394714355, -0.49112358689308167, -0.47200363874435425, -1.6153931617736816, 0.280029296875, 0.307861328125, -0.86669921875
37, 2062528647, -5.414474964141846, -2.15751051902771, 7.756467819213867, -0.38337090611457825, -0.6223245859146118, -1.6552976369857788, 0.279541015625, 0.307861328125, -0.864013671875
38, 2062545314, -5.406558036804199, -2.141768455505371, 7.761939525604248, -0.16388286650180817, -0.6506265997886658, -1.5307430028915405, 0.281494140625, 0.308837890625, -0.866943359375
39, 2062561981, -5.421142101287842, -2.145578384399414, 7.750685691833496, -0.24142533540725708, -0.5143671035766602, -1.619452714920044, 0.278564453125, 0.309814453125, -0.865234375
40, 2062578648, -5.398545742034912, -2.155834436416626, 7.76151704788208, -0.4075877368450165, -0.49011191725730896, -1.6061468124389648, 0.279541015625, 0.308349609375, -0.864990234375
41, 2062595315, -5.43046236038208, -2.1274075508117676, 7.745213508605957, -0.3922713100910187, -0.45467668771743774, -1.6639419794082642, 0.281005859375, 0.30712890625, -0.865478515625
42, 2062611982, -5.439191818237305, -2.152705430984497, 7.7411208152771, -0.4100593626499176, -0.4834653437137604, -1.6301716566085815, 0.279541015625, 0.310302734375, -0.864013671875
43, 2062628649, -5.431783676147461, -2.144333839416504, 7.7273054122924805, -0.40059536695480347, -0.6530725955963135, -1.6694483757019043, 0.281494140625, 0.310302734375, -0.86669921875
44, 2062645316, -5.394556045532227, -2.1578848361968994, 7.739765644073486, -0.21571016311645508, -0.7222269773483276, -1.632886528968811, 0.279052734375, 0.311279296875, -0.865234375
45, 2062661983, -5.407210826873779, -2.136995315551758, 7.73390531539917, -0.364635169506073, -0.5505321621894836, -1.5686368942260742, 0.27685546875, 0.30810546875, -0.86572265625
46, 2062678650, -5.425375938415527, -2.1417975425720215, 7.732511520385742, -0.3249611556529999, -0.4014534652233124, -1.599526047706604, 0.281494140625, 0.310302734375, -0.863037109375
47, 2062695317, -5.4430155754089355, -2.1490225791931152, 7.739684104919434, -0.37174272537231445, -0.45352408289909363, -1.6138434410095215, 0.281982421875, 0.308837890625, -0.86181640625
48, 2062711984, -5.420434951782227, -2.151846408843994, 7.777536869049072, -0.21937280893325806, -0.4652547240257263, -1.6089770793914795, 0.279541015625, 0.30712890625, -0.863037109375
49, 2062728651, -5.436927795410156, -2.121143341064453, 7.719971179962158, -0.415245920419693, -0.4416525959968567, -1.6329761743545532, 0.280029296875, 0.310302734375, -0.864501953125
50, 2062745318, -5.3983306884765625, -2.147524356842041, 7.754277229309082, -0.3959595859050751, -0.3210808336734772, -1.6140997409820557, 0.280517578125, 0.307861328125, -0.864013671875
51, 2062761985, -5.436076641082764, -2.1525473594665527, 7.750918388366699, -0.4512701630592346, -0.31515148282051086, -1.5564069747924805, 0.279052734375, 0.306640625, -0.863037109375
52, 2062778652, -5.457760334014893, -2.1294777393341064, 7.725352764129639, -0.6657891869544983, -0.28062549233436584, -1.7754592895507812, 0.281005859375, 0.307861328125, -0.864501953125
53, 2062795319, -5.4601335525512695, -2.143779993057251, 7.733335494995117, -0.5926905870437622, -0.5067983865737915, -1.7903785705566406, 0.280517578125, 0.30712890625, -0.865966796875
54, 2062811986, -5.428011894226074, -2.1416568756103516, 7.740672588348389, -0.37805622816085815, -0.7302692532539368, -1.8516443967819214, 0.280517578125, 0.308837890625, -0.866455078125
55, 2062828653, -5.439621925354004, -2.162442922592163, 7.7394490242004395, -0.266183078289032, -0.7382917404174805, -1.6559088230133057, 0.27734375, 0.310302734375, -0.863037109375
56, 2062845320, -5.422989845275879, -2.1367125511169434, 7.747722625732422, -0.18423213064670563, -0.9639723300933838, -1.6217576265335083, 0.279541015625, 0.309326171875, -0.86669921875
57, 2062861987, -5.425801753997803, -2.1256370544433594, 7.755860805511475, -0.2019561380147934, -0.8576028943061829, -1.5918933153152466, 0.279052734375, 0.308837890625, -0.864013671875
58, 2062878654, -5.436429023742676, -2.116328716278076, 7.753198623657227, -0.2504153549671173, -0.7772557139396667, -1.6655040979385376, 0.280517578125, 0.308837890625, -0.863037109375
59, 2062895321, -5.433858871459961, -2.1403727531433105, 7.742498874664307, -0.38885197043418884, -0.7548830509185791, -1.6701784133911133, 0.279541015625, 0.309814453125, -0.864501953125
60, 2062911988, -5.417055130004883, -2.1486308574676514, 7.753533363342285, -0.3332212567329407, -0.5608285069465637, -1.686506748199463, 0.282958984375, 0.309326171875, -0.864013671875
61, 2062928655, -5.42475700378418, -2.144604444503784, 7.761932373046875, -0.394012987613678, -0.4571995139122009, -1.5999871492385864, 0.280029296875, 0.309814453125, -0.86669921875
62, 2062945322, -5.450250625610352, -2.1310598850250244, 7.753376007080078, -0.48442578315734863, -0.5034559965133667, -1.7946945428848267, 0.279541015625, 0.310791015625, -0.865478515625
63, 2062961989, -5.422489166259766, -2.1385257244110107, 7.751880168914795, -0.48331162333488464, -0.6443770527839661, -1.7592594623565674, 0.279541015625, 0.308837890625, -0.865478515625
64, 2062978656, -5.444646835327148, -2.1387033462524414, 7.698514461517334, -0.45252516865730286, -0.7287580966949463, -1.743776559829712, 0.280517578125, 0.30712890625, -0.864990234375
65, 2062995323, -5.428727626800537, -2.1523118019104004, 7.722758769989014, -0.25738200545310974, -0.9105699062347412, -1.7603479623794556, 0.281982421875, 0.310791015625, -0.865966796875
66, 2063011990, -5.4147629737854, -2.1484787464141846, 7.737914085388184, -0.21687552332878113, -0.9728342890739441, -1.725143313407898, 0.282470703125, 0.308837890625, -0.864501953125
67, 2063028657, -5.422393321990967, -2.127800226211548, 7.755824089050293, -0.2325505018234253, -0.9485535025596619, -1.602637767791748, 0.281982421875, 0.309814453125, -0.865966796875
68, 2063045324, -5.411151885986328, -2.1443581581115723, 7.776718616485596, -0.27117443084716797, -0.7593780755996704, -1.644898533821106, 0.27783203125, 0.308837890625, -0.865234375
69, 2063061991, -5.433742046356201, -2.133612632751465, 7.751455783843994, -0.33000683784484863, -0.7272982597351074, -1.7403444051742554, 0.280029296875, 0.308349609375, -0.86669921875
70, 2063078658, -5.435128688812256, -2.1427860260009766, 7.734002590179443, -0.32798337936401367, -0.7294111847877502, -1.7608728408813477, 0.280029296875, 0.308349609375, -0.8662109375
71, 2063095325, -5.448379993438721, -2.155704975128174, 7.7516279220581055, -0.3274711072444916, -0.6654818058013916, -1.7620893716812134, 0.278564453125, 0.306640625, -0.863037109375
72, 2063111992, -5.41292142868042, -2.1509268283843994, 7.736810684204102, -0.3254605829715729, -0.5806015729904175, -1.6958682537078857, 0.27734375, 0.307861328125, -0.864501953125
73, 2063128659, -5.434700965881348, -2.1279423236846924, 7.742962837219238, -0.31330734491348267, -0.7040034532546997, -1.6648894548416138, 0.281005859375, 0.308349609375, -0.864013671875
74, 2063145326, -5.430689811706543, -2.154057741165161, 7.721152305603027, -0.29102426767349243, -0.6563509702682495, -1.6906301975250244, 0.281982421875, 0.307861328125, -0.864501953125
75, 2063161993, -5.454714298248291, -2.1302430629730225, 7.728851318359375, -0.3344506323337555, -0.7656148076057434, -1.6717536449432373, 0.280517578125, 0.309326171875, -0.864990234375
76, 2063178660, -5.4190568923950195, -2.153700590133667, 7.745907306671143, -0.24064411222934723, -0.9332242608070374, -1.692038893699646, 0.27880859375, 0.310302734375, -0.864013671875
77, 2063195327, -5.397311210632324, -2.137924909591675, 7.75120735168457, -0.16979941725730896, -0.8468199372291565, -1.59905207157135, 0.280517578125, 0.307861328125, -0.865966796875
78, 2063211994, -5.407288551330566, -2.1351494789123535, 7.767895221710205, -0.4017607569694519, -0.7482237219810486, -1.6292747259140015, 0.281005859375, 0.307861328125, -0.864501953125
79, 2063228661, -5.417821884155273, -2.144986629486084, 7.77017068862915, -0.3079543113708496, -0.6509979963302612, -1.55699622631073, 0.279052734375, 0.309814453125, -0.863525390625
80, 2063245328, -5.437832355499268, -2.1457111835479736, 7.753667831420898, -0.29503270983695984, -0.6117081046104431, -1.6020488739013672, 0.279052734375, 0.309814453125, -0.864990234375
81, 2063261995, -5.424411296844482, -2.1409521102905273, 7.758130073547363, -0.46885332465171814, -0.5609949827194214, -1.6248568296432495, 0.279052734375, 0.309326171875, -0.8662109375
82, 2063278662, -5.412336349487305, -2.1565756797790527, 7.736179351806641, -0.28860390186309814, -0.5130096673965454, -1.6242806911468506, 0.280517578125, 0.307861328125, -0.864013671875
83, 2063295329, -5.422257900238037, -2.1458404064178467, 7.749293804168701, -0.34766680002212524, -0.352072149515152, -1.51125168800354, 0.279052734375, 0.309814453125, -0.864013671875
84, 2063311996, -5.439643859863281, -2.1292974948883057, 7.750757694244385, -0.37703174352645874, -0.3902606964111328, -1.5812255144119263, 0.281005859375, 0.307373046875, -0.864990234375
85, 2063328663, -5.44749641418457, -2.1361119747161865, 7.746356964111328, -0.4869614243507385, -0.45270445942878723, -1.7077651023864746, 0.279541015625, 0.308349609375, -0.863525390625
86, 2063345330, -5.440859794616699, -2.132296085357666, 7.754047393798828, -0.3705516755580902, -0.7287836074829102, -1.7968202829360962, 0.281005859375, 0.308349609375, -0.864013671875
87, 2063361997, -5.4223785400390625, -2.1621792316436768, 7.734771728515625, -0.29031991958618164, -0.7545884251594543, -1.699018120765686, 0.279541015625, 0.3056640625, -0.866455078125
88, 2063378664, -5.423825740814209, -2.148263692855835, 7.715202331542969, -0.1595287173986435, -0.8089516162872314, -1.6157644987106323, 0.278564453125, 0.308837890625, -0.864990234375
89, 2063395331, -5.420586109161377, -2.127737283706665, 7.7557220458984375, -0.1168835461139679, -0.7254284620285034, -1.6734569072723389, 0.279541015625, 0.30712890625, -0.864501953125
90, 2063411998, -5.432841777801514, -2.125380516052246, 7.771027088165283, -0.2796778678894043, -0.771736204624176, -1.6197597980499268, 0.279541015625, 0.30712890625, -0.86669921875
91, 2063428665, -5.42546272277832, -2.13542103767395, 7.755610942840576, -0.23322921991348267, -0.67812180519104, -1.7078676223754883, 0.280517578125, 0.30517578125, -0.8623046875
92, 2063445332, -5.4211273193359375, -2.1446588039398193, 7.777282238006592, -0.40068498253822327, -0.5478939414024353, -1.7284728288650513, 0.280517578125, 0.307861328125, -0.865966796875
93, 2063461999, -5.453441619873047, -2.12038516998291, 7.723137855529785, -0.25839370489120483, -0.6729224324226379, -1.8138271570205688, 0.279541015625, 0.308837890625, -0.864990234375
94, 2063478666, -5.373270511627197, -2.190086841583252, 7.747909069061279, -0.255730003118515, -0.7478395700454712, -1.680590033531189, 0.279541015625, 0.307861328125, -0.864013671875
95, 2063495333, -5.454492092132568, -2.0934622287750244, 7.771752834320068, -0.31388363242149353, -0.6042036414146423, -1.5556002855300903, 0.279052734375, 0.3076171875, -0.865966796875
96, 2063512000, -5.430581092834473, -2.13846755027771, 7.736260890960693, -0.24580508470535278, -0.6666601896286011, -1.6102321147918701, 0.278564453125, 0.306640625, -0.86669921875
97, 2063528667, -5.418793201446533, -2.1467483043670654, 7.756363391876221, -0.24315418303012848, -0.7186282873153687, -1.6552335023880005, 0.278076171875, 0.3076171875, -0.864990234375
98, 2063545334, -5.432209491729736, -2.1324613094329834, 7.751106262207031, -0.2673582136631012, -0.701992928981781, -1.6274566650390625, 0.279541015625, 0.3076171875, -0.8662109375
99, 2063562001, -5.426736831665039, -2.1203207969665527, 7.738888740539551, -0.15160158276557922, -0.8188765048980713, -1.571761965751648, 0.280517578125, 0.308349609375, -0.864501953125
100, 2063578668, -5.418300151824951, -2.1364097595214844, 7.74326229095459, -0.23710954189300537, -0.8445146083831787, -1.6134588718414307, 0.279541015625, 0.30712890625, -0.864013671875
101, 2063595335, -5.419064044952393, -2.137615442276001, 7.760372161865234, -0.12518209218978882, -0.7568809390068054, -1.5652433633804321, 0.280517578125, 0.30712890625, -0.864501953125
102, 2063612002, -5.433809280395508, -2.1264939308166504, 7.746109485626221, 3.649809514172375E-4, -0.7801499962806702, -1.475726842880249, 0.280517578125, 0.309814453125, -0.865478515625
103, 2063628669, -5.4347381591796875, -2.1213109493255615, 7.756612777709961, -0.12674444913864136, -0.8636218905448914, -1.5293471813201904, 0.282958984375, 0.306884765625, -0.86328125
104, 2063645336, -5.4196858406066895, -2.128208875656128, 7.764472484588623, -0.14846400916576385, -0.8000894784927368, -1.710825800895691, 0.280029296875, 0.307373046875, -0.864013671875
105, 2063662003, -5.414519786834717, -2.142874002456665, 7.7404866218566895, -0.2220492959022522, -0.8060059547424316, -1.7532148361206055, 0.279052734375, 0.306640625, -0.86669921875
106, 2063678670, -5.423856258392334, -2.1239542961120605, 7.76004695892334, -0.20362095534801483, -0.7903438806533813, -1.671856164932251, 0.278564453125, 0.3056640625, -0.864013671875
107, 2063695337, -5.407912731170654, -2.1318438053131104, 7.741429328918457, -0.27821794152259827, -0.8996203541755676, -1.6852515935897827, 0.279541015625, 0.3076171875, -0.86669921875
108, 2063712004, -5.435642719268799, -2.1000773906707764, 7.76194429397583, -0.41497692465782166, -0.7394769787788391, -1.7568261623382568, 0.278076171875, 0.30712890625, -0.865478515625
109, 2063728671, -5.4309258460998535, -2.1262617111206055, 7.771236419677734, -0.5186315178871155, -0.6126173138618469, -1.7886883020401, 0.279052734375, 0.30615234375, -0.86669921875
110, 2063745338, -5.403553009033203, -2.1448886394500732, 7.772443771362305, -0.46609991788864136, -0.5746849179267883, -1.8263646364212036, 0.277587890625, 0.3076171875, -0.86572265625
111, 2063762005, -5.399878025054932, -2.141515016555786, 7.756154537200928, -0.4756661653518677, -0.5415164232254028, -1.7104413509368896, 0.281005859375, 0.307861328125, -0.8671875
112, 2063778672, -5.427183628082275, -2.1257259845733643, 7.76724100112915, -0.420253187417984, -0.6994828581809998, -1.5418717861175537, 0.280517578125, 0.307861328125, -0.8671875
113, 2063795339, -5.421971321105957, -2.125871419906616, 7.7268853187561035, -0.1936064064502716, -0.8688596487045288, -1.5330866575241089, 0.281494140625, 0.3056640625, -0.866943359375
114, 2063812006, -5.422531604766846, -2.132307767868042, 7.768248558044434, -0.271994024515152, -0.8433364629745483, -1.6375221014022827, 0.278564453125, 0.30712890625, -0.86669921875
115, 2063828673, -5.4168291091918945, -2.124631404876709, 7.752082347869873, -0.28555595874786377, -0.8189916610717773, -1.6554639339447021, 0.279541015625, 0.30712890625, -0.8671875
116, 2063845340, -5.418748378753662, -2.1272244453430176, 7.758130073547363, -0.28747692704200745, -0.8958808183670044, -1.7328015565872192, 0.277587890625, 0.308349609375, -0.86669921875
117, 2063862007, -5.413771629333496, -2.1180145740509033, 7.780370712280273, -0.41711559891700745, -0.6654435396194458, -1.7784048318862915, 0.279541015625, 0.307861328125, -0.862060546875
118, 2063878674, -5.41434907913208, -2.131326675415039, 7.773818016052246, -0.46116942167282104, -0.43783625960350037, -1.772373080253601, 0.280029296875, 0.308837890625, -0.865478515625
119, 2063895341, -5.419270038604736, -2.1219475269317627, 7.7166056632995605, -0.5108004212379456, -0.5410106182098389, -1.7922674417495728, 0.280517578125, 0.307861328125, -0.866455078125
120, 2063912008, -5.4244818687438965, -2.1401336193084717, 7.753357887268066, -0.45394665002822876, -0.6004000306129456, -1.6901179552078247, 0.279541015625, 0.3076171875, -0.865966796875
121, 2063928675, -5.415432453155518, -2.125135660171509, 7.750905513763428, -0.41089171171188354, -0.6290095448493958, -1.7921075820922852, 0.279541015625, 0.308837890625, -0.865478515625
122, 2063945342, -5.4282307624816895, -2.1165432929992676, 7.74929666519165, -0.39662545919418335, -0.7076532244682312, -1.7904428243637085, 0.280029296875, 0.308837890625, -0.864990234375
123, 2063962009, -5.42812967300415, -2.1496565341949463, 7.736875534057617, -0.33480918407440186, -0.7920855283737183, -1.809934139251709, 0.280029296875, 0.308837890625, -0.865966796875
124, 2063978676, -5.412013530731201, -2.132246971130371, 7.750986099243164, -0.23034781217575073, -0.9478875994682312, -1.6958552598953247, 0.282470703125, 0.307373046875, -0.865478515625
125, 2063995343, -5.405091762542725, -2.143793821334839, 7.756048202514648, -0.11551325768232346, -1.0479947328567505, -1.5899592638015747, 0.278564453125, 0.308349609375, -0.864013671875
126, 2064012010, -5.4083452224731445, -2.1209053993225098, 7.777832984924316, -0.24304062128067017, -0.9533104300498962, -1.6163092851638794, 0.278564453125, 0.309326171875, -0.8671875
127, 2064028677, -5.417036533355713, -2.1144464015960693, 7.773348808288574, -0.3598584234714508, -0.702402651309967, -1.749065637588501, 0.277587890625, 0.30712890625, -0.8671875
128, 2064045344, -5.397856712341309, -2.135472059249878, 7.7656989097595215, -0.42893585562705994, -0.6115671992301941, -1.7886755466461182, 0.278076171875, 0.307861328125, -0.86669921875
129, 2064062011, -5.4088335037231445, -2.139345169067383, 7.768637180328369, -0.43802836537361145, -0.5868509411811829, -1.6881970167160034, 0.281494140625, 0.30712890625, -0.865966796875
130, 2064078678, -5.416714668273926, -2.149437189102173, 7.751331329345703, -0.36235564947128296, -0.6384861469268799, -1.7703368663787842, 0.27734375, 0.30712890625, -0.864013671875
131, 2064095345, -5.423043251037598, -2.1299922466278076, 7.74582576751709, -0.33603861927986145, -0.6534824371337891, -1.7811070680618286, 0.27734375, 0.310791015625, -0.8662109375
132, 2064112012, -5.416553020477295, -2.1312386989593506, 7.757894515991211, -0.26594945788383484, -0.7930203676223755, -1.7332754135131836, 0.280517578125, 0.310302734375, -0.862548828125
133, 2064128679, -5.433243751525879, -2.1360220909118652, 7.757198333740234, -0.33509090542793274, -0.9408823847770691, -1.7294973134994507, 0.279541015625, 0.30712890625, -0.864990234375
134, 2064145346, -5.414073944091797, -2.1256208419799805, 7.734954357147217, -0.3060077130794525, -1.0541290044784546, -1.7246309518814087, 0.278564453125, 0.3076171875, -0.864990234375
135, 2064162013, -5.403707027435303, -2.153052568435669, 7.74660587310791, -0.28162437677383423, -0.9820419549942017, -1.760603904724121, 0.281494140625, 0.308837890625, -0.866943359375
136, 2064178680, -5.423408508300781, -2.1296093463897705, 7.775285243988037, -0.2405032366514206, -0.9049606919288635, -1.7492576837539673, 0.278564453125, 0.307861328125, -0.865478515625
137, 2064195347, -5.419778347015381, -2.110245943069458, 7.753712177276611, -0.2645663321018219, -0.9240292906761169, -1.8214212656021118, 0.279541015625, 0.309326171875, -0.86572265625
138, 2064212014, -5.409971237182617, -2.129486322402954, 7.749194145202637, -0.3506634831428528, -0.8857767581939697, -1.877090573310852, 0.278564453125, 0.30712890625, -0.8671875
139, 2064228681, -5.410004615783691, -2.1492929458618164, 7.7545084953308105, -0.2542572617530823, -0.9984598159790039, -1.8065404891967773, 0.27783203125, 0.309326171875, -0.8671875
140, 2064245348, -5.387945652008057, -2.1426968574523926, 7.777853488922119, -0.3272790014743805, -0.8237171173095703, -1.735541820526123, 0.278076171875, 0.30615234375, -0.86572265625
141, 2064262015, -5.421236991882324, -2.120859384536743, 7.765382289886475, -0.2809200882911682, -0.596109926700592, -1.713361382484436, 0.279052734375, 0.30615234375, -0.865966796875
142, 2064278682, -5.401963710784912, -2.12142276763916, 7.7860212326049805, -0.4021449685096741, -0.7152089476585388, -1.7484380006790161, 0.279052734375, 0.30712890625, -0.8662109375
143, 2064295349, -5.388198375701904, -2.149343967437744, 7.778680324554443, -0.43679895997047424, -0.5526067614555359, -1.6832408905029297, 0.278076171875, 0.30712890625, -0.8662109375
144, 2064312016, -5.420135974884033, -2.123061180114746, 7.754856586456299, -0.5180296301841736, -0.5182089805603027, -1.7557249069213867, 0.279052734375, 0.309814453125, -0.86572265625
145, 2064328683, -5.431885242462158, -2.122130870819092, 7.7347002029418945, -0.46871238946914673, -0.59605872631073, -1.832166075706482, 0.278076171875, 0.308837890625, -0.86572265625
146, 2064345350, -5.414715766906738, -2.1344170570373535, 7.732494831085205, -0.5225502848625183, -0.7321262955665588, -1.8932908773422241, 0.2763671875, 0.3076171875, -0.869384765625
147, 2064362017, -5.399752616882324, -2.1607208251953125, 7.7647528648376465, -0.3456817865371704, -0.7036961317062378, -1.7739866971969604, 0.279541015625, 0.308349609375, -0.8662109375
148, 2064378684, -5.420717716217041, -2.145761013031006, 7.735899448394775, -0.32214367389678955, -0.858409583568573, -1.7641642093658447, 0.279052734375, 0.309814453125, -0.86865234375
149, 2064395351, -5.423514366149902, -2.1276912689208984, 7.784445762634277, -0.19995833933353424, -0.8620209693908691, -1.7037181854248047, 0.279052734375, 0.30615234375, -0.86767578125
150, 2064412018, -5.417850971221924, -2.124242067337036, 7.769060134887695, -0.3086329996585846, -0.8389951586723328, -1.708251714706421, 0.278564453125, 0.308349609375, -0.8662109375
151, 2064428685, -5.413238525390625, -2.1545989513397217, 7.763350486755371, -0.24872492253780365, -0.7210742235183716, -1.778814673423767, 0.278076171875, 0.307861328125, -0.864990234375
152, 2064445352, -5.419267177581787, -2.1465775966644287, 7.741291046142578, -0.24257785081863403, -0.8169426321983337, -1.732737421989441, 0.27685546875, 0.309326171875, -0.865234375
153, 2064462019, -5.3957648277282715, -2.1387181282043457, 7.7525553703308105, -0.1253613382577896, -0.8658115267753601, -1.6961750984191895, 0.278076171875, 0.3076171875, -0.865234375
154, 2064478686, -5.4144978523254395, -2.1252970695495605, 7.742227077484131, -0.2871055006980896, -0.8014469146728516, -1.6266624927520752, 0.278076171875, 0.3076171875, -0.86669921875
155, 2064495353, -5.4371562004089355, -2.113060712814331, 7.761244297027588, -0.19611643254756927, -0.886903703212738, -1.7232863903045654, 0.280517578125, 0.30712890625, -0.86865234375
156, 2064512020, -5.391970157623291, -2.1458168029785156, 7.776909351348877, -0.31585580110549927, -1.0148775577545166, -1.79817795753479, 0.280029296875, 0.306640625, -0.869140625
157, 2064528687, -5.4059157371521, -2.17379093170166, 7.751729488372803, -0.19740988314151764, -1.0174260139465332, -1.7604248523712158, 0.277587890625, 0.307861328125, -0.86572265625
158, 2064545354, -5.400337219238281, -2.1308188438415527, 7.761230945587158, -0.1471961885690689, -1.0656163692474365, -1.6325918436050415, 0.27685546875, 0.306640625, -0.865234375
159, 2064562021, -5.393974304199219, -2.147488594055176, 7.771698474884033, -0.1657397747039795, -1.062581181526184, -1.6714718341827393, 0.277587890625, 0.30712890625, -0.864501953125
160, 2064578688, -5.386300086975098, -2.1398000717163086, 7.7611165046691895, -0.1766507625579834, -0.9860888123512268, -1.6486380100250244, 0.27587890625, 0.30712890625, -0.865234375
161, 2064595355, -5.409420967102051, -2.123335361480713, 7.756077289581299, -0.28290504217147827, -0.8384060263633728, -1.650507926940918, 0.27734375, 0.309814453125, -0.870361328125
162, 2064612022, -5.3937177658081055, -2.13411545753479, 7.779635906219482, -0.3880195915699005, -0.9411129951477051, -1.672419548034668, 0.27685546875, 0.30712890625, -0.8662109375
163, 2064628689, -5.372485160827637, -2.137315273284912, 7.791401386260986, -0.3037666082382202, -0.8117048740386963, -1.6612141132354736, 0.278076171875, 0.30712890625, -0.8671875
164, 2064645356, -5.388394355773926, -2.1261253356933594, 7.768241882324219, -0.42592641711235046, -0.659437358379364, -1.6034318208694458, 0.278076171875, 0.3076171875, -0.86767578125
165, 2064662023, -5.401069641113281, -2.132199287414551, 7.766777038574219, -0.3721524775028229, -0.8560147285461426, -1.6787201166152954, 0.2763671875, 0.30615234375, -0.8671875
166, 2064678690, -5.403582572937012, -2.1344165802001953, 7.76865291595459, -0.3972785472869873, -0.7476602792739868, -1.7803899049758911, 0.278076171875, 0.3076171875, -0.865234375
167, 2064695357, -5.400753021240234, -2.125602960586548, 7.7417311668396, -0.48811396956443787, -0.7453807592391968, -1.8755539655685425, 0.279541015625, 0.30712890625, -0.8671875
168, 2064712024, -5.371189594268799, -2.1420912742614746, 7.759472846984863, -0.42007386684417725, -0.7800347208976746, -1.8701239824295044, 0.277587890625, 0.306640625, -0.8662109375
169, 2064728691, -5.391303062438965, -2.1416842937469482, 7.779171943664551, -0.390350341796875, -0.5964813232421875, -1.8762967586517334, 0.277587890625, 0.306640625, -0.86572265625
170, 2064745358, -5.403109073638916, -2.1441287994384766, 7.768723487854004, -0.42478659749031067, -0.5960459113121033, -1.7036926746368408, 0.277587890625, 0.30615234375, -0.8671875
171, 2064762025, -5.403144836425781, -2.1270499229431152, 7.764691352844238, -0.3746369481086731, -0.637090265750885, -1.815197467803955, 0.277587890625, 0.30615234375, -0.8671875
172, 2064778692, -5.393249988555908, -2.1416263580322266, 7.7693963050842285, -0.25240033864974976, -0.7707885503768921, -1.731981873512268, 0.27685546875, 0.309326171875, -0.86767578125
173, 2064795359, -5.390853404998779, -2.155670642852783, 7.7631425857543945, -0.27016276121139526, -0.7223677039146423, -1.7338773012161255, 0.278564453125, 0.308837890625, -0.8681640625
174, 2064812026, -5.410226821899414, -2.14570951461792, 7.754466533660889, -0.28056153655052185, -0.8084776997566223, -1.5841072797775269, 0.278076171875, 0.3076171875, -0.86572265625
175, 2064828693, -5.418030738830566, -2.138598680496216, 7.7504987716674805, -0.26292720437049866, -0.7759495973587036, -1.5960042476654053, 0.277587890625, 0.306640625, -0.86669921875
176, 2064845360, -5.40912389755249, -2.1339175701141357, 7.756505012512207, -0.3525844216346741, -0.9184457063674927, -1.6747119426727295, 0.277587890625, 0.3076171875, -0.8671875
177, 2064862027, -5.392467021942139, -2.1157164573669434, 7.771812915802002, -0.3396756052970886, -0.90232253074646, -1.754072904586792, 0.277587890625, 0.30712890625, -0.8681640625
178, 2064878694, -5.40045690536499, -2.123309850692749, 7.773449420928955, -0.3707438111305237, -0.8760951161384583, -1.8458046913146973, 0.27685546875, 0.3076171875, -0.86669921875
179, 2064895361, -5.3785529136657715, -2.120670795440674, 7.785331726074219, -0.5722390413284302, -0.7510156035423279, -1.957668423652649, 0.2763671875, 0.306640625, -0.86669921875
180, 2064912028, -5.393477439880371, -2.139235496520996, 7.767955780029297, -0.714530348777771, -0.559381365776062, -1.9552479982376099, 0.278076171875, 0.30615234375, -0.8671875
181, 2064928695, -5.3928914070129395, -2.1474316120147705, 7.774843692779541, -0.8156108260154724, -0.3598840534687042, -1.9496901035308838, 0.27685546875, 0.3076171875, -0.865234375
182, 2064945362, -5.39572286605835, -2.129328489303589, 7.747730731964111, -0.7621955871582031, -0.409150093793869, -1.917661428451538, 0.27734375, 0.3076171875, -0.865234375
183, 2064962029, -5.370498180389404, -2.1326253414154053, 7.775932788848877, -0.7513356804847717, -0.41356825828552246, -1.8903706073760986, 0.278076171875, 0.30712890625, -0.864990234375
184, 2064978696, -5.368493556976318, -2.150036334991455, 7.764780521392822, -0.7087032794952393, -0.32111918926239014, -1.8907291889190674, 0.27490234375, 0.3076171875, -0.86669921875
185, 2064995363, -5.363553047180176, -2.173861026763916, 7.763307094573975, -0.5705356597900391, -0.30249878764152527, -1.7927223443984985, 0.27734375, 0.309814453125, -0.8662109375
186, 2065012030, -5.407298564910889, -2.129202127456665, 7.774907112121582, -0.4615408182144165, -0.23810845613479614, -1.6852387189865112, 0.2783203125, 0.310791015625, -0.865234375
187, 2065028697, -5.413748264312744, -2.1440582275390625, 7.756383895874023, -0.5447180867195129, -0.2537578344345093, -1.674878478050232, 0.275390625, 0.3076171875, -0.86865234375
188, 2065045364, -5.417313575744629, -2.135972499847412, 7.754039764404297, -0.4682641625404358, -0.30379223823547363, -1.7432130575180054, 0.280029296875, 0.3076171875, -0.865966796875
189, 2065062031, -5.405698776245117, -2.1421215534210205, 7.746990203857422, -0.3633417785167694, -0.5555011034011841, -1.659997582435608, 0.277587890625, 0.306640625, -0.86669921875
190, 2065078698, -5.409143924713135, -2.1479310989379883, 7.750705242156982, -0.26566773653030396, -0.5845202803611755, -1.6523393392562866, 0.27783203125, 0.308349609375, -0.862060546875
191, 2065095365, -5.397785663604736, -2.1295599937438965, 7.770253658294678, -0.25370657444000244, -0.5234211087226868, -1.6047892570495605, 0.2783203125, 0.310302734375, -0.86669921875
192, 2065112032, -5.404362678527832, -2.1227383613586426, 7.757843017578125, -0.4842209219932556, -0.3804894983768463, -1.6622003316879272, 0.27685546875, 0.309326171875, -0.86474609375
193, 2065128699, -5.408413887023926, -2.15225887298584, 7.756276607513428, -0.4382205009460449, -0.35153433680534363, -1.7213528156280518, 0.27685546875, 0.308837890625, -0.8642578125
194, 2065145366, -5.392247200012207, -2.1670777797698975, 7.7577362060546875, -0.270815908908844, -0.5411450862884521, -1.6719716787338257, 0.277587890625, 0.3076171875, -0.86669921875
195, 2065162033, -5.39190673828125, -2.161362886428833, 7.75750207901001, -0.2242135852575302, -0.5739037990570068, -1.5378504991531372, 0.277587890625, 0.30810546875, -0.86865234375
196, 2065178700, -5.386186122894287, -2.122495174407959, 7.769757270812988, -0.2316284477710724, -0.4266691505908966, -1.4298033714294434, 0.27783203125, 0.307861328125, -0.864990234375
197, 2065195367, -5.411267280578613, -2.1381635665893555, 7.76956033706665, -0.30911970138549805, -0.39283478260040283, -1.4455039501190186, 0.279052734375, 0.307861328125, -0.86669921875
198, 2065212034, -5.427392959594727, -2.141526699066162, 7.763481140136719, -0.29594686627388, -0.28824982047080994, -1.5794249773025513, 0.277587890625, 0.3076171875, -0.86572265625
199, 2065228701, -5.401193618774414, -2.14667010307312, 7.761813640594482, -0.2876562476158142, -0.406255841255188, -1.5438312292099, 0.278564453125, 0.309326171875, -0.864013671875
200, 2065245368, -5.4246296882629395, -2.1443381309509277, 7.756536483764648, -0.2169523537158966, -0.4881523847579956, -1.4099406003952026, 0.2763671875, 0.306640625, -0.865234375
201, 2065262035, -5.434412002563477, -2.1227340698242188, 7.739350318908691, -0.17041409015655518, -0.7057578563690186, -1.5331504344940186, 0.280029296875, 0.3076171875, -0.866455078125
202, 2065278702, -5.39016580581665, -2.177745819091797, 7.770654678344727, -0.14129246771335602, -0.7337398529052734, -1.5321263074874878, 0.280029296875, 0.308837890625, -0.865966796875
203, 2065295369, -5.407220363616943, -2.1100046634674072, 7.760295391082764, -0.10378266125917435, -0.7305381894111633, -1.505373477935791, 0.278564453125, 0.3076171875, -0.864990234375
204, 2065312036, -5.418144226074219, -2.137721061706543, 7.751707553863525, -0.076914943754673, -0.748031735420227, -1.5776270627975464, 0.27734375, 0.3076171875, -0.86572265625
205, 2065328703, -5.392571449279785, -2.1435317993164062, 7.770909309387207, -0.2018665075302124, -0.6770973801612854, -1.5804957151412964, 0.278564453125, 0.308349609375, -0.8671875
206, 2065345370, -5.410331726074219, -2.1207621097564697, 7.766200065612793, -0.13853910565376282, -0.6724358797073364, -1.616686463356018, 0.279541015625, 0.30712890625, -0.863037109375
207, 2065362037, -5.407207489013672, -2.1525821685791016, 7.754767417907715, -0.20336484909057617, -0.6147304177284241, -1.6766202449798584, 0.277099609375, 0.3056640625, -0.8671875
208, 2065378704, -5.40277624130249, -2.1358230113983154, 7.748284816741943, -0.11014742404222488, -0.7399253249168396, -1.6470632553100586, 0.279052734375, 0.308349609375, -0.8662109375
209, 2065395371, -5.398395538330078, -2.1485755443573, 7.766609191894531, -0.09561220556497574, -0.7056810855865479, -1.650802493095398, 0.279052734375, 0.308837890625, -0.8662109375
210, 2065412038, -5.414863586425781, -2.116018295288086, 7.753964900970459, -0.15302307903766632, -0.6101841926574707, -1.5352510213851929, 0.277587890625, 0.3076171875, -0.86669921875
211, 2065428705, -5.428619384765625, -2.1146631240844727, 7.767377853393555, -0.20180247724056244, -0.6976131796836853, -1.6000382900238037, 0.279541015625, 0.30712890625, -0.86669921875
212, 2065445372, -5.418595314025879, -2.122706174850464, 7.766561031341553, -0.1476828157901764, -0.7366723418235779, -1.6818193197250366, 0.27734375, 0.3076171875, -0.8662109375
213, 2065462039, -5.42691707611084, -2.1186563968658447, 7.775751113891602, -0.25830405950546265, -0.7927386164665222, -1.793298602104187, 0.279541015625, 0.308349609375, -0.8662109375
214, 2065478706, -5.404664516448975, -2.1463847160339355, 7.741390228271484, -0.23588013648986816, -0.8947155475616455, -1.75706946849823, 0.27685546875, 0.308349609375, -0.8671875
215, 2065495373, -5.393025875091553, -2.1211583614349365, 7.786340236663818, -0.2652066648006439, -0.8406983017921448, -1.6900664567947388, 0.277099609375, 0.3076171875, -0.869140625
216, 2065512040, -5.4130940437316895, -2.134880304336548, 7.767541885375977, -0.21576136350631714, -0.8456160426139832, -1.6572439670562744, 0.278076171875, 0.306640625, -0.865478515625
217, 2065528707, -5.387892723083496, -2.1350951194763184, 7.76221227645874, -0.26146721839904785, -0.8450653553009033, -1.7173699140548706, 0.279052734375, 0.3046875, -0.865478515625
218, 2065545374, -5.403024196624756, -2.1276135444641113, 7.767913341522217, -0.17741915583610535, -0.6436343193054199, -1.7508455514907837, 0.280029296875, 0.30712890625, -0.866455078125
219, 2065562041, -5.408886432647705, -2.119631052017212, 7.7724151611328125, -0.20059865713119507, -0.6653538942337036, -1.715397596359253, 0.27587890625, 0.30810546875, -0.86767578125
220, 2065578708, -5.403425216674805, -2.1150412559509277, 7.7771735191345215, -0.31013140082359314, -0.6369878053665161, -1.8192059993743896, 0.279052734375, 0.3076171875, -0.865478515625
221, 2065595375, -5.417859077453613, -2.1267173290252686, 7.761723518371582, -0.39834150671958923, -0.7381067276000977, -1.656053066253662, 0.278076171875, 0.307861328125, -0.864990234375
222, 2065612042, -5.413858413696289, -2.126492500305176, 7.76011323928833, -0.2629527449607849, -0.8199393153190613, -1.6427855491638184, 0.277587890625, 0.306640625, -0.864501953125
223, 2065628709, -5.432069778442383, -2.119100570678711, 7.732175350189209, -0.21090775728225708, -0.9284858703613281, -1.6324509382247925, 0.27587890625, 0.30810546875, -0.865234375
224, 2065645376, -5.395420551300049, -2.136687755584717, 7.745400905609131, -0.2789991497993469, -0.9406519532203674, -1.6645565032958984, 0.277587890625, 0.306640625, -0.865234375
225, 2065662043, -5.393930912017822, -2.131427764892578, 7.7577714920043945, -0.3573996126651764, -0.939832329750061, -1.7133101224899292, 0.2763671875, 0.30810546875, -0.8671875
226, 2065678710, -5.416297435760498, -2.1216275691986084, 7.760005950927734, -0.40588441491127014, -0.9573002457618713, -1.6965082883834839, 0.277587890625, 0.3046875, -0.86767578125
227, 2065695377, -5.406839370727539, -2.110576868057251, 7.784153461456299, -0.3925530016422272, -0.9362850189208984, -1.7271538972854614, 0.276611328125, 0.3056640625, -0.8681640625
228, 2065712044, -5.392583847045898, -2.1160664558410645, 7.770331382751465, -0.35099637508392334, -0.8389438986778259, -1.7412408590316772, 0.279541015625, 0.30712890625, -0.8662109375
229, 2065728711, -5.392053604125977, -2.128878593444824, 7.748488903045654, -0.3669659495353699, -0.8839582204818726, -1.7543929815292358, 0.279052734375, 0.3056640625, -0.8671875
230, 2065745378, -5.400320529937744, -2.1287360191345215, 7.776674747467041, -0.38296106457710266, -0.8919749855995178, -1.732417345046997, 0.278564453125, 0.3076171875, -0.86767578125
231, 2065762045, -5.396581172943115, -2.121304512023926, 7.7605180740356445, -0.3087226450443268, -0.8674508333206177, -1.5843631029129028, 0.278076171875, 0.3037109375, -0.86669921875
232, 2065778712, -5.397650718688965, -2.1423847675323486, 7.776097297668457, -0.2894362807273865, -1.0599430799484253, -1.6847648620605469, 0.27587890625, 0.30615234375, -0.86572265625
233, 2065795379, -5.396872520446777, -2.1204044818878174, 7.784475326538086, -0.33318275213241577, -0.8257404565811157, -1.6742122173309326, 0.2763671875, 0.30712890625, -0.8681640625
234, 2065812046, -5.4068708419799805, -2.111159324645996, 7.753172874450684, -0.36449429392814636, -0.7769100069999695, -1.6889781951904297, 0.278564453125, 0.30517578125, -0.8662109375
235, 2065828713, -5.402258396148682, -2.128251075744629, 7.77910041809082, -0.30530333518981934, -0.9057546257972717, -1.7058182954788208, 0.2734375, 0.30517578125, -0.86572265625
236, 2065845380, -5.404692649841309, -2.1174378395080566, 7.795042514801025, -0.33013486862182617, -0.8552207946777344, -1.6220905780792236, 0.275390625, 0.30712890625, -0.8662109375
237, 2065862047, -5.395853042602539, -2.122288227081299, 7.768253326416016, -0.3600248694419861, -0.7671770453453064, -1.7237985134124756, 0.277587890625, 0.307861328125, -0.86572265625
238, 2065878714, -5.400914669036865, -2.120103359222412, 7.7703704833984375, -0.33062151074409485, -0.7440872192382812, -1.7532786130905151, 0.277587890625, 0.3056640625, -0.8681640625
239, 2065895381, -5.39589786529541, -2.1377906799316406, 7.767735958099365, -0.3831275403499603, -0.6919142603874207, -1.7679036855697632, 0.275390625, 0.30712890625, -0.865234375
240, 2065912048, -5.411155700683594, -2.1179096698760986, 7.751983165740967, -0.32931530475616455, -0.7163488268852234, -1.7240290641784668, 0.279052734375, 0.306640625, -0.865478515625
241, 2065928715, -5.393171310424805, -2.142439603805542, 7.762784957885742, -0.3363075256347656, -0.8011139631271362, -1.6852515935897827, 0.277099609375, 0.306640625, -0.86865234375
242, 2065945382, -5.400553226470947, -2.1216537952423096, 7.777501106262207, -0.22435443103313446, -0.8766714334487915, -1.6133183240890503, 0.2763671875, 0.30712890625, -0.8671875
243, 2065962049, -5.374419212341309, -2.126711845397949, 7.782711982727051, -0.3028061091899872, -0.7655764222145081, -1.611282229423523, 0.2763671875, 0.30712890625, -0.8662109375
244, 2065978716, -5.387522220611572, -2.1214218139648438, 7.767200946807861, -0.358513742685318, -0.6457473039627075, -1.60235595703125, 0.2763671875, 0.306640625, -0.864501953125
245, 2065995383, -5.397300720214844, -2.1287617683410645, 7.785697937011719, -0.3834092915058136, -0.7280793786048889, -1.7949891090393066, 0.279052734375, 0.30615234375, -0.86767578125
246, 2066012050, -5.397454738616943, -2.133424758911133, 7.7722954750061035, -0.4959258437156677, -0.6907871961593628, -1.79338800907135, 0.27490234375, 0.3076171875, -0.8671875
247, 2066028717, -5.40215539932251, -2.126330852508545, 7.789383888244629, -0.4657028913497925, -0.6685298681259155, -1.8845951557159424, 0.27587890625, 0.3076171875, -0.86572265625
248, 2066045384, -5.3927154541015625, -2.1402602195739746, 7.752941131591797, -0.359013170003891, -0.7847986817359924, -1.707355260848999, 0.27587890625, 0.3046875, -0.865234375
249, 2066062051, -5.402417182922363, -2.1380088329315186, 7.765601634979248, -0.33542388677597046, -0.7864251136779785, -1.7116966247558594, 0.27783203125, 0.306640625, -0.861083984375
250, 2066078718, -5.414926528930664, -2.122843027114868, 7.774594306945801, -0.35674646496772766, -0.8865066766738892, -1.7679804563522339, 0.27490234375, 0.30517578125, -0.86474609375
251, 2066095385, -5.380519866943359, -2.1121296882629395, 7.763741493225098, -0.3757895231246948, -0.8851748704910278, -1.7659187316894531, 0.27392578125, 0.30615234375, -0.8662109375
252, 2066112052, -5.387010097503662, -2.1253015995025635, 7.767114639282227, -0.31461358070373535, -0.9326480627059937, -1.7741276025772095, 0.276611328125, 0.3056640625, -0.86767578125
253, 2066128719, -5.403708457946777, -2.1270065307617188, 7.768026351928711, -0.3518160283565521, -0.9281401038169861, -1.804785966873169, 0.27490234375, 0.3056640625, -0.865234375
254, 2066145386, -5.373695373535156, -2.135464906692505, 7.789783477783203, -0.3085561692714691, -0.8858920335769653, -1.761936068534851, 0.277587890625, 0.30615234375, -0.86669921875
255, 2066162053, -5.383012771606445, -2.146486759185791, 7.790561199188232, -0.21696516871452332, -0.9430468082427979, -1.6472806930541992, 0.27490234375, 0.30615234375, -0.86572265625
256, 2066178720, -5.402351379394531, -2.122851610183716, 7.783512115478516, -0.24691921472549438, -0.7682657241821289, -1.6500595808029175, 0.277099609375, 0.3046875, -0.86669921875
257, 2066195387, -5.391183376312256, -2.118546724319458, 7.781630992889404, -0.29510948061943054, -0.6403046250343323, -1.7164478302001953, 0.277099609375, 0.30712890625, -0.8671875
258, 2066212054, -5.404565334320068, -2.1240344047546387, 7.77215051651001, -0.4008387327194214, -0.6984711289405823, -1.810215950012207, 0.277587890625, 0.30712890625, -0.86767578125
259, 2066228721, -5.391259670257568, -2.1383705139160156, 7.786201000213623, -0.349344402551651, -0.7070000767707825, -1.6760308742523193, 0.27587890625, 0.308349609375, -0.868896484375
260, 2066245388, -5.398468971252441, -2.124573230743408, 7.787354469299316, -0.3954728841781616, -0.7100992202758789, -1.647472858428955, 0.2763671875, 0.30712890625, -0.86669921875
261, 2066262055, -5.409515857696533, -2.097902774810791, 7.780274868011475, -0.38549673557281494, -0.6895706653594971, -1.6706522703170776, 0.27490234375, 0.306640625, -0.86767578125
262, 2066278722, -5.383136749267578, -2.1368236541748047, 7.7787981033325195, -0.39469167590141296, -0.8097838759422302, -1.6942031383514404, 0.2763671875, 0.306640625, -0.864501953125
263, 2066295389, -5.399331092834473, -2.1050994396209717, 7.787032127380371, -0.29563456773757935, -0.8719202876091003, -1.721531867980957, 0.2763671875, 0.30810546875, -0.86767578125
264, 2066312056, -5.389838695526123, -2.1302378177642822, 7.762506008148193, -0.2513502240180969, -0.9970126748085022, -1.7419707775115967, 0.27587890625, 0.30810546875, -0.86767578125
265, 2066328723, -5.364810943603516, -2.142033815383911, 7.755046367645264, -0.2050040364265442, -0.9970382452011108, -1.7414329051971436, 0.276611328125, 0.30615234375, -0.86669921875
266, 2066345390, -5.38081693649292, -2.129748582839966, 7.774969577789307, -0.2184763103723526, -0.7630919814109802, -1.60323965549469, 0.276611328125, 0.306640625, -0.86865234375
267, 2066362057, -5.387537479400635, -2.1421499252319336, 7.8035478591918945, -0.39315491914749146, -0.6858824491500854, -1.704473853111267, 0.2744140625, 0.306640625, -0.8671875
268, 2066378724, -5.386129379272461, -2.155411958694458, 7.7580671310424805, -0.3737148940563202, -0.6039603352546692, -1.6487535238265991, 0.2744140625, 0.3056640625, -0.870361328125
269, 2066395391, -5.399113655090332, -2.131950855255127, 7.8050737380981445, -0.3423393666744232, -0.6015527248382568, -1.6802700757980347, 0.27490234375, 0.30615234375, -0.868896484375
270, 2066412058, -5.384166717529297, -2.153486490249634, 7.760266304016113, -0.21722151339054108, -0.7349876165390015, -1.7204569578170776, 0.2763671875, 0.3076171875, -0.86669921875
271, 2066428725, -5.394931316375732, -2.121866226196289, 7.765161037445068, -0.15225470066070557, -0.7715185880661011, -1.5161182880401611, 0.27392578125, 0.308837890625, -0.870361328125
272, 2066445392, -5.390495300292969, -2.1388134956359863, 7.801675796508789, -0.17857173085212708, -0.7593780755996704, -1.5301154851913452, 0.27685546875, 0.306640625, -0.86669921875
273, 2066462059, -5.388922691345215, -2.145451307296753, 7.7730607986450195, -0.2386719435453415, -0.728911817073822, -1.474753737449646, 0.27490234375, 0.30517578125, -0.86767578125
274, 2066478726, -5.392605781555176, -2.1230735778808594, 7.764281272888184, -0.1670844703912735, -0.7226111888885498, -1.591355562210083, 0.275390625, 0.306640625, -0.86669921875
275, 2066495393, -5.392369747161865, -2.129504919052124, 7.789520740509033, -0.17242471873760223, -0.7626309990882874, -1.6220651865005493, 0.275390625, 0.3056640625, -0.868896484375
276, 2066512060, -5.386499404907227, -2.1288092136383057, 7.766692638397217, -0.11884291470050812, -0.6953720450401306, -1.454532504081726, 0.276123046875, 0.3046875, -0.8662109375
277, 2066528727, -5.39364767074585, -2.1018295288085938, 7.790389537811279, -0.21631206572055817, -0.6901983022689819, -1.5625669956207275, 0.27587890625, 0.3076171875, -0.8662109375
278, 2066545394, -5.392336368560791, -2.1223957538604736, 7.756976127624512, -0.28810444474220276, -0.7205749154090881, -1.6134849786758423, 0.276611328125, 0.3056640625, -0.86767578125
279, 2066562061, -5.390165328979492, -2.112534523010254, 7.770467281341553, -0.18416810035705566, -0.8088617324829102, -1.6739178895950317, 0.276123046875, 0.303466796875, -0.86572265625
280, 2066578728, -5.36968994140625, -2.1256675720214844, 7.814527988433838, -0.33635878562927246, -0.5606107711791992, -1.610962152481079, 0.27587890625, 0.30810546875, -0.870361328125
281, 2066595395, -5.3928728103637695, -2.1078944206237793, 7.791439056396484, -0.41725653409957886, -0.5591253042221069, -1.6425553560256958, 0.2724609375, 0.306640625, -0.8662109375
282, 2066612062, -5.392233848571777, -2.1139285564422607, 7.771080017089844, -0.40998244285583496, -0.6651362180709839, -1.6255996227264404, 0.276611328125, 0.3056640625, -0.86962890625
283, 2066628729, -5.3985676765441895, -2.1220202445983887, 7.7836408615112305, -0.420931875705719, -0.719896137714386, -1.612255334854126, 0.2744140625, 0.30615234375, -0.8681640625
284, 2066645396, -5.362490653991699, -2.1172995567321777, 7.77475643157959, -0.34153252840042114, -0.6662887930870056, -1.6266883611679077, 0.27392578125, 0.30517578125, -0.868408203125
285, 2066662063, -5.397651195526123, -2.1114299297332764, 7.7784223556518555, -0.4406280517578125, -0.6445179581642151, -1.6232686042785645, 0.275390625, 0.3056640625, -0.86865234375
286, 2066678730, -5.381593227386475, -2.129847764968872, 7.757925033569336, -0.31968486309051514, -0.7286556363105774, -1.6525057554244995, 0.275634765625, 0.3046875, -0.869873046875
287, 2066695397, -5.384364128112793, -2.1219534873962402, 7.79624080657959, -0.30338242650032043, -0.7330098152160645, -1.6737769842147827, 0.2744140625, 0.306640625, -0.8662109375
288, 2066712064, -5.392024993896484, -2.112173080444336, 7.784547805786133, -0.28075364232063293, -0.679940402507782, -1.6158028841018677, 0.2763671875, 0.30615234375, -0.8671875
289, 2066728731, -5.396302223205566, -2.124318838119507, 7.785402774810791, -0.2350093424320221, -0.6849092841148376, -1.6155468225479126, 0.276611328125, 0.30517578125, -0.8671875
290, 2066745398, -5.3789143562316895, -2.1289350986480713, 7.777111053466797, -0.1963597685098648, -0.7338422536849976, -1.6443737745285034, 0.2744140625, 0.3076171875, -0.86572265625
291, 2066762065, -5.380396366119385, -2.1046061515808105, 7.80371618270874, -0.2453056126832962, -0.6213768720626831, -1.6365106105804443, 0.277099609375, 0.30517578125, -0.864501953125
292, 2066778732, -5.360683917999268, -2.135385274887085, 7.78127908706665, -0.2459971308708191, -0.7165279388427734, -1.7311748266220093, 0.277099609375, 0.3046875, -0.8681640625
293, 2066795399, -5.397181510925293, -2.0832338333129883, 7.781030654907227, -0.27219897508621216, -0.5664504766464233, -1.5828906297683716, 0.271484375, 0.3076171875, -0.867919921875
294, 2066812066, -5.398216724395752, -2.12852144241333, 7.790160655975342, -0.2783716320991516, -0.49190473556518555, -1.652339220046997, 0.276611328125, 0.30615234375, -0.869873046875
295, 2066828733, -5.393490791320801, -2.131521463394165, 7.780827045440674, -0.2535529136657715, -0.5204756259918213, -1.5279254913330078, 0.275390625, 0.30517578125, -0.870361328125
296, 2066845400, -5.3858323097229, -2.1097679138183594, 7.798544883728027, -0.2865293025970459, -0.6009507775306702, -1.6061724424362183, 0.275634765625, 0.30419921875, -0.86962890625
297, 2066862067, -5.37722110748291, -2.1246492862701416, 7.765608310699463, -0.22226698696613312, -0.6512796878814697, -1.5494657754898071, 0.27490234375, 0.30517578125, -0.86767578125
298, 2066878734, -5.37748384475708, -2.1062350273132324, 7.802775859832764, -0.32288652658462524, -0.5675007104873657, -1.5615681409835815, 0.2744140625, 0.303466796875, -0.868896484375
299, 2066895401, -5.3818535804748535, -2.0989835262298584, 7.809000492095947, -0.3225535452365875, -0.49210962653160095, -1.6142404079437256, 0.2734375, 0.30712890625, -0.8671875
300, 2066912068, -5.404025554656982, -2.1139955520629883, 7.7571702003479, -0.27077746391296387, -0.5041476488113403, -1.6424145698547363, 0.27490234375, 0.30517578125, -0.86767578125
301, 2066928735, -5.389552116394043, -2.1226589679718018, 7.780272006988525, -0.3534552752971649, -0.522704005241394, -1.553960919380188, 0.27490234375, 0.30419921875, -0.8671875
302, 2066945402, -5.39358377456665, -2.1356067657470703, 7.773983478546143, -0.3029726445674896, -0.6060989499092102, -1.571441650390625, 0.2763671875, 0.306640625, -0.865234375
303, 2066962069, -5.363951206207275, -2.125145435333252, 7.790519714355469, -0.2970432639122009, -0.5857239961624146, -1.5390286445617676, 0.275390625, 0.30517578125, -0.8642578125
304, 2066978736, -5.384198188781738, -2.101903200149536, 7.7690043449401855, -0.33726802468299866, -0.5399413108825684, -1.595197319984436, 0.2734375, 0.30419921875, -0.8671875
305, 2066995403, -5.407862186431885, -2.091233968734741, 7.777529716491699, -0.41960006952285767, -0.5731865763664246, -1.6213608980178833, 0.2744140625, 0.30859375, -0.869384765625
306, 2067012070, -5.394611835479736, -2.105879783630371, 7.791696548461914, -0.37028276920318604, -0.6086345314979553, -1.6968284845352173, 0.27685546875, 0.30712890625, -0.865234375
307, 2067028737, -5.3808088302612305, -2.1182613372802734, 7.783405780792236, -0.39946845173835754, -0.5825223922729492, -1.7708748579025269, 0.276611328125, 0.30712890625, -0.86865234375
308, 2067045404, -5.399301052093506, -2.1092758178710938, 7.772502899169922, -0.23710957169532776, -0.7757703065872192, -1.6283785104751587, 0.276611328125, 0.30419921875, -0.86572265625
309, 2067062071, -5.396108627319336, -2.120445728302002, 7.755207061767578, -0.24871216714382172, -0.7449325919151306, -1.6289933919906616, 0.27490234375, 0.3056640625, -0.86767578125
310, 2067078738, -5.384340286254883, -2.1146209239959717, 7.783398151397705, -0.22815793752670288, -0.643173336982727, -1.6581919193267822, 0.275634765625, 0.3037109375, -0.86767578125
311, 2067095405, -5.3930463790893555, -2.1110117435455322, 7.761771202087402, -0.23575206100940704, -0.6416493058204651, -1.6548235416412354, 0.27490234375, 0.3046875, -0.868896484375
312, 2067112072, -5.365036964416504, -2.128056049346924, 7.757676124572754, -0.1919800043106079, -0.6929516792297363, -1.6034191846847534, 0.2744140625, 0.302490234375, -0.8662109375
313, 2067128739, -5.3797831535339355, -2.109417676925659, 7.802877902984619, -0.2251228243112564, -0.6086730360984802, -1.463023066520691, 0.27490234375, 0.30712890625, -0.8671875
314, 2067145406, -5.3997344970703125, -2.0932178497314453, 7.7910027503967285, -0.23676379024982452, -0.5290687680244446, -1.5960681438446045, 0.276123046875, 0.30517578125, -0.86767578125
315, 2067162073, -5.39442253112793, -2.1057941913604736, 7.777039527893066, -0.2754261791706085, -0.6651490926742554, -1.5884228944778442, 0.275390625, 0.30517578125, -0.86669921875
316, 2067178740, -5.370340824127197, -2.1290574073791504, 7.790555477142334, -0.14702971279621124, -0.6833340525627136, -1.5388880968093872, 0.278076171875, 0.3056640625, -0.8662109375
317, 2067195407, -5.379749298095703, -2.126610040664673, 7.80458927154541, -0.14911715686321259, -0.642981231212616, -1.6349483728408813, 0.275634765625, 0.3037109375, -0.8671875
318, 2067212074, -5.3814287185668945, -2.1316354274749756, 7.773438930511475, -0.17964747548103333, -0.5808704495429993, -1.5640138387680054, 0.2744140625, 0.302978515625, -0.86865234375
319, 2067228741, -5.383604049682617, -2.108851432800293, 7.773688793182373, -0.15082037448883057, -0.5358688831329346, -1.575449824333191, 0.277099609375, 0.3046875, -0.8662109375
320, 2067245408, -5.388387203216553, -2.1062510013580322, 7.797827243804932, -0.19601400196552277, -0.4233267307281494, -1.4901726245880127, 0.276123046875, 0.3046875, -0.86669921875
321, 2067262075, -5.404213905334473, -2.0848538875579834, 7.795385360717773, -0.24029836058616638, -0.41743576526641846, -1.5292831659317017, 0.27587890625, 0.30810546875, -0.868896484375
322, 2067278742, -5.401299476623535, -2.0803515911102295, 7.763323783874512, -0.21668343245983124, -0.5354975461959839, -1.4881234169006348, 0.276611328125, 0.3056640625, -0.8662109375
323, 2067295409, -5.386672496795654, -2.0921101570129395, 7.76365327835083, -0.1755366176366806, -0.6771100759506226, -1.5488638877868652, 0.275146484375, 0.303466796875, -0.86767578125
324, 2067312076, -5.382113933563232, -2.104924201965332, 7.774191856384277, -0.2035825550556183, -0.7625797986984253, -1.5875649452209473, 0.2763671875, 0.30419921875, -0.863525390625
325, 2067328743, -5.37549352645874, -2.109804153442383, 7.782277584075928, -0.16938960552215576, -0.7501319646835327, -1.5479035377502441, 0.276123046875, 0.30517578125, -0.86962890625
326, 2067345410, -5.394134044647217, -2.101487636566162, 7.77191686630249, -0.05825608968734741, -0.8364468216896057, -1.551246166229248, 0.277587890625, 0.30419921875, -0.869140625
327, 2067362077, -5.386983394622803, -2.097870349884033, 7.77642297744751, -0.03978933021426201, -0.682219922542572, -1.4407143592834473, 0.276611328125, 0.303466796875, -0.8681640625
328, 2067378744, -5.389967441558838, -2.0953454971313477, 7.803631782531738, -0.09484382718801498, -0.6080327033996582, -1.415152907371521, 0.275634765625, 0.302001953125, -0.86669921875
329, 2067395411, -5.394008636474609, -2.0871546268463135, 7.761605739593506, -0.2341000884771347, -0.5521585941314697, -1.506526231765747, 0.27587890625, 0.3037109375, -0.864501953125
330, 2067412078, -5.394521236419678, -2.08278489112854, 7.794955253601074, -0.40384817123413086, -0.5894505977630615, -1.6988259553909302, 0.277099609375, 0.3056640625, -0.8662109375
331, 2067428745, -5.398174285888672, -2.0990326404571533, 7.778809070587158, -0.4980773627758026, -0.5608156323432922, -1.7274997234344482, 0.276611328125, 0.3037109375, -0.86767578125
332, 2067445412, -5.393738746643066, -2.0930285453796387, 7.77517557144165, -0.4417422413825989, -0.6517024040222168, -1.603803277015686, 0.276123046875, 0.302978515625, -0.8701171875
333, 2067462079, -5.392747402191162, -2.096468210220337, 7.779326438903809, -0.4333668649196625, -0.6772509813308716, -1.7794678211212158, 0.2763671875, 0.30517578125, -0.8662109375
334, 2067478746, -5.388680934906006, -2.0948028564453125, 7.775396347045898, -0.4281162619590759, -0.65815669298172, -1.850069284439087, 0.277099609375, 0.30419921875, -0.865478515625
335, 2067495413, -5.3909783363342285, -2.1074018478393555, 7.785275459289551, -0.4374008774757385, -0.6642013192176819, -1.8858758211135864, 0.275634765625, 0.303466796875, -0.8681640625
336, 2067512080, -5.386429309844971, -2.101820468902588, 7.7834367752075195, -0.3390481472015381, -0.7840304374694824, -1.5678175687789917, 0.276611328125, 0.3056640625, -0.86572265625
337, 2067528747, -5.401190757751465, -2.07675838470459, 7.767608642578125, -0.3971121311187744, -0.6790951490402222, -1.6238068342208862, 0.27587890625, 0.30615234375, -0.8662109375
338, 2067545414, -5.383925914764404, -2.1025888919830322, 7.78300666809082, -0.4473001956939697, -0.6980229616165161, -1.6152650117874146, 0.27587890625, 0.3056640625, -0.869140625
339, 2067562081, -5.392152309417725, -2.0711140632629395, 7.773953914642334, -0.4496437907218933, -0.5424129962921143, -1.658409595489502, 0.276123046875, 0.3037109375, -0.869140625
340, 2067578748, -5.37776517868042, -2.1345338821411133, 7.749679088592529, -0.42467135190963745, -0.47494906187057495, -1.7495650053024292, 0.278076171875, 0.3056640625, -0.86572265625
341, 2067595415, -5.3928608894348145, -2.1180737018585205, 7.765381336212158, -0.33155643939971924, -0.3835501968860626, -1.6677839756011963, 0.276611328125, 0.3037109375, -0.86962890625
342, 2067612082, -5.379402160644531, -2.109666585922241, 7.788235187530518, -0.2848815619945526, -0.4422426223754883, -1.5586262941360474, 0.276611328125, 0.3046875, -0.86865234375
343, 2067628749, -5.406036376953125, -2.090214252471924, 7.786565780639648, -0.19589872658252716, -0.36084452271461487, -1.4701560735702515, 0.277099609375, 0.302001953125, -0.8701171875
344, 2067645416, -5.377987384796143, -2.1011292934417725, 7.780157566070557, -0.18925227224826813, -0.41479769349098206, -1.42389976978302, 0.274658203125, 0.301513671875, -0.8662109375
345, 2067662083, -5.386853218078613, -2.1250479221343994, 7.764250755310059, -0.11849715560674667, -0.3313642740249634, -1.4185209274291992, 0.278076171875, 0.3056640625, -0.8671875
346, 2067678750, -5.391998767852783, -2.0981533527374268, 7.78342342376709, -0.07276567816734314, -0.3233346939086914, -1.3481500148773193, 0.276611328125, 0.30419921875, -0.8671875
347, 2067695417, -5.402360439300537, -2.090217113494873, 7.767162799835205, -0.07635145634412766, -0.4215850234031677, -1.4332355260849, 0.277587890625, 0.3046875, -0.86767578125
348, 2067712084, -5.401620864868164, -2.0780136585235596, 7.773524284362793, -0.18868876993656158, -0.4086378514766693, -1.4340935945510864, 0.276611328125, 0.302490234375, -0.86865234375
349, 2067728751, -5.3989033699035645, -2.106546401977539, 7.78741979598999, -0.1069970652461052, -0.5780915021896362, -1.5933150053024292, 0.278076171875, 0.30419921875, -0.8662109375
350, 2067745418, -5.385948657989502, -2.113914966583252, 7.765830993652344, -0.11241415143013, -0.7282458543777466, -1.4887253046035767, 0.277587890625, 0.30419921875, -0.86767578125
351, 2067762085, -5.394197940826416, -2.1084952354431152, 7.808135986328125, -0.12361970543861389, -0.47752317786216736, -1.5063596963882446, 0.278564453125, 0.3046875, -0.86767578125
352, 2067778752, -5.407078742980957, -2.098173141479492, 7.790811538696289, -0.15864506363868713, -0.3716018497943878, -1.514978289604187, 0.278076171875, 0.3037109375, -0.8701171875
353, 2067795419, -5.410250663757324, -2.0833966732025146, 7.770018100738525, -0.3104899823665619, -0.5478940606117249, -1.6298513412475586, 0.276123046875, 0.302490234375, -0.86669921875
354, 2067812086, -5.421166896820068, -2.0880086421966553, 7.753587245941162, -0.3845362365245819, -0.6278312802314758, -1.68272864818573, 0.276123046875, 0.3037109375, -0.8662109375
355, 2067828753, -5.402835369110107, -2.0810322761535645, 7.765247344970703, -0.39383360743522644, -0.6566838622093201, -1.8452537059783936, 0.278564453125, 0.3037109375, -0.86669921875
356, 2067845420, -5.4039306640625, -2.097086191177368, 7.782524585723877, -0.27277520298957825, -0.8924871683120728, -1.7864729166030884, 0.279052734375, 0.302490234375, -0.869140625
357, 2067862087, -5.420986652374268, -2.0875608921051025, 7.790238857269287, -0.29767081141471863, -1.0128029584884644, -1.8720964193344116, 0.276611328125, 0.3056640625, -0.86767578125
358, 2067878754, -5.389378070831299, -2.095799207687378, 7.766887664794922, -0.27953702211380005, -1.1141653060913086, -1.799330711364746, 0.27685546875, 0.30615234375, -0.865234375
359, 2067895421, -5.3796281814575195, -2.0887064933776855, 7.7874274253845215, -0.2564087212085724, -1.064310073852539, -1.7819138765335083, 0.276123046875, 0.3056640625, -0.86767578125
360, 2067912088, -5.394848823547363, -2.099367380142212, 7.776647567749023, -0.23274259269237518, -0.9865882992744446, -1.6974047422409058, 0.276611328125, 0.3037109375, -0.8681640625
361, 2067928755, -5.387185573577881, -2.0934579372406006, 7.807076930999756, -0.2868238091468811, -0.9949381947517395, -1.82729971408844, 0.280517578125, 0.30419921875, -0.86767578125
362, 2067945422, -5.392334461212158, -2.0930280685424805, 7.799668788909912, -0.3281114995479584, -0.9816706776618958, -1.7912496328353882, 0.27392578125, 0.3046875, -0.8642578125
363, 2067962089, -5.3846354484558105, -2.097853183746338, 7.775290012359619, -0.42620816826820374, -0.8841504454612732, -1.8781665563583374, 0.277587890625, 0.3046875, -0.8681640625
364, 2067978756, -5.393017292022705, -2.096235990524292, 7.7844343185424805, -0.3064047396183014, -0.8512124419212341, -1.7247462272644043, 0.278564453125, 0.3037109375, -0.865966796875
365, 2067995423, -5.384183406829834, -2.0946710109710693, 7.771021366119385, -0.3737276792526245, -0.7823910713195801, -1.6380857229232788, 0.27587890625, 0.30419921875, -0.8662109375
366, 2068012090, -5.386694431304932, -2.088545083999634, 7.7806854248046875, -0.37042367458343506, -0.7703787684440613, -1.6166223287582397, 0.277099609375, 0.3037109375, -0.86572265625
367, 2068028757, -5.404318809509277, -2.091015100479126, 7.787189960479736, -0.42446643114089966, -0.6094669103622437, -1.7324429750442505, 0.278564453125, 0.30419921875, -0.87060546875
368, 2068045424, -5.431801795959473, -2.0854568481445312, 7.766207695007324, -0.582240641117096, -0.6212616562843323, -1.7798264026641846, 0.275146484375, 0.302490234375, -0.86669921875
369, 2068062091, -5.414068698883057, -2.108302593231201, 7.768620491027832, -0.516262412071228, -0.8960475325584412, -1.849787712097168, 0.276611328125, 0.302978515625, -0.8681640625
370, 2068078758, -5.396554946899414, -2.0934038162231445, 7.767504692077637, -0.4698777496814728, -1.0174132585525513, -1.5938653945922852, 0.275634765625, 0.3046875, -0.869384765625
371, 2068095425, -5.400158405303955, -2.0993034839630127, 7.798961639404297, -0.43069028854370117, -1.023777961730957, -1.7204687595367432, 0.2744140625, 0.302978515625, -0.86767578125
372, 2068112092, -5.387054443359375, -2.1048662662506104, 7.778568744659424, -0.387981116771698, -0.9240291714668274, -1.6683341264724731, 0.276611328125, 0.3056640625, -0.8662109375
373, 2068128759, -5.388477325439453, -2.0931427478790283, 7.776065826416016, -0.46964722871780396, -0.8840606808662415, -1.7360543012619019, 0.275634765625, 0.3046875, -0.869873046875
374, 2068145426, -5.363056659698486, -2.1156182289123535, 7.779411315917969, -0.3526100218296051, -0.8519423604011536, -1.706061840057373, 0.27294921875, 0.303466796875, -0.8671875
375, 2068162093, -5.366067409515381, -2.117553234100342, 7.830305099487305, -0.45219218730926514, -0.4847075343132019, -1.6023558378219604, 0.276123046875, 0.303466796875, -0.865234375
376, 2068178760, -5.391879081726074, -2.08290433883667, 7.794299602508545, -0.6309176683425903, -0.2675246596336365, -1.6220906972885132, 0.275634765625, 0.3046875, -0.8681640625
377, 2068195427, -5.398131370544434, -2.1135098934173584, 7.7685227394104, -0.5815746784210205, -0.29808056354522705, -1.7240161895751953, 0.277099609375, 0.3037109375, -0.8671875
378, 2068212094, -5.390641212463379, -2.1123247146606445, 7.768730163574219, -0.5229728817939758, -0.14202240109443665, -1.6401987075805664, 0.278076171875, 0.30419921875, -0.86767578125
379, 2068228761, -5.41294002532959, -2.1149258613586426, 7.783945560455322, -0.6030253767967224, -0.23746812343597412, -1.5426912307739258, 0.275634765625, 0.303466796875, -0.8681640625
380, 2068245428, -5.4125447273254395, -2.1095385551452637, 7.757290363311768, -0.5363683104515076, -0.3042532205581665, -1.5567398071289062, 0.27490234375, 0.30419921875, -0.86767578125
381, 2068262095, -5.417083263397217, -2.0978376865386963, 7.739777565002441, -0.4450463056564331, -0.4623092710971832, -1.643208384513855, 0.279052734375, 0.302978515625, -0.8671875
382, 2068278762, -5.3853631019592285, -2.1015636920928955, 7.759824275970459, -0.32848283648490906, -0.5903214812278748, -1.7095963954925537, 0.277587890625, 0.302978515625, -0.8671875
383, 2068295429, -5.394553184509277, -2.116065263748169, 7.7740888595581055, -0.26127514243125916, -0.5833932757377625, -1.647524118423462, 0.27587890625, 0.3056640625, -0.86572265625
384, 2068312096, -5.361863136291504, -2.0822598934173584, 7.8060407638549805, -0.1329171061515808, -0.40039050579071045, -1.595094919204712, 0.277099609375, 0.3037109375, -0.864990234375
385, 2068328763, -5.396928310394287, -2.1101744174957275, 7.803400039672852, -0.30339524149894714, -0.12299218028783798, -1.4881235361099243, 0.276611328125, 0.303466796875, -0.865478515625
386, 2068345430, -5.40541410446167, -2.076439142227173, 7.787297248840332, -0.3079158663749695, -0.20178966224193573, -1.4402661323547363, 0.278564453125, 0.3046875, -0.865478515625
387, 2068362097, -5.408029079437256, -2.0990912914276123, 7.769979000091553, -0.3338615596294403, -0.3086586594581604, -1.6279689073562622, 0.278076171875, 0.3046875, -0.864990234375
388, 2068378764, -5.378438472747803, -2.1051509380340576, 7.78471565246582, -0.16098862886428833, -0.40847134590148926, -1.5456368923187256, 0.278076171875, 0.30419921875, -0.8662109375
389, 2068395431, -5.389743328094482, -2.0969290733337402, 7.781871795654297, -0.12541258335113525, -0.34020066261291504, -1.5336627960205078, 0.279052734375, 0.30517578125, -0.86669921875
390, 2068412098, -5.41372537612915, -2.088097095489502, 7.7660369873046875, -0.1677888184785843, -0.3979957699775696, -1.5729657411575317, 0.279541015625, 0.3056640625, -0.86669921875
391, 2068428765, -5.4174394607543945, -2.0849852561950684, 7.77772331237793, -0.22359885275363922, -0.5330003499984741, -1.622129201889038, 0.27587890625, 0.30517578125, -0.86865234375
392, 2068445432, -5.412923336029053, -2.090604066848755, 7.741307735443115, -0.1790071427822113, -0.7119946479797363, -1.6706522703170776, 0.276611328125, 0.301513671875, -0.865966796875
393, 2068462099, -5.390897274017334, -2.092880964279175, 7.779003143310547, -0.1674814224243164, -0.6889175176620483, -1.5886660814285278, 0.279541015625, 0.302001953125, -0.86767578125
394, 2068478766, -5.37986946105957, -2.095099687576294, 7.800739288330078, -0.06302004307508469, -0.6559796333312988, -1.503273367881775, 0.278076171875, 0.30322265625, -0.86669921875
395, 2068495433, -5.398473739624023, -2.0940420627593994, 7.801167011260986, -0.05187852680683136, -0.4770493507385254, -1.5385165214538574, 0.277099609375, 0.302490234375, -0.8662109375
396, 2068512100, -5.392930030822754, -2.0758137702941895, 7.79804801940918, -0.1573772132396698, -0.22017955780029297, -1.6166993379592896, 0.277587890625, 0.301513671875, -0.86767578125
397, 2068528767, -5.414913654327393, -2.0832855701446533, 7.765763282775879, -0.30666086077690125, -0.3035745322704315, -1.5603001117706299, 0.276611328125, 0.3037109375, -0.86572265625
398, 2068545434, -5.396758079528809, -2.103410243988037, 7.780032634735107, -0.19615484774112701, -0.35386502742767334, -1.5094844102859497, 0.277099609375, 0.302978515625, -0.86767578125
399, 2068562101, -5.398457050323486, -2.108389377593994, 7.77631950378418, -0.19917714595794678, -0.225506991147995, -1.465968370437622, 0.275634765625, 0.302490234375, -0.86767578125
400, 2068578768, -5.430361270904541, -2.0749237537384033, 7.761990070343018, -0.18520542979240417, -0.2198081761598587, -1.4390878677368164, 0.278564453125, 0.3037109375, -0.865478515625
401, 2068595435, -5.416925430297852, -2.088474750518799, 7.771834373474121, -0.17882785201072693, -0.37814587354660034, -1.4551855325698853, 0.277587890625, 0.30517578125, -0.86865234375
402, 2068612102, -5.424858093261719, -2.0850460529327393, 7.765537738800049, -0.30248597264289856, -0.28769463300704956, -1.557982087135315, 0.27587890625, 0.3056640625, -0.8681640625
403, 2068628769, -5.417734622955322, -2.0873851776123047, 7.75447940826416, -0.4707101285457611, -0.2965053915977478, -1.6793862581253052, 0.279052734375, 0.30322265625, -0.87060546875
404, 2068645436, -5.410523414611816, -2.0840535163879395, 7.7611002922058105, -0.3372936546802521, -0.5505322217941284, -1.671446442604065, 0.278076171875, 0.302001953125, -0.86865234375
405, 2068662103, -5.408864974975586, -2.093477249145508, 7.769593715667725, -0.21102304756641388, -0.5461908578872681, -1.617134690284729, 0.276611328125, 0.301025390625, -0.86865234375
406, 2068678770, -5.394120216369629, -2.099764585494995, 7.760862350463867, -0.053107935935258865, -0.7109829783439636, -1.5557284355163574, 0.277587890625, 0.303466796875, -0.8671875
407, 2068695437, -5.415377616882324, -2.074585199356079, 7.778947353363037, 0.006025387439876795, -0.669195830821991, -1.470309853553772, 0.276123046875, 0.3037109375, -0.8681640625
408, 2068712104, -5.41732931137085, -2.0661792755126953, 7.798458576202393, -0.09593237191438675, -0.5432069897651672, -1.4911202192306519, 0.276611328125, 0.303466796875, -0.8671875
409, 2068728771, -5.387998580932617, -2.0801095962524414, 7.765432834625244, -0.1609502136707306, -0.5617122054100037, -1.6296721696853638, 0.279052734375, 0.302490234375, -0.8681640625
410, 2068745438, -5.4041361808776855, -2.078460216522217, 7.763177394866943, -0.16374199092388153, -0.4721316993236542, -1.5449068546295166, 0.278564453125, 0.302978515625, -0.8681640625
411, 2068762105, -5.396571159362793, -2.0939178466796875, 7.760121822357178, -0.23394638299942017, -0.4035024642944336, -1.476905107498169, 0.279052734375, 0.301513671875, -0.86767578125
412, 2068778772, -5.417893886566162, -2.084280252456665, 7.7676520347595215, -0.28175249695777893, -0.26669225096702576, -1.5164127349853516, 0.280029296875, 0.302490234375, -0.869140625
413, 2068795439, -5.413962364196777, -2.0707509517669678, 7.756203651428223, -0.247444286942482, -0.25392428040504456, -1.4392415285110474, 0.278076171875, 0.303466796875, -0.8681640625
414, 2068812106, -5.419036865234375, -2.0791378021240234, 7.754331588745117, -0.2597283124923706, -0.49376559257507324, -1.456233263015747, 0.278564453125, 0.30322265625, -0.86865234375
415, 2068828773, -5.4171600341796875, -2.085883378982544, 7.760134220123291, -0.2098064422607422, -0.6163184642791748, -1.5611581802368164, 0.278564453125, 0.3037109375, -0.86669921875
416, 2068845440, -5.408105850219727, -2.090895652770996, 7.772380352020264, -0.12674443423748016, -0.7040931582450867, -1.4783265590667725, 0.278076171875, 0.302978515625, -0.865966796875
417, 2068862107, -5.4057230949401855, -2.090830087661743, 7.778252601623535, -0.25354012846946716, -0.7213689684867859, -1.4977539777755737, 0.279052734375, 0.302978515625, -0.866455078125
418, 2068878774, -5.408512592315674, -2.0761733055114746, 7.763284206390381, -0.0654916763305664, -0.8401094079017639, -1.4695415496826172, 0.280029296875, 0.302001953125, -0.8681640625
419, 2068895441, -5.405725002288818, -2.0799200534820557, 7.778237819671631, -0.06285356730222702, -0.8000255227088928, -1.400822639465332, 0.279052734375, 0.302001953125, -0.8681640625
420, 2068912108, -5.41311502456665, -2.0794763565063477, 7.776003360748291, -0.024139970541000366, -0.7733242511749268, -1.5277847051620483, 0.28076171875, 0.302490234375, -0.869140625
421, 2068928775, -5.404146671295166, -2.0770256519317627, 7.783564567565918, 0.03311081975698471, -0.713659405708313, -1.4995466470718384, 0.279541015625, 0.302490234375, -0.866943359375
422, 2068945442, -5.396190643310547, -2.086437463760376, 7.791879653930664, -0.13200785219669342, -0.8737900853157043, -1.581865906715393, 0.278564453125, 0.300537109375, -0.8671875
423, 2068962109, -5.3965959548950195, -2.070932626724243, 7.791235446929932, -0.12802506983280182, -0.5818436741828918, -1.540206789970398, 0.278564453125, 0.301025390625, -0.866943359375
424, 2068978776, -5.405954837799072, -2.057349681854248, 7.783689975738525, -0.3001039922237396, -0.3568361699581146, -1.5577900409698486, 0.280029296875, 0.302490234375, -0.86767578125
425, 2068995443, -5.396745681762695, -2.077336549758911, 7.7780609130859375, -0.30554667115211487, -0.31214195489883423, -1.5400147438049316, 0.279541015625, 0.301025390625, -0.869140625
426, 2069012110, -5.405925750732422, -2.087991714477539, 7.774881839752197, -0.20184087753295898, -0.267972856760025, -1.4971776008605957, 0.277587890625, 0.302978515625, -0.86865234375
427, 2069028777, -5.448341369628906, -2.0664243698120117, 7.778622150421143, -0.3000911772251129, -0.3207094073295593, -1.458694338798523, 0.279052734375, 0.30322265625, -0.8671875
428, 2069045444, -5.4237589836120605, -2.0700409412384033, 7.773685932159424, -0.24192474782466888, -0.4950166344642639, -1.5417436361312866, 0.279541015625, 0.300537109375, -0.867431640625
429, 2069062111, -5.415770053863525, -2.07673978805542, 7.771570682525635, -0.20381304621696472, -0.5925625562667847, -1.5285402536392212, 0.28125, 0.302001953125, -0.865966796875
430, 2069078778, -5.3943376541137695, -2.070769786834717, 7.787917613983154, -0.20957590639591217, -0.5204244256019592, -1.5330607891082764, 0.280029296875, 0.301025390625, -0.866455078125
431, 2069095445, -5.4212164878845215, -2.0685014724731445, 7.753726482391357, -0.22176754474639893, -0.4899965524673462, -1.3769770860671997, 0.28076171875, 0.299560546875, -0.868408203125
432, 2069112112, -5.408273696899414, -2.066563606262207, 7.779047012329102, -0.13176456093788147, -0.2889624834060669, -1.3854038715362549, 0.279052734375, 0.30419921875, -0.86865234375
433, 2069128779, -5.401691913604736, -2.0491769313812256, 7.800119876861572, -0.09730265289545059, -0.28768184781074524, -1.4460418224334717, 0.278076171875, 0.302490234375, -0.87060546875
434, 2069145446, -5.409995079040527, -2.054720640182495, 7.757633686065674, -0.14277799427509308, -0.27943456172943115, -1.5066157579421997, 0.279541015625, 0.301025390625, -0.866943359375
435, 2069162113, -5.429964065551758, -2.072462558746338, 7.7524614334106445, -0.18131230771541595, -0.31737977266311646, -1.4908640384674072, 0.279052734375, 0.302001953125, -0.8671875
436, 2069178780, -5.42046594619751, -2.070181369781494, 7.7671685218811035, -0.181747704744339, -0.41702595353126526, -1.5275412797927856, 0.280517578125, 0.301513671875, -0.864990234375
437, 2069195447, -5.419568061828613, -2.0663156509399414, 7.769083499908447, -0.0986344963312149, -0.4463140666484833, -1.3609561920166016, 0.2802734375, 0.302001953125, -0.8681640625
438, 2069212114, -5.422600746154785, -2.0806455612182617, 7.749884605407715, -0.13445386290550232, -0.5155580639839172, -1.391358733177185, 0.280517578125, 0.301513671875, -0.866943359375
439, 2069228781, -5.4343671798706055, -2.0395538806915283, 7.77934455871582, -0.11615359783172607, -0.5496357083320618, -1.3986711502075195, 0.279052734375, 0.301513671875, -0.866943359375
440, 2069245448, -5.433780193328857, -2.042816638946533, 7.75602912902832, -0.12702618539333344, -0.6088138222694397, -1.4894936084747314, 0.28125, 0.299072265625, -0.8642578125
441, 2069262115, -5.414528846740723, -2.0555312633514404, 7.770620346069336, -0.006070208735764027, -0.7237123250961304, -1.4996362924575806, 0.277099609375, 0.300048828125, -0.86767578125
442, 2069278782, -5.442593097686768, -2.042616128921509, 7.796179294586182, -0.20842334628105164, -0.5400822162628174, -1.5179367065429688, 0.28076171875, 0.299072265625, -0.864990234375
443, 2069295449, -5.397783279418945, -2.04370379447937, 7.761096000671387, -0.4784836173057556, -0.6753300428390503, -1.7195725440979004, 0.28125, 0.302001953125, -0.87060546875
444, 2069312116, -5.425741195678711, -2.075359582901001, 7.77190637588501, -0.1596183478832245, -0.6484495401382446, -1.5166687965393066, 0.283203125, 0.301513671875, -0.865966796875
445, 2069328783, -5.420161724090576, -2.0548999309539795, 7.77641487121582, -0.06951287388801575, -0.6634201407432556, -1.5257741212844849, 0.278076171875, 0.298583984375, -0.867431640625
446, 2069345450, -5.414278507232666, -2.055349349975586, 7.755846977233887, -1.0245080920867622E-4, -0.6279081702232361, -1.4540330171585083, 0.28076171875, 0.299072265625, -0.867919921875
447, 2069362117, -5.407055377960205, -2.0649945735931396, 7.770303249359131, -0.037356119602918625, -0.45658475160598755, -1.5068718194961548, 0.28173828125, 0.301513671875, -0.867919921875
448, 2069378784, -5.431859493255615, -2.048309087753296, 7.79321813583374, -0.2219724804162979, -0.2830459475517273, -1.5289244651794434, 0.28125, 0.300537109375, -0.867919921875
449, 2069395451, -5.417512893676758, -2.0590596199035645, 7.781734466552734, -0.24955734610557556, -0.35030490159988403, -1.5392464399337769, 0.27978515625, 0.300537109375, -0.867919921875
450, 2069412118, -5.4555511474609375, -2.052097797393799, 7.773190975189209, -0.3898252546787262, -0.23363903164863586, -1.5839662551879883, 0.279541015625, 0.301025390625, -0.8681640625
451, 2069428785, -5.429226398468018, -2.0519533157348633, 7.735289573669434, -0.3539675176143646, -0.3889416456222534, -1.6670539379119873, 0.278564453125, 0.298583984375, -0.866943359375
452, 2069445452, -5.418851375579834, -2.05754017829895, 7.7806172370910645, -0.2758871614933014, -0.6023978590965271, -1.746056079864502, 0.27978515625, 0.300537109375, -0.869140625
453, 2069462119, -5.429460525512695, -2.0661392211914062, 7.773800373077393, -0.32296332716941833, -0.538558304309845, -1.6773117780685425, 0.28173828125, 0.301025390625, -0.867431640625
454, 2069478786, -5.406827449798584, -2.07549786567688, 7.779176712036133, -0.12958744168281555, -0.4152458608150482, -1.509394884109497, 0.27978515625, 0.299560546875, -0.8681640625
455, 2069495453, -5.421026229858398, -2.0627026557922363, 7.7774577140808105, -0.07808031141757965, -0.3928987681865692, -1.4867274761199951, 0.27978515625, 0.299072265625, -0.865966796875
456, 2069512120, -5.434103012084961, -2.0435774326324463, 7.780804634094238, -0.15783827006816864, -0.3637515604496002, -1.4488719701766968, 0.2822265625, 0.300537109375, -0.868408203125
457, 2069528787, -5.395310401916504, -2.0859220027923584, 7.7669525146484375, -0.14720898866653442, -0.3401494324207306, -1.3997467756271362, 0.280517578125, 0.301513671875, -0.866943359375
458, 2069545454, -5.416419982910156, -2.0537638664245605, 7.761392593383789, -0.06321214884519577, -0.16848035156726837, -1.2328161001205444, 0.2822265625, 0.300537109375, -0.8701171875
459, 2069562121, -5.434304714202881, -2.049325942993164, 7.769629001617432, 0.12749361991882324, -0.22616015374660492, -1.1743806600570679, 0.28271484375, 0.298095703125, -0.865478515625
460, 2069578788, -5.42939567565918, -2.057589292526245, 7.742094039916992, 0.06398692727088928, -0.13768106698989868, -1.1170083284378052, 0.28125, 0.299072265625, -0.868896484375
461, 2069595455, -5.425450325012207, -2.0318076610565186, 7.785952091217041, -0.16436949372291565, -0.019580908119678497, -1.3045828342437744, 0.2822265625, 0.299560546875, -0.867431640625
462, 2069612122, -5.4479475021362305, -2.0510425567626953, 7.771043300628662, -0.1470809280872345, 0.10586368292570114, -1.3931258916854858, 0.2841796875, 0.299560546875, -0.866943359375
463, 2069628789, -5.442770957946777, -2.048759698867798, 7.791693687438965, -0.22340679168701172, 0.25878432393074036, -1.4054456949234009, 0.28369140625, 0.298583984375, -0.870361328125
464, 2069645456, -5.451778411865234, -2.0460615158081055, 7.752137184143066, -0.24707292020320892, 0.1714065819978714, -1.3041731119155884, 0.283203125, 0.300537109375, -0.865478515625
465, 2069662123, -5.446444511413574, -2.0264174938201904, 7.786245346069336, -0.280830442905426, 0.2196609079837799, -1.301650047302246, 0.285400390625, 0.299072265625, -0.866943359375
466, 2069678790, -5.454342365264893, -2.020951747894287, 7.7483320236206055, -0.22778654098510742, 0.17339156568050385, -1.2229934930801392, 0.28369140625, 0.298095703125, -0.866455078125
467, 2069695457, -5.440286159515381, -2.0382306575775146, 7.749185085296631, -0.3806815445423126, 0.12803147733211517, -1.4584383964538574, 0.283203125, 0.2978515625, -0.869873046875
468, 2069712124, -5.437634468078613, -2.027383327484131, 7.783119201660156, -0.9343897104263306, 0.40421321988105774, -1.5071921348571777, 0.283203125, 0.299072265625, -0.867431640625
469, 2069728791, -5.4490532875061035, -2.0461108684539795, 7.758194923400879, -0.6735628247261047, 0.392072856426239, -1.511431097984314, 0.2841796875, 0.299072265625, -0.868408203125
470, 2069745458, -5.463800430297852, -2.0443263053894043, 7.750976085662842, -0.34767961502075195, 0.04869614541530609, -1.5580973625183105, 0.28466796875, 0.298583984375, -0.86474609375
471, 2069762125, -5.480470657348633, -2.047576665878296, 7.787467002868652, -0.30828726291656494, 0.16666825115680695, -1.4861640930175781, 0.28515625, 0.300537109375, -0.8662109375
472, 2069778792, -5.491190433502197, -2.025825262069702, 7.746304988861084, -0.39437153935432434, 0.1367141753435135, -1.5143507719039917, 0.2822265625, 0.298095703125, -0.86328125
473, 2069795459, -5.5316290855407715, -2.000612497329712, 7.761284828186035, -0.5271477699279785, -0.021130476146936417, -1.751511573791504, 0.28369140625, 0.297607421875, -0.8623046875
474, 2069812126, -5.534339904785156, -1.992569923400879, 7.77000093460083, -0.5773614645004272, -0.44444432854652405, -1.947141408920288, 0.28271484375, 0.299072265625, -0.867431640625
475, 2069828793, -5.544248580932617, -1.9670336246490479, 7.735152721405029, -0.6790438890457153, -0.9426754117012024, -2.1296961307525635, 0.28369140625, 0.300048828125, -0.866943359375
476, 2069845460, -5.537428379058838, -1.9860562086105347, 7.746881008148193, -0.5380203723907471, -1.39080810546875, -2.453773260116577, 0.284912109375, 0.297607421875, -0.867431640625
477, 2069862127, -5.481440544128418, -2.044321298599243, 7.776610851287842, -0.9384749531745911, -1.551220417022705, -2.650632619857788, 0.283203125, 0.301513671875, -0.866455078125
478, 2069878794, -5.43206787109375, -2.074983596801758, 7.786254405975342, -1.1490755081176758, -0.8764154314994812, -2.7313640117645264, 0.2841796875, 0.298583984375, -0.865966796875
479, 2069895461, -5.4053955078125, -2.0436294078826904, 7.780256271362305, -1.0058107376098633, -0.005314634647220373, -2.7532753944396973, 0.28369140625, 0.300537109375, -0.866943359375
480, 2069912128, -5.353299140930176, -2.083287239074707, 7.729417324066162, -1.0926634073257446, 0.8262721300125122, -2.679882049560547, 0.28369140625, 0.302734375, -0.867919921875
481, 2069928795, -5.3631110191345215, -2.239863872528076, 7.743546485900879, -0.7804957628250122, 2.3550684452056885, -2.525181770324707, 0.285888671875, 0.299072265625, -0.869384765625
482, 2069945462, -5.257318019866943, -2.250993490219116, 7.795551300048828, -0.6726023554801941, 4.118580341339111, -2.261012554168701, 0.28662109375, 0.301513671875, -0.86572265625
483, 2069962129, -5.123416900634766, -2.1828553676605225, 7.820879936218262, -0.5341656804084778, 7.2792510986328125, -1.0614415407180786, 0.28466796875, 0.30224609375, -0.86328125
484, 2069978796, -5.121545314788818, -2.2049882411956787, 7.917427062988281, -0.6806065440177917, 11.148987770080566, 1.012592077255249, 0.290283203125, 0.299560546875, -0.862548828125
485, 2069995463, -5.312607288360596, -2.0913403034210205, 7.883030891418457, -1.9712833166122437, 16.509201049804688, 1.907526969909668, 0.29443359375, 0.3017578125, -0.863037109375
486, 2070012130, -5.186551094055176, -2.088681221008301, 7.9855451583862305, -3.387515068054199, 23.938133239746094, 3.37760853767395, 0.299560546875, 0.30126953125, -0.861328125
487, 2070028797, -4.8618292808532715, -2.1001760959625244, 8.384093284606934, -6.0520501136779785, 33.7952880859375, 6.898675441741943, 0.30810546875, 0.30224609375, -0.85595703125
488, 2070045464, -4.932954788208008, -2.180737257003784, 8.384761810302734, -8.384283065795898, 50.500587463378906, 9.947319030761719, 0.32373046875, 0.302001953125, -0.851806640625
489, 2070062131, -5.203273296356201, -2.0913174152374268, 8.49261474609375, -13.674808502197266, 67.89909362792969, 13.312389373779297, 0.3388671875, 0.30322265625, -0.84326171875
490, 2070078798, -5.351893901824951, -2.2713892459869385, 8.57542896270752, -18.78476905822754, 86.72635650634766, 19.181886672973633, 0.360107421875, 0.306396484375, -0.8359375
491, 2070095465, -5.708984375, -2.873405933380127, 8.821166038513184, -19.61362648010254, 101.46690368652344, 28.357276916503906, 0.39111328125, 0.309326171875, -0.821044921875
492, 2070112132, -5.47882080078125, -2.9287068843841553, 9.019553184509277, -18.272960662841797, 113.72052001953125, 38.63662338256836, 0.41943359375, 0.30908203125, -0.807373046875
493, 2070128799, -6.7553229331970215, -3.2842180728912354, 9.540915489196777, -15.695231437683105, 118.73313903808594, 46.36192321777344, 0.452880859375, 0.305419921875, -0.787841796875
494, 2070145466, -6.211373805999756, -3.4737725257873535, 8.01738166809082, 2.2506308555603027, 114.75994110107422, 52.446868896484375, 0.48486328125, 0.299072265625, -0.7744140625
495, 2070162133, -4.8427300453186035, -3.561664581298828, 10.483686447143555, 17.282264709472656, 115.75031280517578, 51.3421630859375, 0.51611328125, 0.28662109375, -0.7548828125
496, 2070178800, -1.0806114673614502, -3.5488743782043457, 14.014901161193848, 28.99498748779297, 82.9468765258789, 40.63809585571289, 0.543212890625, 0.27294921875, -0.74560546875
497, 2070195467, 0.375313937664032, -2.744197130203247, 15.34895133972168, 21.52486801147461, 38.46572494506836, 21.616317749023438, 0.554931640625, 0.2626953125, -0.740478515625
498, 2070212134, 2.3116772174835205, -2.6533608436584473, 14.206500053405762, 13.03713607788086, -4.247702598571777, 8.2723388671875, 0.55810546875, 0.256103515625, -0.743408203125
499, 2070228801, 3.0974700450897217, -1.8708678483963013, 13.15579891204834, 7.215384483337402, -29.682592391967773, 5.421439170837402, 0.5546875, 0.256591796875, -0.74560546875
500, 2070245468, 1.9580259323120117, -1.63800048828125, 13.249287605285645, -4.255993843078613, -47.149105072021484, 5.647651672363281, 0.546630859375, 0.25439453125, -0.75244140625
501, 2070262135, 0.20578521490097046, -2.1774699687957764, 13.537263870239258, -13.563886642456055, -68.61258697509766, 5.8498430252075195, 0.533935546875, 0.255126953125, -0.762451171875
502, 2070278802, -0.9149783253669739, -2.6708154678344727, 13.196191787719727, -18.28728485107422, -90.43199157714844, 3.9700047969818115, 0.515625, 0.257080078125, -0.7734375
503, 2070295469, -1.6096248626708984, -2.928128957748413, 12.662262916564941, -22.587970733642578, -105.44438171386719, -1.202296495437622, 0.48779296875, 0.260498046875, -0.78759765625
504, 2070312136, -2.8611631393432617, -3.1137642860412598, 12.493518829345703, -26.453344345092773, -114.52618408203125, -8.64609146118164, 0.46142578125, 0.267822265625, -0.80029296875
505, 2070328803, -4.680879592895508, -3.350329637527466, 12.592400550842285, -28.403827667236328, -125.19637298583984, -18.27228546142578, 0.431640625, 0.275390625, -0.812255859375
506, 2070345470, -5.6885085105896, -3.231265068054199, 12.006200790405273, -25.663545608520508, -135.91644287109375, -27.363412857055664, 0.3974609375, 0.287353515625, -0.8271484375
507, 2070362137, -6.172684192657471, -2.74558162689209, 11.085201263427734, -21.89703941345215, -139.40078735351562, -33.940834045410156, 0.357421875, 0.295166015625, -0.84033203125
508, 2070378804, -6.617447376251221, -2.5547666549682617, 10.61105728149414, -18.704631805419922, -137.03858947753906, -37.616111755371094, 0.318115234375, 0.301513671875, -0.85205078125
509, 2070395471, -7.62086296081543, -2.6505486965179443, 10.6128568649292, -12.32726001739502, -135.2786407470703, -39.15034103393555, 0.283935546875, 0.309814453125, -0.86328125
510, 2070412138, -8.182668685913086, -2.7450201511383057, 10.566622734069824, -6.3228349685668945, -140.87744140625, -41.61490249633789, 0.2431640625, 0.314697265625, -0.872314453125
511, 2070428805, -7.796192169189453, -2.9464168548583984, 9.839107513427734, -1.2594807147979736, -146.44979858398438, -45.28135299682617, 0.198486328125, 0.31884765625, -0.884765625
512, 2070445472, -7.717733860015869, -3.106823444366455, 9.194026947021484, 1.0722969770431519, -147.51455688476562, -50.061649322509766, 0.15625, 0.321044921875, -0.8896484375
513, 2070462139, -8.2023286819458, -3.166957378387451, 8.396512031555176, 1.844447374343872, -147.1632843017578, -54.63504409790039, 0.112060546875, 0.322509765625, -0.896240234375
514, 2070478806, -9.149348258972168, -2.7394211292266846, 7.430754661560059, -1.268194317817688, -145.7524871826172, -57.15316390991211, 0.066162109375, 0.32275390625, -0.900146484375
515, 2070495473, -9.5150146484375, -2.0551090240478516, 5.993467330932617, -10.551616668701172, -141.13600158691406, -56.03875732421875, 0.0244140625, 0.325439453125, -0.8994140625
516, 2070512140, -9.533891677856445, -1.0097330808639526, 4.4997429847717285, -22.804317474365234, -129.09938049316406, -49.0301399230957, -0.014892578125, 0.333740234375, -0.898681640625
517, 2070528807, -9.872190475463867, 0.34077566862106323, 3.2405307292938232, -38.187049865722656, -112.21192169189453, -38.153507232666016, -0.05126953125, 0.340087890625, -0.894775390625
518, 2070545474, -10.524438858032227, 1.5229836702346802, 1.927739143371582, -52.13465881347656, -93.0044937133789, -23.269960403442383, -0.0810546875, 0.354736328125, -0.890625
519, 2070562141, -11.619924545288086, 1.8479820489883423, 0.39223241806030273, -54.775238037109375, -73.48194122314453, -3.9185776710510254, -0.1005859375, 0.366943359375, -0.8828125
520, 2070578808, -12.32730484008789, 1.3244699239730835, -1.2530231475830078, -38.60307312011719, -49.9979248046875, 19.04106330871582, -0.11376953125, 0.377197265625, -0.87255859375
521, 2070595475, -12.575398445129395, 0.9179072380065918, -2.2160801887512207, -22.75423240661621, -16.663562774658203, 35.83493423461914, -0.117919921875, 0.385009765625, -0.8720703125
522, 2070612142, -12.983943939208984, -0.27463608980178833, -1.9453614950180054, -17.917278289794922, 17.3916072845459, 38.648624420166016, -0.111572265625, 0.3916015625, -0.87060546875
523, 2070628809, -10.536148071289062, -2.404080390930176, -0.7923510670661926, -6.5957417488098145, 47.329505920410156, 30.710556030273438, -0.097412109375, 0.3955078125, -0.86865234375
524, 2070645476, 4.871808052062988, -3.9523158073425293, 8.25900650024414, 34.0556640625, 134.3186798095703, 51.999755859375, -0.064453125, 0.387939453125, -0.875244140625
525, 2070662143, 0.21418188512325287, -4.28672981262207, 10.171611785888672, 17.65190887451172, 154.29547119140625, 62.59638977050781, -0.017578125, 0.38232421875, -0.877685546875
526, 2070678810, -10.986120223999023, -2.6484053134918213, 9.23046588897705, 7.037303924560547, 173.19943237304688, 33.23847579956055, 0.032958984375, 0.3828125, -0.877197265625
527, 2070695477, -10.448355674743652, -2.8231329917907715, 12.192683219909668, -0.8311746716499329, 152.55787658691406, 1.2991890907287598, 0.07958984375, 0.381591796875, -0.874267578125
528, 2070712144, -8.169509887695312, 0.6064003109931946, 11.702835083007812, 0.11437346786260605, 124.68771362304688, 14.212092399597168, 0.1162109375, 0.38037109375, -0.87109375
529, 2070728811, -6.424708366394043, -0.4111524224281311, 9.470985412597656, -11.701634407043457, 103.50248718261719, 25.411766052246094, 0.144287109375, 0.3818359375, -0.869140625
530, 2070745478, -4.528170585632324, -4.892118453979492, 7.388625621795654, -11.243110656738281, 105.37804412841797, 24.04559326171875, 0.17578125, 0.383056640625, -0.860595703125
531, 2070762145, -5.0742340087890625, -5.073529243469238, 6.600234031677246, 10.314397811889648, 109.7222671508789, 25.355648040771484, 0.207763671875, 0.379150390625, -0.852783203125
532, 2070778812, -11.708169937133789, -6.357637882232666, 12.605446815490723, 58.042236328125, 87.04220581054688, 48.85304260253906, 0.238525390625, 0.369384765625, -0.853759765625
533, 2070795479, -13.696486473083496, -1.4180302619934082, 8.392271041870117, 63.883975982666016, 0.6046947836875916, 32.44637680053711, 0.2470703125, 0.34521484375, -0.859375
534, 2070812146, -6.34797477722168, -1.1344285011291504, 10.318707466125488, 35.653018951416016, -1.9678341150283813, 15.454483032226562, 0.24755859375, 0.332763671875, -0.865234375
535, 2070828813, -6.273382186889648, -1.0878629684448242, 9.094293594360352, 18.91847038269043, -1.2432421445846558, 6.725091934204102, 0.2490234375, 0.32666015625, -0.865234375
536, 2070845480, -5.704013347625732, -1.8423099517822266, 8.397130966186523, 7.750808238983154, 1.2656582593917847, 0.7823849320411682, 0.249755859375, 0.322998046875, -0.865234375
537, 2070862147, -5.3398356437683105, -1.6916173696517944, 8.249180793762207, 3.990004539489746, 1.6052441596984863, -1.7985239028930664, 0.251220703125, 0.321533203125, -0.86669921875
538, 2070878814, -5.3155741691589355, -2.023289203643799, 8.05624008178711, 1.8337219953536987, 1.2545548677444458, -3.0883922576904297, 0.253173828125, 0.3212890625, -0.864990234375
539, 2070895481, -4.956969738006592, -2.188506841659546, 7.944193363189697, 2.0361135005950928, 0.9854422807693481, -1.9939743280410767, 0.250732421875, 0.3212890625, -0.8662109375
540, 2070912148, -4.981908798217773, -2.203031063079834, 7.96400785446167, 3.1762754917144775, 0.8226990103721619, 0.16158410906791687, 0.250732421875, 0.3193359375, -0.8681640625
541, 2070928815, -5.210454940795898, -1.9463391304016113, 7.969494819641113, 4.544954776763916, -0.29626211524009705, 1.5057132244110107, 0.25390625, 0.3193359375, -0.86767578125
542, 2070945482, -5.199819087982178, -1.8599103689193726, 8.011865615844727, 5.431333065032959, -2.353883743286133, 1.7568328380584717, 0.2529296875, 0.316650390625, -0.87060546875
543, 2070962149, -5.131648540496826, -1.9215904474258423, 8.09199047088623, 5.909292221069336, -3.4943413734436035, 1.9250060319900513, 0.251953125, 0.316162109375, -0.8701171875
544, 2070978816, -5.123509883880615, -1.8899654150009155, 8.018206596374512, 5.2725605964660645, -3.4530413150787354, 1.689433217048645, 0.25341796875, 0.310546875, -0.8701171875
545, 2070995483, -5.037816524505615, -1.9641441106796265, 7.978344440460205, 5.012258529663086, -3.6222381591796875, 1.8796457052230835, 0.25341796875, 0.31103515625, -0.87158203125
546, 2071012150, -4.940963268280029, -2.400972843170166, 7.894649505615234, 6.327561855316162, -3.2834081649780273, 3.2258498668670654, 0.251953125, 0.30859375, -0.87109375
547, 2071028817, -4.955862045288086, -2.2327933311462402, 7.943544387817383, 7.995819091796875, -3.0169079303741455, 5.090813636779785, 0.2529296875, 0.3095703125, -0.87255859375
548, 2071045484, -5.151355743408203, -2.0235021114349365, 8.010144233703613, 8.53038215637207, -2.2168691158294678, 5.692647933959961, 0.253173828125, 0.306396484375, -0.87451171875
549, 2071062151, -5.0940775871276855, -1.9960118532180786, 8.016639709472656, 8.617286682128906, -0.9301511645317078, 5.574881553649902, 0.250732421875, 0.30224609375, -0.873046875
550, 2071078818, -4.96206521987915, -1.972974419593811, 7.954858779907227, 8.725783348083496, 0.18873368203639984, 6.307854175567627, 0.253173828125, 0.29931640625, -0.87451171875
551, 2071095485, -4.7266764640808105, -1.9593685865402222, 7.982776165008545, 8.696381568908691, 2.320979118347168, 8.19205379486084, 0.25439453125, 0.29345703125, -0.875
552, 2071112152, -4.608150005340576, -2.0977370738983154, 8.016044616699219, 8.180183410644531, 5.810610771179199, 11.375678062438965, 0.260009765625, 0.29248046875, -0.876708984375
553, 2071128819, -4.726372718811035, -2.1131412982940674, 8.099791526794434, 7.930222034454346, 12.905919075012207, 14.768580436706543, 0.26220703125, 0.285888671875, -0.878173828125
554, 2071145486, -4.540849685668945, -2.1171176433563232, 8.29675006866455, 7.060694217681885, 21.236083984375, 19.503023147583008, 0.267333984375, 0.285888671875, -0.87646484375
555, 2071162153, -4.772277355194092, -2.0731561183929443, 8.645670890808105, 6.434263229370117, 33.225608825683594, 25.01479148864746, 0.279052734375, 0.279296875, -0.8759765625
556, 2071178820, -5.109370708465576, -1.6759860515594482, 8.609628677368164, 4.138998031616211, 47.50914001464844, 27.581844329833984, 0.2939453125, 0.27685546875, -0.870849609375
557, 2071195487, -4.958523273468018, -1.2943577766418457, 8.946603775024414, 1.3714686632156372, 64.2098617553711, 28.293033599853516, 0.310791015625, 0.2744140625, -0.8662109375
558, 2071212154, -4.922878742218018, -1.443699598312378, 9.019474983215332, -4.481226921081543, 85.92491912841797, 30.726825714111328, 0.333984375, 0.270751953125, -0.856689453125
559, 2071228821, -4.989561080932617, -1.044715404510498, 9.09143352508545, -6.346380233764648, 115.59677124023438, 31.446796417236328, 0.364013671875, 0.269287109375, -0.845947265625
560, 2071245488, -5.3344807624816895, -0.6715655326843262, 9.043007850646973, -4.583481788635254, 146.42172241210938, 26.879047393798828, 0.400146484375, 0.2666015625, -0.828369140625
561, 2071262155, -5.4525675773620605, -1.1362236738204956, 9.291178703308105, -1.8833762407302856, 183.75965881347656, 23.621679306030273, 0.443115234375, 0.263671875, -0.805908203125
562, 2071278822, -5.2092719078063965, -2.7375316619873047, 9.098137855529785, 3.4254262447357178, 230.72132873535156, 33.40058517456055, 0.5, 0.260986328125, -0.777099609375
563, 2071295489, -5.95723295211792, -2.9520461559295654, 8.513989448547363, 10.770224571228027, 283.06610107421875, 62.92247009277344, 0.564453125, 0.248779296875, -0.73583984375
564, 2071312156, -6.481003761291504, -2.466891050338745, 9.917380332946777, 8.8013916015625, 346.14630126953125, 93.73323822021484, 0.6435546875, 0.229248046875, -0.675537109375
565, 2071328823, -7.242006301879883, -4.973888397216797, 11.737835884094238, 20.83838653564453, 408.2082824707031, 137.3661651611328, 0.727294921875, 0.20068359375, -0.599365234375
566, 2071345490, -11.1137113571167, -4.751833915710449, 11.181747436523438, -1.4963011741638184, 439.73626708984375, 183.89662170410156, 0.8095703125, 0.159423828125, -0.499755859375
567, 2071362157, -19.082300186157227, -4.303686618804932, 15.35407543182373, -50.485836029052734, 439.3565979003906, 197.38064575195312, 0.88134765625, 0.11669921875, -0.388427734375
568, 2071378824, -21.53821563720703, -7.039743900299072, 18.102012634277344, -57.51979064941406, 424.22149658203125, 181.193603515625, 0.93310546875, 0.070556640625, -0.2724609375
569, 2071395491, -13.081016540527344, -6.577061653137207, 16.061254501342773, -27.369287490844727, 355.0840148925781, 187.145751953125, 0.966064453125, 0.01904296875, -0.170166015625
570, 2071412158, -5.405269622802734, -11.940505027770996, 11.097947120666504, 52.154781341552734, 340.4783630371094, 216.55892944335938, 0.9794921875, -0.042236328125, -0.074462890625
571, 2071428825, -28.134037017822266, -16.56993865966797, 22.242250442504883, 53.075218200683594, 292.0085754394531, 60.04937744140625, 0.98681640625, -0.0771484375, 0.018798828125
572, 2071445492, -21.295644760131836, -18.39532470703125, 24.50006103515625, 98.33251190185547, -0.5341323018074036, -81.60832214355469, 0.9873046875, -0.060546875, 0.03662109375
573, 2071462159, -5.609469413757324, -9.391984939575195, 14.638343811035156, 169.86888122558594, -158.72756958007812, -135.97933959960938, 0.987548828125, -0.027099609375, -4.8828125E-4
574, 2071478826, 0.33387964963912964, -2.015833616256714, 9.017243385314941, 169.2797393798828, -191.62176513671875, -141.5466766357422, 0.986328125, 0.013916015625, -0.05126953125
575, 2071495493, 1.8791266679763794, 1.6498873233795166, 7.130735874176025, 115.24346160888672, -186.8469696044922, -144.92002868652344, 0.97802734375, 0.052490234375, -0.107421875
576, 2071512160, 0.658260703086853, 2.6762678623199463, 6.661279201507568, 48.702640533447266, -178.1585235595703, -140.01364135742188, 0.96630859375, 0.0888671875, -0.15869140625
577, 2071528827, -1.625028371810913, 1.634117603302002, 6.580478668212891, 14.88005256652832, -180.1121063232422, -115.35587310791016, 0.94921875, 0.121826171875, -0.209228515625
578, 2071545494, -4.690976619720459, 1.201539397239685, 7.4611616134643555, 12.230057716369629, -198.94114685058594, -81.28462219238281, 0.93115234375, 0.14599609375, -0.259033203125
579, 2071562161, -7.14490270614624, 1.4089850187301636, 8.192249298095703, 8.378493309020996, -232.9920196533203, -60.240596771240234, 0.908935546875, 0.159912109375, -0.322021484375
580, 2071578828, -8.15088939666748, 1.2621259689331055, 8.179998397827148, -4.92977237701416, -266.4864501953125, -54.96860885620117, 0.876708984375, 0.175537109375, -0.386962890625
581, 2071595495, -8.629280090332031, 0.7114382982254028, 7.876310348510742, -17.919849395751953, -289.9627685546875, -56.8382453918457, 0.8359375, 0.19140625, -0.455078125
582, 2071612162, -9.69278621673584, 0.1411595642566681, 7.867752552032471, -23.78770637512207, -306.8194580078125, -59.70164108276367, 0.78759765625, 0.205810546875, -0.524658203125
583, 2071628829, -10.815688133239746, -0.2823008894920349, 8.235048294067383, -25.099458694458008, -322.0283508300781, -64.92933654785156, 0.727294921875, 0.22607421875, -0.595947265625
584, 2071645496, -11.931066513061523, -0.742828905582428, 9.042679786682129, -26.788549423217773, -333.55401611328125, -72.09142303466797, 0.660400390625, 0.244873046875, -0.660400390625
585, 2071662163, -13.296459197998047, -1.4377285242080688, 9.989194869995117, -27.600765228271484, -342.4432067871094, -80.4208755493164, 0.583251953125, 0.263671875, -0.718505859375
586, 2071678830, -14.579708099365234, -2.127073287963867, 10.824333190917969, -26.894092559814453, -346.932373046875, -87.45208740234375, 0.498291015625, 0.285400390625, -0.769287109375
587, 2071695497, -17.16362762451172, -2.6553215980529785, 12.196907997131348, -30.127151489257812, -340.65545654296875, -92.47639465332031, 0.408935546875, 0.302490234375, -0.81591796875
588, 2071712164, -23.187002182006836, -2.8212594985961914, 13.672904968261719, -38.8171501159668, -335.876953125, -104.65740966796875, 0.31787109375, 0.319580078125, -0.843505859375
589, 2071728831, -29.994050979614258, -4.678678512573242, 11.269512176513672, -33.747962951660156, -347.1189880371094, -121.18345642089844, 0.22021484375, 0.341796875, -0.866943359375
590, 2071745498, -31.972455978393555, -8.848535537719727, 3.838583469390869, 16.218135833740234, -367.6143798828125, -111.57844543457031, 0.1103515625, 0.349365234375, -0.88427734375
591, 2071762165, -33.5461540222168, -4.409239292144775, -4.157505989074707, 52.23234176635742, -354.8914489746094, -80.8519287109375, 0.0029296875, 0.3349609375, -0.89501953125
592, 2071778832, -37.061031341552734, 15.683235168457031, -16.6184024810791, -74.35186004638672, -301.0809020996094, -72.77223205566406, -0.091064453125, 0.34228515625, -0.891357421875
593, 2071795499, -26.82268524169922, 20.865266799926758, -34.17200469970703, -315.7869567871094, -141.93646240234375, -100.2480697631836, -0.152099609375, 0.408447265625, -0.848876953125
594, 2071812166, -22.528034210205078, 1.2515780925750732, -25.915273666381836, -114.3493881225586, 65.22298431396484, 86.3450698852539, -0.145263671875, 0.45751953125, -0.830322265625
595, 2071828833, -31.84799575805664, 2.5999934673309326, -2.0514721870422363, 53.20172882080078, 99.16851806640625, 194.94178771972656, -0.0947265625, 0.455322265625, -0.8369140625
596, 2071845500, -2.153620481491089, -16.684669494628906, 15.297505378723145, 156.2253875732422, 108.1001968383789, 187.14910888671875, -0.0419921875, 0.428955078125, -0.85546875
597, 2071862167, 7.9804301261901855, -9.376145362854004, 7.102274417877197, 125.5625228881836, 134.43394470214844, 92.79113006591797, 0.004638671875, 0.3876953125, -0.87451171875
598, 2071878834, -8.648205757141113, 1.4260339736938477, 4.398150444030762, 66.12966918945312, 319.4544372558594, -32.208412170410156, 0.075927734375, 0.3662109375, -0.878662109375
599, 2071895501, -23.37743377685547, 11.49343204498291, 19.561893463134766, 50.09798812866211, 274.4620361328125, -31.127092361450195, 0.15185546875, 0.357666015625, -0.87109375
600, 2071912168, -8.77479076385498, 10.230781555175781, 13.129524230957031, 9.536001205444336, 188.03268432617188, 83.20349884033203, 0.2099609375, 0.346923828125, -0.863525390625
601, 2071928835, -28.120471954345703, -19.919984817504883, 16.153717041015625, 61.53910446166992, 76.03693389892578, 65.11994934082031, 0.255126953125, 0.330078125, -0.863525390625
602, 2071945502, -11.491048812866211, 5.590211391448975, 9.690332412719727, 32.1630744934082, 19.81583595275879, 8.461820602416992, 0.260009765625, 0.312744140625, -0.86474609375
603, 2071962169, -4.319150924682617, -3.646662950515747, 8.158024787902832, 8.936551094055176, 6.8259735107421875, -3.9356625080108643, 0.26220703125, 0.312255859375, -0.863525390625
604, 2071978836, -6.552373886108398, -1.9397656917572021, 8.321595191955566, -3.099418878555298, 5.390674114227295, -4.676879405975342, 0.26611328125, 0.311767578125, -0.863525390625
605, 2071995503, -5.97550630569458, -1.6886038780212402, 8.229369163513184, -3.7972753047943115, 5.389341831207275, -4.390913963317871, 0.26513671875, 0.312255859375, -0.863525390625
606, 2072012170, -5.33080530166626, -1.7223702669143677, 8.367853164672852, -7.365139961242676, 8.315698623657227, -4.875558853149414, 0.26904296875, 0.31640625, -0.861328125
607, 2072028837, -5.267693996429443, -1.6549025774002075, 8.332213401794434, -11.39616584777832, 13.605500221252441, -5.458367347717285, 0.26904296875, 0.319580078125, -0.862060546875
608, 2072045504, -5.0989766120910645, -1.826258897781372, 8.268606185913086, -15.446887969970703, 18.643199920654297, -6.345009803771973, 0.2734375, 0.3232421875, -0.856689453125
609, 2072062171, -5.360639572143555, -2.2964928150177, 7.999501705169678, -18.693052291870117, 21.811260223388672, -6.39699649810791, 0.279541015625, 0.326904296875, -0.85400390625
610, 2072078838, -5.337743759155273, -2.583139657974243, 7.706862449645996, -17.536556243896484, 23.649694442749023, -4.677994728088379, 0.284423828125, 0.3310546875, -0.849853515625
611, 2072095505, -5.590712070465088, -2.6999270915985107, 7.465518951416016, -15.098482131958008, 22.729312896728516, -3.5442051887512207, 0.29150390625, 0.33740234375, -0.845458984375
612, 2072112172, -5.452917098999023, -2.6450533866882324, 7.462830543518066, -11.941315650939941, 19.95102882385254, -1.9832972288131714, 0.29638671875, 0.3408203125, -0.844970703125
613, 2072128839, -5.528361797332764, -2.705096483230591, 7.311629772186279, -7.68522834777832, 17.1265869140625, 0.6902951598167419, 0.302978515625, 0.343505859375, -0.841796875
614, 2072145506, -5.741138935089111, -2.516883134841919, 7.21055269241333, -3.3163344860076904, 13.687891960144043, 3.1801838874816895, 0.30810546875, 0.341552734375, -0.837890625
615, 2072162173, -5.866107940673828, -2.4067039489746094, 7.230096340179443, -0.3192623555660248, 9.093925476074219, 3.6840097904205322, 0.3095703125, 0.34326171875, -0.83740234375
616, 2072178840, -5.780887603759766, -2.3966894149780273, 7.236774444580078, 1.7717523574829102, 4.8283209800720215, 3.7755236625671387, 0.312255859375, 0.34228515625, -0.835693359375
617, 2072195507, -5.592490196228027, -2.6499223709106445, 7.199021816253662, 2.967186450958252, 1.60886812210083, 5.08743143081665, 0.31103515625, 0.340576171875, -0.834716796875
618, 2072212174, -5.506076335906982, -2.6829721927642822, 7.28812313079834, 5.501180171966553, -1.4775969982147217, 8.942055702209473, 0.313232421875, 0.338623046875, -0.83935546875
619, 2072228841, -5.326691150665283, -2.578583240509033, 7.441367149353027, 8.544538497924805, -2.658472776412964, 12.193915367126465, 0.31396484375, 0.33544921875, -0.839599609375
620, 2072245508, -5.129975318908691, -2.3517861366271973, 7.869173526763916, 9.356629371643066, 0.34581658244132996, 15.135040283203125, 0.31396484375, 0.330810546875, -0.839111328125
621, 2072262175, -5.310126304626465, -1.787986159324646, 8.149186134338379, 2.205275774002075, 9.282368659973145, 18.3862247467041, 0.319580078125, 0.3271484375, -0.83935546875
622, 2072278842, -5.218070030212402, -2.137253999710083, 8.200056076049805, -6.985183238983154, 20.136369705200195, 22.127700805664062, 0.32666015625, 0.328369140625, -0.838134765625
623, 2072295509, -5.214229583740234, -2.459956645965576, 8.105704307556152, -4.72022008895874, 34.27716064453125, 24.283689498901367, 0.33544921875, 0.325439453125, -0.832275390625
624, 2072312176, -5.197511196136475, -2.1953909397125244, 8.227680206298828, -6.896783828735352, 50.97251892089844, 24.112831115722656, 0.3486328125, 0.322998046875, -0.828125
625, 2072328843, -5.118985176086426, -2.0479118824005127, 8.551283836364746, -9.827607154846191, 74.86246490478516, 25.08328628540039, 0.37255859375, 0.322265625, -0.8203125
626, 2072345510, -5.057085990905762, -2.0652482509613037, 8.80614185333252, -11.90852165222168, 109.6224594116211, 26.260421752929688, 0.396240234375, 0.322998046875, -0.806640625
627, 2072362177, -5.682625770568848, -1.4850596189498901, 8.395277976989746, -19.685531616210938, 147.7467498779297, 27.256799697875977, 0.431640625, 0.32373046875, -0.78857421875
628, 2072378844, -6.0779008865356445, -0.6735580563545227, 8.431891441345215, -28.45798683166504, 185.3909149169922, 20.866769790649414, 0.47607421875, 0.325927734375, -0.76171875
629, 2072395511, -5.763779163360596, -1.9638842344284058, 8.837717056274414, -24.260820388793945, 235.55577087402344, 13.430000305175781, 0.528564453125, 0.327880859375, -0.72607421875
630, 2072412178, -5.016434669494629, -3.252840757369995, 8.486202239990234, -25.176937103271484, 298.58502197265625, 26.442127227783203, 0.59033203125, 0.329833984375, -0.675537109375
631, 2072428845, -5.5526556968688965, -4.1517510414123535, 8.911110877990723, -42.317359924316406, 380.7597351074219, 58.69805908203125, 0.664306640625, 0.32861328125, -0.60888671875
632, 2072445512, -9.1160306930542, -9.24378490447998, 12.955023765563965, -39.88175964355469, 452.8377685546875, 119.39087677001953, 0.751708984375, 0.31298828125, -0.510009765625
633, 2072462179, -15.801933288574219, -7.4601593017578125, 12.042232513427734, -40.68043899536133, 488.4554138183594, 184.3819122314453, 0.8349609375, 0.27392578125, -0.39599609375
634, 2072478846, -25.009323120117188, -5.3525614738464355, 16.642803192138672, -64.20036315917969, 444.09423828125, 183.21685791015625, 0.899658203125, 0.234130859375, -0.277099609375
635, 2072495513, -22.845767974853516, -9.794825553894043, 20.520198822021484, -81.94059753417969, 365.42877197265625, 167.84011840820312, 0.943115234375, 0.192138671875, -0.166748046875
636, 2072512180, -7.874143600463867, -11.28609561920166, 16.20816421508789, -38.192832946777344, 296.7064514160156, 195.37510681152344, 0.966064453125, 0.14111328125, -0.07861328125
637, 2072528847, -9.034894943237305, -12.96426010131836, 12.521512031555176, 73.12954711914062, 330.72735595703125, 198.81005859375, 0.982421875, 0.0791015625, 0.00927734375
638, 2072545514, -25.48261833190918, -14.849958419799805, 31.08894157409668, 67.82024383544922, 138.3604736328125, 67.79528045654297, 0.983154296875, 0.04736328125, 0.064208984375
639, 2072562181, -11.181781768798828, -11.993583679199219, 23.572479248046875, 73.83299255371094, -99.80712127685547, -45.03413391113281, 0.9814453125, 0.057373046875, 0.049072265625
640, 2072578848, -0.08870792388916016, -6.28715181350708, 13.071980476379395, 99.2669677734375, -191.53709411621094, -75.06475830078125, 0.980712890625, 0.0791015625, -0.005615234375
641, 2072595515, 2.355149269104004, -2.397627115249634, 8.184305191040039, 96.9307861328125, -202.2081756591797, -71.71536254882812, 0.974853515625, 0.097412109375, -0.064453125
642, 2072612182, 2.0314528942108154, -0.3588756322860718, 6.369020462036133, 68.89226531982422, -192.52059936523438, -69.77944946289062, 0.96630859375, 0.1162109375, -0.12255859375
643, 2072628849, -0.6137804985046387, -0.13215652108192444, 6.148708820343018, 31.190080642700195, -185.8089599609375, -66.60452270507812, 0.956298828125, 0.133544921875, -0.17236328125
644, 2072645516, -3.468926191329956, -1.3212450742721558, 6.302486419677734, 9.995402336120605, -195.1326446533203, -59.0245361328125, 0.939697265625, 0.147705078125, -0.224853515625
645, 2072662183, -6.41579008102417, -2.2743897438049316, 7.000232219696045, 7.344545364379883, -218.04730224609375, -53.5782356262207, 0.91943359375, 0.16064453125, -0.28369140625
646, 2072678850, -9.2132568359375, -2.556471824645996, 7.613724231719971, 10.037117004394531, -252.9463653564453, -55.13945007324219, 0.892333984375, 0.175048828125, -0.348388671875
647, 2072695517, -10.220909118652344, -2.5590546131134033, 7.620049953460693, 8.306401252746582, -289.61358642578125, -60.82145690917969, 0.853515625, 0.190185546875, -0.41650390625
648, 2072712184, -10.353131294250488, -2.65687894821167, 7.073736190795898, 3.4236292839050293, -315.0973205566406, -67.81758117675781, 0.810546875, 0.204833984375, -0.493408203125
649, 2072728851, -10.22414493560791, -2.7962262630462646, 6.628392696380615, -2.2447283267974854, -324.3822021484375, -74.3134765625, 0.74951171875, 0.22119140625, -0.56640625
650, 2072745518, -10.931428909301758, -3.03562068939209, 7.096773147583008, -10.628012657165527, -322.0670166015625, -80.81487274169922, 0.687255859375, 0.238037109375, -0.63525390625
