sep=,
DeviceTag:,A,,,,,,,,,,,,,,,,,
FirmwareVersion:,2.2.1,,,,,,,,,,,,,,,,,
AppVersion:,2023.6.1,,,,,,,,,,,,,,,,,
SyncStatus:,Synced,,,,,,,,,,,,,,,,,
OutputRate:,60Hz,,,,,,,,,,,,,,,,,
FilterProfile:,General,,,,,,,,,,,,,,,,,
Measurement Mode:,Inertial Mode - Rate quantities (with mag),,,,,,,,,,,,,,,,,
StartTime:,2023-12-07 12:47:23.615 +0200,,,,,,,,,,,,,,,,,
 2023,,,,,,,,,,,,,,,,,,,

PacketCounter,SampleTimeFine,Acc_X,Acc_Y,Acc_Z,Gyr_X,Gyr_Y,Gyr_Z,Mag_X,Mag_Y,Mag_Z
1, 1282287472, -6.720547199249268, -0.7872457504272461, 7.173813343048096, -2.443553924560547, -1.4536105394363403, -2.2182774543762207, 1.115478515625, -0.41162109375, 0.049560546875
2, 1282304139, -6.727175712585449, -0.7965375781059265, 7.184054851531982, -2.500593423843384, -1.5066159963607788, -2.3301281929016113, 1.115478515625, -0.4111328125, 0.046142578125
3, 1282320806, -6.733612537384033, -0.8189994692802429, 7.199845314025879, -2.5085973739624023, -1.3895914554595947, -2.2704250812530518, 1.116943359375, -0.407470703125, 0.048583984375
4, 1282337473, -6.7284698486328125, -0.8155639171600342, 7.169280052185059, -2.4185564517974854, -1.4841406345367432, -2.1994266510009766, 1.116455078125, -0.41015625, 0.047607421875
5, 1282354140, -6.732777118682861, -0.7973155379295349, 7.196959495544434, -2.4438741207122803, -1.4490512609481812, -2.1347157955169678, 1.116455078125, -0.4111328125, 0.048095703125
6, 1282370807, -6.740822792053223, -0.7993571758270264, 7.194636821746826, -2.4207842350006104, -1.4360270500183105, -2.053037166595459, 1.116455078125, -0.41064453125, 0.048583984375
7, 1282387474, -6.713007926940918, -0.808662474155426, 7.207848072052002, -2.390062093734741, -1.4324928522109985, -2.0300371646881104, 1.11474609375, -0.4111328125, 0.048095703125
8, 1282404141, -6.725241184234619, -0.7820240259170532, 7.2211503982543945, -2.39894962310791, -1.270646095275879, -2.187350034713745, 1.119873046875, -0.40966796875, 0.04833984375
9, 1282420808, -6.754345893859863, -0.7800343632698059, 7.202375888824463, -2.5319433212280273, -1.1505608558654785, -2.2026281356811523, 1.115966796875, -0.41064453125, 0.047607421875
10, 1282437475, -6.7495551109313965, -0.7996199131011963, 7.183056831359863, -2.5513195991516113, -1.235121250152588, -2.2398433685302734, 1.116943359375, -0.41162109375, 0.047607421875
11, 1282454142, -6.737083435058594, -0.8168668150901794, 7.1865925788879395, -2.4888501167297363, -1.3786933422088623, -2.176144599914551, 1.118408203125, -0.41162109375, 0.048828125
12, 1282470809, -6.718444347381592, -0.813629150390625, 7.185882091522217, -2.2498836517333984, -1.5159003734588623, -2.051321029663086, 1.116455078125, -0.413330078125, 0.048828125
13, 1282487476, -6.751936912536621, -0.795741081237793, 7.174326419830322, -2.3494527339935303, -1.4417003393173218, -2.066714286804199, 1.116943359375, -0.41259765625, 0.05078125
14, 1282504143, -6.740114212036133, -0.7920070290565491, 7.194746017456055, -2.4168403148651123, -1.3827784061431885, -2.1150970458984375, 1.115478515625, -0.4091796875, 0.05029296875
15, 1282520810, -6.744656562805176, -0.7866582274436951, 7.190016269683838, -2.5059595108032227, -1.3143541812896729, -2.1880288124084473, 1.116455078125, -0.41015625, 0.047119140625
16, 1282537477, -6.754026412963867, -0.7888339757919312, 7.180657386779785, -2.47232985496521, -1.3321036100387573, -2.3277971744537354, 1.116455078125, -0.41064453125, 0.049072265625
17, 1282554144, -6.759542942047119, -0.7963626384735107, 7.160054683685303, -2.4660162925720215, -1.569149374961853, -2.3596084117889404, 1.116455078125, -0.4091796875, 0.047119140625
18, 1282570811, -6.764393329620361, -0.7768009305000305, 7.168176174163818, -2.401062250137329, -1.766507863998413, -2.3184614181518555, 1.117431640625, -0.40869140625, 0.0498046875
19, 1282587478, -6.750044345855713, -0.7986797094345093, 7.177954196929932, -2.4273416996002197, -1.9587700366973877, -2.3573291301727295, 1.1142578125, -0.4111328125, 0.048095703125
20, 1282604145, -6.739930152893066, -0.8250123262405396, 7.177844047546387, -2.3642446994781494, -1.988352656364441, -2.369123697280884, 1.117431640625, -0.4111328125, 0.047119140625
21, 1282620812, -6.742119789123535, -0.7911143898963928, 7.190112113952637, -2.2950005531311035, -1.996330738067627, -2.223656177520752, 1.118408203125, -0.40966796875, 0.046630859375
22, 1282637479, -6.749373435974121, -0.7910839915275574, 7.199563026428223, -2.3279638290405273, -1.868574619293213, -2.30041766166687, 1.116943359375, -0.41015625, 0.047607421875
23, 1282654146, -6.738232612609863, -0.7998182773590088, 7.193434715270996, -2.379817247390747, -1.8932654857635498, -2.4193503856658936, 1.115966796875, -0.412109375, 0.04931640625
24, 1282670813, -6.728331565856934, -0.8063446879386902, 7.188835144042969, -2.36049222946167, -1.8176311254501343, -2.440852165222168, 1.115966796875, -0.408203125, 0.047607421875
25, 1282687480, -6.740596294403076, -0.7991739511489868, 7.192164897918701, -2.29364275932312, -1.9097213745117188, -2.3249545097351074, 1.117919921875, -0.41015625, 0.048095703125
26, 1282704147, -6.741937160491943, -0.7997161149978638, 7.192286491394043, -2.272858142852783, -1.8031084537506104, -2.2336838245391846, 1.116455078125, -0.41015625, 0.048095703125
27, 1282720814, -6.737688064575195, -0.7939967513084412, 7.220451354980469, -2.343677520751953, -1.824571967124939, -2.249499559402466, 1.117431640625, -0.40869140625, 0.047607421875
28, 1282737481, -6.731766700744629, -0.8001179099082947, 7.204202175140381, -2.447152614593506, -1.6298770904541016, -2.2816433906555176, 1.1142578125, -0.4130859375, 0.047119140625
29, 1282754148, -6.730687618255615, -0.7940781712532043, 7.192272186279297, -2.410996198654175, -1.506691813468933, -2.262873888015747, 1.116455078125, -0.4111328125, 0.04931640625
30, 1282770815, -6.740219593048096, -0.7761603593826294, 7.197628021240234, -2.5293564796447754, -1.482475996017456, -2.3780112266540527, 1.117431640625, -0.41015625, 0.046142578125
31, 1282787482, -6.7345290184021, -0.783054769039154, 7.200551986694336, -2.556480884552002, -1.459027647972107, -2.4673871994018555, 1.115478515625, -0.41162109375, 0.047119140625
32, 1282804149, -6.740766525268555, -0.8199315667152405, 7.1893792152404785, -2.596167802810669, -1.5181418657302856, -2.482652425765991, 1.117431640625, -0.40966796875, 0.046142578125
33, 1282820816, -6.735738754272461, -0.8024289011955261, 7.20124626159668, -2.454375743865967, -1.6421329975128174, -2.510826349258423, 1.116943359375, -0.413818359375, 0.045654296875
34, 1282837483, -6.7210893630981445, -0.8162251114845276, 7.195572853088379, -2.4218859672546387, -1.6550414562225342, -2.3427810668945312, 1.118408203125, -0.40966796875, 0.046630859375
35, 1282854150, -6.742794036865234, -0.8016496896743774, 7.184401512145996, -2.4347307682037354, -1.6347947120666504, -2.397822618484497, 1.117431640625, -0.41064453125, 0.048095703125
36, 1282870817, -6.73071813583374, -0.8121747374534607, 7.20405912399292, -2.4228081703186035, -1.7403960227966309, -2.3853495121002197, 1.116943359375, -0.412109375, 0.047119140625
37, 1282887484, -6.7311201095581055, -0.7951043844223022, 7.214883804321289, -2.5221598148345947, -1.6469992399215698, -2.393596649169922, 1.115234375, -0.41064453125, 0.048583984375
38, 1282904151, -6.751117706298828, -0.7913384437561035, 7.213358402252197, -2.556480646133423, -1.5522193908691406, -2.4616241455078125, 1.115966796875, -0.4111328125, 0.047119140625
39, 1282920818, -6.742729663848877, -0.7942623496055603, 7.224363803863525, -2.709017276763916, -1.4609230756759644, -2.6419506072998047, 1.116455078125, -0.41015625, 0.047607421875
40, 1282937485, -6.719752311706543, -0.8218716979026794, 7.193093776702881, -2.7371785640716553, -1.2459555864334106, -2.748589038848877, 1.117919921875, -0.41162109375, 0.048828125
41, 1282954152, -6.737174034118652, -0.7901623845100403, 7.203097820281982, -2.7530839443206787, -1.1379339694976807, -2.607680559158325, 1.116455078125, -0.40869140625, 0.05078125
42, 1282970819, -6.743768215179443, -0.7996224761009216, 7.192408561706543, -2.760486125946045, -1.2123901844024658, -2.5800445079803467, 1.116455078125, -0.4111328125, 0.047607421875
43, 1282987486, -6.733607292175293, -0.8228101134300232, 7.1848530769348145, -2.8342249393463135, -1.252576470375061, -2.646662950515747, 1.117919921875, -0.41064453125, 0.048828125
44, 1283004153, -6.722775936126709, -0.8227332830429077, 7.188557147979736, -2.792757511138916, -1.3767849206924438, -2.726997137069702, 1.117919921875, -0.408203125, 0.046142578125
45, 1283020820, -6.7270026206970215, -0.8276234865188599, 7.208410739898682, -2.688065767288208, -1.4072515964508057, -2.6814708709716797, 1.116943359375, -0.4091796875, 0.046630859375
46, 1283037487, -6.739039897918701, -0.8383110761642456, 7.188676357269287, -2.575011730194092, -1.412847876548767, -2.633664608001709, 1.116943359375, -0.408203125, 0.046142578125
47, 1283054154, -6.720967769622803, -0.8251336812973022, 7.194695472717285, -2.6211531162261963, -1.340837836265564, -2.429352283477783, 1.115234375, -0.4091796875, 0.048583984375
48, 1283070821, -6.7382354736328125, -0.8014526963233948, 7.208267688751221, -2.571809768676758, -1.4071234464645386, -2.3774094581604004, 1.115478515625, -0.41064453125, 0.047607421875
49, 1283087488, -6.738891124725342, -0.8121281266212463, 7.184823036193848, -2.545992374420166, -1.336342692375183, -2.4277381896972656, 1.118408203125, -0.40869140625, 0.049072265625
50, 1283104155, -6.740927219390869, -0.7980882525444031, 7.1811747550964355, -2.6131742000579834, -1.387388825416565, -2.5469400882720947, 1.116455078125, -0.40966796875, 0.049560546875
51, 1283120822, -6.729464054107666, -0.8277665972709656, 7.185304164886475, -2.656254768371582, -1.4643551111221313, -2.4798731803894043, 1.116455078125, -0.41015625, 0.047607421875
52, 1283137489, -6.738376617431641, -0.8242713212966919, 7.192021369934082, -2.4479339122772217, -1.5297185182571411, -2.5006959438323975, 1.117919921875, -0.41064453125, 0.047119140625
53, 1283154156, -6.726561069488525, -0.8373984098434448, 7.200367450714111, -2.398693323135376, -1.596798062324524, -2.369392156600952, 1.118408203125, -0.408203125, 0.046630859375
54, 1283170823, -6.7203240394592285, -0.8461533784866333, 7.194781303405762, -2.367356300354004, -1.5923800468444824, -2.234964370727539, 1.119873046875, -0.4091796875, 0.048095703125
55, 1283187490, -6.742980480194092, -0.8132361173629761, 7.188499927520752, -2.3248391151428223, -1.5977201461791992, -2.1026487350463867, 1.116455078125, -0.408203125, 0.046630859375
56, 1283204157, -6.73026180267334, -0.8138442039489746, 7.194140911102295, -2.3318440914154053, -1.4926183223724365, -2.1293885707855225, 1.11572265625, -0.408203125, 0.045654296875
57, 1283220824, -6.736321926116943, -0.8018461465835571, 7.222038269042969, -2.364410877227783, -1.4015910625457764, -2.1094748973846436, 1.117431640625, -0.4091796875, 0.048095703125
58, 1283237491, -6.750307083129883, -0.8269464373588562, 7.202770709991455, -2.4353320598602295, -1.3060684204101562, -2.1381351947784424, 1.116455078125, -0.4091796875, 0.047607421875
59, 1283254158, -6.7271575927734375, -0.8152543306350708, 7.205893516540527, -2.37835693359375, -1.3733656406402588, -2.0616297721862793, 1.11572265625, -0.4091796875, 0.049560546875
60, 1283270825, -6.7380194664001465, -0.8171179294586182, 7.191893100738525, -2.3303585052490234, -1.466749668121338, -2.0090088844299316, 1.115966796875, -0.41015625, 0.048095703125
61, 1283287492, -6.750226020812988, -0.8154679536819458, 7.191660404205322, -2.3438308238983154, -1.4173555374145508, -2.0505523681640625, 1.116943359375, -0.408203125, 0.049072265625
62, 1283304159, -6.7397379875183105, -0.8274769186973572, 7.1903181076049805, -2.3387086391448975, -1.5425249338150024, -2.0076005458831787, 1.115234375, -0.40966796875, 0.048583984375
63, 1283320826, -6.740345478057861, -0.7922576069831848, 7.198950290679932, -2.279709577560425, -1.6008321046829224, -2.071746826171875, 1.117431640625, -0.408203125, 0.05029296875
64, 1283337493, -6.730352401733398, -0.8134586215019226, 7.185019493103027, -2.3642702102661133, -1.4748690128326416, -2.198146104812622, 1.117919921875, -0.406494140625, 0.047119140625
65, 1283354160, -6.744261264801025, -0.801572322845459, 7.1839375495910645, -2.458953619003296, -1.3726943731307983, -2.306912660598755, 1.116943359375, -0.408203125, 0.049560546875
66, 1283370827, -6.74658203125, -0.8019697666168213, 7.211683750152588, -2.5647151470184326, -1.4464901685714722, -2.4257023334503174, 1.117431640625, -0.40869140625, 0.049072265625
67, 1283387494, -6.738083839416504, -0.7934191226959229, 7.181437969207764, -2.6292591094970703, -1.4703227281570435, -2.640157461166382, 1.115234375, -0.407470703125, 0.049072265625
68, 1283404161, -6.734133720397949, -0.8330135941505432, 7.206141948699951, -2.67683482170105, -1.3464471101760864, -2.6300790309906006, 1.11474609375, -0.40869140625, 0.046142578125
69, 1283420828, -6.7236199378967285, -0.8526813387870789, 7.17249059677124, -2.648737668991089, -1.421902060508728, -2.560425043106079, 1.11376953125, -0.406982421875, 0.047607421875
70, 1283437495, -6.722766399383545, -0.8178994655609131, 7.204263687133789, -2.5592851638793945, -1.3794618844985962, -2.4983909130096436, 1.116455078125, -0.40966796875, 0.048095703125
71, 1283454162, -6.73941707611084, -0.8244648575782776, 7.187317848205566, -2.6316025257110596, -1.302956461906433, -2.530560255050659, 1.117919921875, -0.4091796875, 0.048095703125
72, 1283470829, -6.737498760223389, -0.8095329403877258, 7.1932549476623535, -2.7383952140808105, -1.2483887672424316, -2.5291647911071777, 1.116943359375, -0.40869140625, 0.049560546875
73, 1283487496, -6.733688831329346, -0.8285872340202332, 7.209167957305908, -2.684095859527588, -1.2663559913635254, -2.473392963409424, 1.115966796875, -0.40869140625, 0.05078125
74, 1283504163, -6.718892574310303, -0.828774631023407, 7.195050239562988, -2.63183331489563, -1.1479358673095703, -2.5170629024505615, 1.115966796875, -0.4091796875, 0.048583984375
75, 1283520830, -6.748864650726318, -0.8205617666244507, 7.176361083984375, -2.5128366947174072, -1.2956057786941528, -2.399333953857422, 1.1162109375, -0.407470703125, 0.048095703125
76, 1283537497, -6.732927322387695, -0.8426921963691711, 7.167787551879883, -2.4593443870544434, -1.4574908018112183, -2.3248519897460938, 1.11572265625, -0.408203125, 0.049072265625
77, 1283554164, -6.745640754699707, -0.8276942372322083, 7.18994140625, -2.450725793838501, -1.5199857950210571, -2.3036062717437744, 1.116455078125, -0.40869140625, 0.046630859375
78, 1283570831, -6.732537746429443, -0.8293762803077698, 7.186091423034668, -2.4801418781280518, -1.3965709209442139, -2.252931594848633, 1.116943359375, -0.40869140625, 0.0498046875
79, 1283587498, -6.7344183921813965, -0.8192498087882996, 7.201401710510254, -2.545851230621338, -1.244085669517517, -2.335609197616577, 1.115234375, -0.41015625, 0.048095703125
80, 1283604165, -6.749491214752197, -0.809150218963623, 7.184413433074951, -2.5754594802856445, -1.1052649021148682, -2.322777509689331, 1.118896484375, -0.4091796875, 0.04931640625
81, 1283620832, -6.7468061447143555, -0.8422974944114685, 7.1790595054626465, -2.5870108604431152, -1.206422209739685, -2.358532667160034, 1.118896484375, -0.406982421875, 0.048583984375
82, 1283637499, -6.7463154792785645, -0.840611457824707, 7.181254863739014, -2.501579761505127, -1.4268066883087158, -2.369213104248047, 1.117431640625, -0.408203125, 0.046142578125
83, 1283654166, -6.755784034729004, -0.831030011177063, 7.190655708312988, -2.573474645614624, -1.4621907472610474, -2.337632894515991, 1.118408203125, -0.407958984375, 0.049072265625
84, 1283670833, -6.74344539642334, -0.8094721436500549, 7.191235065460205, -2.5465173721313477, -1.5380427837371826, -2.430581569671631, 1.117919921875, -0.40869140625, 0.04931640625
85, 1283687500, -6.749422073364258, -0.8259786367416382, 7.169430732727051, -2.5295872688293457, -1.667604684829712, -2.462815046310425, 1.115478515625, -0.40966796875, 0.048095703125
86, 1283704167, -6.763925552368164, -0.8252420425415039, 7.18172550201416, -2.451289415359497, -1.6436312198638916, -2.427264928817749, 1.1162109375, -0.407958984375, 0.047607421875
87, 1283720834, -6.750385761260986, -0.8387356996536255, 7.169615268707275, -2.443195343017578, -1.6988776922225952, -2.4367027282714844, 1.116943359375, -0.407958984375, 0.049072265625
88, 1283737501, -6.74622917175293, -0.8444119691848755, 7.1998090744018555, -2.4379446506500244, -1.604097843170166, -2.3773579597473145, 1.115966796875, -0.40869140625, 0.049560546875
89, 1283754168, -6.739022731781006, -0.824436604976654, 7.1683807373046875, -2.4845728874206543, -1.5420126914978027, -2.2157421112060547, 1.117431640625, -0.406005859375, 0.048583984375
90, 1283770835, -6.743689060211182, -0.8477395176887512, 7.180089950561523, -2.3120970726013184, -1.565281867980957, -2.319793462753296, 1.116455078125, -0.407958984375, 0.048583984375
91, 1283787502, -6.742025852203369, -0.8480698466300964, 7.193973541259766, -2.2906594276428223, -1.65067458152771, -2.2128477096557617, 1.116943359375, -0.407470703125, 0.0498046875
92, 1283804169, -6.737436771392822, -0.8355621099472046, 7.1738152503967285, -2.20585560798645, -1.7160382270812988, -2.0866923332214355, 1.11474609375, -0.406494140625, 0.049072265625
93, 1283820836, -6.74222469329834, -0.8264737725257874, 7.189633369445801, -2.215562582015991, -1.6799625158309937, -2.184904098510742, 1.117919921875, -0.406005859375, 0.045654296875
94, 1283837503, -6.740232467651367, -0.8127307295799255, 7.197270393371582, -2.266263008117676, -1.7145013809204102, -2.2561843395233154, 1.117919921875, -0.407470703125, 0.049072265625
95, 1283854170, -6.73557186126709, -0.8293994665145874, 7.209925174713135, -2.373964309692383, -1.6836891174316406, -2.2783007621765137, 1.118408203125, -0.407958984375, 0.049072265625
96, 1283870837, -6.736506462097168, -0.8319957256317139, 7.201657772064209, -2.332420587539673, -1.6296207904815674, -2.2726149559020996, 1.119384765625, -0.408203125, 0.048095703125
97, 1283887504, -6.7366132736206055, -0.845848560333252, 7.203115940093994, -2.4046480655670166, -1.501954197883606, -2.090200901031494, 1.116455078125, -0.407470703125, 0.048583984375
98, 1283904171, -6.743310928344727, -0.8117369413375854, 7.184417247772217, -2.360504627227783, -1.5616062879562378, -2.1771178245544434, 1.115234375, -0.408203125, 0.048095703125
99, 1283920838, -6.746124267578125, -0.8198120594024658, 7.202413558959961, -2.4570906162261963, -1.5555617809295654, -2.27644419670105, 1.116455078125, -0.408203125, 0.048583984375
100, 1283937505, -6.740469455718994, -0.8178871273994446, 7.18566370010376, -2.520455837249756, -1.5943266153335571, -2.3143763542175293, 1.117431640625, -0.406982421875, 0.047119140625
101, 1283954172, -6.726865291595459, -0.8259463310241699, 7.1898417472839355, -2.448093891143799, -1.6696299314498901, -2.3592617511749268, 1.118896484375, -0.407470703125, 0.04931640625
102, 1283970839, -6.746349811553955, -0.8323007225990295, 7.182206153869629, -2.4928202629089355, -1.6898876428604126, -2.471651315689087, 1.118408203125, -0.406494140625, 0.048583984375
103, 1283987506, -6.7455010414123535, -0.8133354187011719, 7.176183700561523, -2.428224802017212, -1.6070303916931152, -2.3678555488586426, 1.117431640625, -0.4091796875, 0.0498046875
104, 1284004173, -6.730289936065674, -0.8473696112632751, 7.197817325592041, -2.4099631309509277, -1.6917957067489624, -2.369405508041382, 1.117431640625, -0.406982421875, 0.048095703125
105, 1284020840, -6.721844673156738, -0.8223182559013367, 7.204103469848633, -2.3607993125915527, -1.6227054595947266, -2.342461109161377, 1.116455078125, -0.40869140625, 0.048095703125
106, 1284037507, -6.744824409484863, -0.8145232200622559, 7.195746421813965, -2.3671131134033203, -1.5531926155090332, -2.286740303039551, 1.117919921875, -0.407470703125, 0.049072265625
107, 1284054174, -6.742287635803223, -0.815376341342926, 7.180553913116455, -2.3966574668884277, -1.5377352237701416, -2.3096253871917725, 1.116943359375, -0.4091796875, 0.048095703125
108, 1284070841, -6.734481334686279, -0.8245418071746826, 7.189149856567383, -2.3949027061462402, -1.6040210723876953, -2.3482747077941895, 1.116943359375, -0.407958984375, 0.046142578125
109, 1284087508, -6.7475175857543945, -0.8218801021575928, 7.209928035736084, -2.4012420177459717, -1.6208487749099731, -2.392444133758545, 1.115966796875, -0.41015625, 0.047607421875
110, 1284104175, -6.738692760467529, -0.8359717726707458, 7.193245887756348, -2.5101985931396484, -1.6806544065475464, -2.449125051498413, 1.117919921875, -0.408203125, 0.048583984375
111, 1284120842, -6.740340232849121, -0.851296067237854, 7.180261135101318, -2.38130259513855, -1.68376624584198, -2.378241539001465, 1.118408203125, -0.407470703125, 0.047119140625
112, 1284137509, -6.734227180480957, -0.8205242156982422, 7.17431640625, -2.3076531887054443, -1.7378602027893066, -2.4621875286102295, 1.1162109375, -0.406005859375, 0.049072265625
113, 1284154176, -6.738094329833984, -0.8341808915138245, 7.192429542541504, -2.2952566146850586, -1.7794424295425415, -2.420771598815918, 1.11572265625, -0.40771484375, 0.046630859375
114, 1284170843, -6.750671863555908, -0.8252496123313904, 7.188464641571045, -2.307025671005249, -1.7611548900604248, -2.3785617351531982, 1.116455078125, -0.407470703125, 0.049560546875
115, 1284187510, -6.722411632537842, -0.8178282976150513, 7.19642448425293, -2.327310800552368, -1.709238052368164, -2.3971056938171387, 1.116943359375, -0.406494140625, 0.0498046875
116, 1284204177, -6.724898815155029, -0.844948947429657, 7.2042622566223145, -2.364154577255249, -1.606249213218689, -2.347480535507202, 1.1162109375, -0.406494140625, 0.046630859375
117, 1284220844, -6.721288204193115, -0.8269231915473938, 7.1944427490234375, -2.3784594535827637, -1.5547934770584106, -2.3375561237335205, 1.11572265625, -0.407470703125, 0.048095703125
118, 1284237511, -6.732889175415039, -0.8347518444061279, 7.186734676361084, -2.429582118988037, -1.672816514968872, -2.2824501991271973, 1.115234375, -0.406982421875, 0.046142578125
119, 1284254178, -6.738394260406494, -0.8368549942970276, 7.179033279418945, -2.4260733127593994, -1.658972978591919, -2.345393419265747, 1.117919921875, -0.406494140625, 0.048583984375
120, 1284270845, -6.723721504211426, -0.8394964337348938, 7.181257724761963, -2.3609914779663086, -1.6786820888519287, -2.332817554473877, 1.118408203125, -0.406982421875, 0.047119140625
121, 1284287512, -6.728199005126953, -0.8344707489013672, 7.197347164154053, -2.392956256866455, -1.6540169715881348, -2.34386944770813, 1.116943359375, -0.406982421875, 0.048095703125
122, 1284304179, -6.732724666595459, -0.8535970449447632, 7.201305389404297, -2.3140816688537598, -1.608669638633728, -2.3733880519866943, 1.11572265625, -0.4091796875, 0.048583984375
123, 1284320846, -6.727190971374512, -0.8447865843772888, 7.2022294998168945, -2.4382011890411377, -1.7453008890151978, -2.3821096420288086, 1.116455078125, -0.407958984375, 0.047607421875
124, 1284337513, -6.72336483001709, -0.8357062339782715, 7.196714401245117, -2.373439073562622, -1.6579740047454834, -2.355074882507324, 1.116455078125, -0.407470703125, 0.046630859375
125, 1284354180, -6.728028774261475, -0.842453122138977, 7.186082363128662, -2.2791078090667725, -1.6542346477508545, -2.366908073425293, 1.118408203125, -0.407958984375, 0.047119140625
126, 1284370847, -6.740705490112305, -0.8229626417160034, 7.206791877746582, -2.3864762783050537, -1.6617263555526733, -2.4031755924224854, 1.117431640625, -0.407958984375, 0.049560546875
127, 1284387514, -6.736617565155029, -0.8174836039543152, 7.209908485412598, -2.3426272869110107, -1.722556710243225, -2.399679660797119, 1.11669921875, -0.406494140625, 0.048095703125
128, 1284404181, -6.736130237579346, -0.8179786801338196, 7.191318035125732, -2.3244166374206543, -1.8378139734268188, -2.429403305053711, 1.11572265625, -0.40771484375, 0.046142578125
129, 1284420848, -6.722833633422852, -0.8436861038208008, 7.168613910675049, -2.3756039142608643, -1.7543165683746338, -2.4222187995910645, 1.115234375, -0.40771484375, 0.045654296875
130, 1284437515, -6.724170207977295, -0.840553879737854, 7.192496299743652, -2.287188768386841, -1.8139042854309082, -2.4634552001953125, 1.117431640625, -0.405029296875, 0.047607421875
131, 1284454182, -6.71572732925415, -0.8473268151283264, 7.196044921875, -2.3614399433135986, -1.7804287672042847, -2.425740957260132, 1.11669921875, -0.406494140625, 0.046630859375
132, 1284470849, -6.718806266784668, -0.8499762415885925, 7.199123382568359, -2.4903359413146973, -1.6698329448699951, -2.451968193054199, 1.11572265625, -0.40869140625, 0.047119140625
133, 1284487516, -6.7222371101379395, -0.8486568927764893, 7.202359676361084, -2.4819347858428955, -1.6289805173873901, -2.478464126586914, 1.115234375, -0.407470703125, 0.048095703125
134, 1284504183, -6.722375869750977, -0.8385357856750488, 7.197935104370117, -2.450982093811035, -1.6681426763534546, -2.4558610916137695, 1.116943359375, -0.405517578125, 0.047607421875
135, 1284520850, -6.713237762451172, -0.8541353940963745, 7.209048748016357, -2.3906641006469727, -1.6166993379592896, -2.2244632244110107, 1.11669921875, -0.406005859375, 0.046142578125
136, 1284537517, -6.720344066619873, -0.8433282375335693, 7.1973161697387695, -2.37188982963562, -1.5985655784606934, -2.2260639667510986, 1.116943359375, -0.406005859375, 0.048095703125
137, 1284554184, -6.72503662109375, -0.8368911147117615, 7.209046840667725, -2.3489532470703125, -1.5491935014724731, -2.1350488662719727, 1.115234375, -0.406494140625, 0.047119140625
138, 1284570851, -6.724104881286621, -0.8322339653968811, 7.19620418548584, -2.2188150882720947, -1.5997947454452515, -2.1496481895446777, 1.11572265625, -0.407470703125, 0.046630859375
139, 1284587518, -6.723083972930908, -0.8315578699111938, 7.216640949249268, -2.3706090450286865, -1.629915475845337, -2.193868637084961, 1.11474609375, -0.406494140625, 0.047119140625
140, 1284604185, -6.723308086395264, -0.8394193649291992, 7.202506065368652, -2.3483388423919678, -1.5879106521606445, -2.3032479286193848, 1.115234375, -0.408203125, 0.046630859375
141, 1284620852, -6.72368860244751, -0.8347887396812439, 7.20802640914917, -2.39284086227417, -1.6554129123687744, -2.2305591106414795, 1.116943359375, -0.408203125, 0.045654296875
142, 1284637519, -6.723658561706543, -0.835010826587677, 7.188574314117432, -2.398808479309082, -1.5300641059875488, -2.179051399230957, 1.11669921875, -0.406005859375, 0.046630859375
143, 1284654186, -6.710259914398193, -0.8365650773048401, 7.185581684112549, -2.3564324378967285, -1.619734287261963, -2.2276132106781006, 1.11572265625, -0.408203125, 0.047119140625
144, 1284670853, -6.71179723739624, -0.8452914953231812, 7.217570781707764, -2.424408435821533, -1.6119481325149536, -2.187452554702759, 1.117431640625, -0.407470703125, 0.046142578125
145, 1284687520, -6.709321975708008, -0.8375526666641235, 7.207230091094971, -2.337427854537964, -1.4811439514160156, -2.120488166809082, 1.116455078125, -0.407958984375, 0.046630859375
146, 1284704187, -6.718883514404297, -0.8256469368934631, 7.20734167098999, -2.41005277633667, -1.4611278772354126, -2.238191604614258, 1.11572265625, -0.406005859375, 0.047119140625
147, 1284720854, -6.720881938934326, -0.8196687698364258, 7.1927666664123535, -2.4158666133880615, -1.456107497215271, -2.1683454513549805, 1.116943359375, -0.406005859375, 0.047119140625
148, 1284737521, -6.728542804718018, -0.8261001110076904, 7.19517707824707, -2.3232381343841553, -1.3895529508590698, -2.198901414871216, 1.1162109375, -0.406494140625, 0.045654296875
149, 1284754188, -6.728668212890625, -0.8241756558418274, 7.208837985992432, -2.3669722080230713, -1.5656275749206543, -2.167487859725952, 1.11474609375, -0.408203125, 0.046142578125
150, 1284770855, -6.716574192047119, -0.8454425930976868, 7.183617115020752, -2.3448941707611084, -1.5630791187286377, -2.1829707622528076, 1.115966796875, -0.408203125, 0.05029296875
151, 1284787522, -6.721139907836914, -0.8284919261932373, 7.198696136474609, -2.318423271179199, -1.5825448036193848, -2.207853078842163, 1.117431640625, -0.4091796875, 0.045654296875
152, 1284804189, -6.732982635498047, -0.8230083584785461, 7.192996978759766, -2.302184820175171, -1.6473705768585205, -2.2504725456237793, 1.116943359375, -0.408203125, 0.048095703125
153, 1284820856, -6.734921932220459, -0.8322958946228027, 7.2104620933532715, -2.3267345428466797, -1.6352684497833252, -2.2481679916381836, 1.11328125, -0.406005859375, 0.04638671875
154, 1284837523, -6.736148357391357, -0.8300313949584961, 7.21146297454834, -2.302889347076416, -1.6045972108840942, -2.3445098400115967, 1.1162109375, -0.406982421875, 0.047119140625
155, 1284854190, -6.7136454582214355, -0.8353348970413208, 7.184014320373535, -2.271027088165283, -1.7212375402450562, -2.20416522026062, 1.117431640625, -0.40869140625, 0.046142578125
156, 1284870857, -6.708165168762207, -0.8342279195785522, 7.207890510559082, -2.194176197052002, -1.7625508308410645, -2.139416217803955, 1.115234375, -0.408203125, 0.047607421875
157, 1284887524, -6.71958065032959, -0.835119903087616, 7.227381706237793, -2.2480013370513916, -1.7847442626953125, -2.1889894008636475, 1.1162109375, -0.406005859375, 0.047607421875
158, 1284904191, -6.723371982574463, -0.8196681141853333, 7.215877532958984, -2.3009939193725586, -1.73832106590271, -2.2649567127227783, 1.11376953125, -0.407470703125, 0.046142578125
159, 1284920858, -6.727737903594971, -0.8273981213569641, 7.196321964263916, -2.245824098587036, -1.6118968725204468, -2.253162145614624, 1.11669921875, -0.406494140625, 0.0439453125
160, 1284937525, -6.727714538574219, -0.8323128819465637, 7.216403484344482, -2.399449110031128, -1.6070305109024048, -2.2627029418945312, 1.116455078125, -0.407470703125, 0.046142578125
161, 1284954192, -6.723808288574219, -0.8347113132476807, 7.1991963386535645, -2.4080419540405273, -1.5675100088119507, -2.2631380558013916, 1.115966796875, -0.40869140625, 0.045166015625
162, 1284970859, -6.708169937133789, -0.8181107640266418, 7.210971355438232, -2.36564040184021, -1.5686242580413818, -2.2017064094543457, 1.116943359375, -0.407470703125, 0.045166015625
163, 1284987526, -6.716540336608887, -0.825812816619873, 7.200693607330322, -2.3621952533721924, -1.4796713590621948, -2.2350540161132812, 1.11572265625, -0.406494140625, 0.04541015625
164, 1285004193, -6.713900566101074, -0.8211066722869873, 7.198458671569824, -2.3532567024230957, -1.5770379304885864, -2.2620623111724854, 1.116455078125, -0.407958984375, 0.04443359375
165, 1285020860, -6.714235782623291, -0.8208234310150146, 7.215761661529541, -2.3500163555145264, -1.505975604057312, -2.165541172027588, 1.116943359375, -0.407958984375, 0.04443359375
166, 1285037527, -6.706264019012451, -0.8388260006904602, 7.207701683044434, -2.357598066329956, -1.5821990966796875, -2.245004653930664, 1.11572265625, -0.408203125, 0.04541015625
167, 1285054194, -6.714944839477539, -0.8314020037651062, 7.201320171356201, -2.3113667964935303, -1.568444848060608, -2.1943936347961426, 1.11572265625, -0.406005859375, 0.04541015625
168, 1285070861, -6.70972204208374, -0.8343648314476013, 7.205715656280518, -2.2690160274505615, -1.5424734354019165, -2.1397745609283447, 1.115966796875, -0.41015625, 0.046630859375
169, 1285087528, -6.714625835418701, -0.8434281349182129, 7.201870441436768, -2.308434009552002, -1.5425246953964233, -2.1828677654266357, 1.1142578125, -0.407470703125, 0.046142578125
170, 1285104195, -6.725782871246338, -0.8191192150115967, 7.195900917053223, -2.271731376647949, -1.5182183980941772, -2.179435968399048, 1.115234375, -0.406494140625, 0.044921875
171, 1285120862, -6.714252948760986, -0.8315097093582153, 7.222631931304932, -2.313415765762329, -1.4987143278121948, -2.050475835800171, 1.116455078125, -0.40869140625, 0.046142578125
172, 1285137529, -6.724361419677734, -0.8237308263778687, 7.210616111755371, -2.3220090866088867, -1.5486974716186523, -2.1008689403533936, 1.115234375, -0.407470703125, 0.04443359375
173, 1285154196, -6.713103771209717, -0.8260071277618408, 7.217988967895508, -2.3082187175750732, -1.519932746887207, -2.166857957839966, 1.115234375, -0.407470703125, 0.045654296875
174, 1285170863, -6.733676433563232, -0.8071334362030029, 7.204187393188477, -2.284972906112671, -1.5283993482589722, -2.197671890258789, 1.115234375, -0.40869140625, 0.046630859375
175, 1285187530, -6.732832908630371, -0.823065459728241, 7.2121195793151855, -2.38814115524292, -1.5468151569366455, -2.2459521293640137, 1.11669921875, -0.405517578125, 0.047607421875
176, 1285204197, -6.709133625030518, -0.8300806283950806, 7.219534397125244, -2.43520450592041, -1.5046052932739258, -2.250626564025879, 1.117431640625, -0.408203125, 0.04150390625
177, 1285220864, -6.705996990203857, -0.812710702419281, 7.202152252197266, -2.3480312824249268, -1.44294273853302, -2.2327868938446045, 1.116455078125, -0.40869140625, 0.045166015625
178, 1285237531, -6.722128391265869, -0.8358657956123352, 7.203413963317871, -2.445308208465576, -1.4557489156723022, -2.245170831680298, 1.117431640625, -0.406005859375, 0.045654296875
179, 1285254198, -6.728703498840332, -0.8217825293540955, 7.208563327789307, -2.508341073989868, -1.4643034934997559, -2.231083631515503, 1.117431640625, -0.4091796875, 0.046142578125
180, 1285270865, -6.706915855407715, -0.8243899941444397, 7.225380897521973, -2.502936840057373, -1.2450716495513916, -2.2944109439849854, 1.116455078125, -0.407958984375, 0.045654296875
181, 1285287532, -6.721017360687256, -0.818486750125885, 7.201175689697266, -2.38865327835083, -1.3570250272750854, -2.218533515930176, 1.115966796875, -0.40869140625, 0.046142578125
182, 1285304199, -6.705665111541748, -0.8324719667434692, 7.198622703552246, -2.437163829803467, -1.3911283016204834, -2.255518674850464, 1.116943359375, -0.40966796875, 0.047119140625
183, 1285320866, -6.7240376472473145, -0.8185181617736816, 7.204901218414307, -2.2682223320007324, -1.4833850860595703, -2.3016598224639893, 1.116943359375, -0.407958984375, 0.046630859375
184, 1285337533, -6.73411750793457, -0.8073506951332092, 7.183976650238037, -2.3085622787475586, -1.4596422910690308, -2.206982374191284, 1.116455078125, -0.407470703125, 0.047119140625
185, 1285354200, -6.716969966888428, -0.8059772849082947, 7.181402683258057, -2.327054738998413, -1.4440056085586548, -2.3537046909332275, 1.117431640625, -0.407470703125, 0.047607421875
186, 1285370867, -6.706455230712891, -0.8169601559638977, 7.206296920776367, -2.408938407897949, -1.4829624891281128, -2.309586763381958, 1.11572265625, -0.40771484375, 0.047119140625
187, 1285387534, -6.714932441711426, -0.8124861717224121, 7.197002410888672, -2.3934171199798584, -1.4884052276611328, -2.3994107246398926, 1.116455078125, -0.408203125, 0.046630859375
188, 1285404201, -6.724120140075684, -0.8360086679458618, 7.2070417404174805, -2.4916417598724365, -1.5203827619552612, -2.354588270187378, 1.116943359375, -0.4091796875, 0.046142578125
189, 1285420868, -6.7321906089782715, -0.8306530714035034, 7.19451904296875, -2.385183095932007, -1.5154650211334229, -2.378805160522461, 1.11572265625, -0.40771484375, 0.045654296875
190, 1285437535, -6.720789432525635, -0.844427764415741, 7.203309535980225, -2.3928792476654053, -1.4738572835922241, -2.2923495769500732, 1.1162109375, -0.40771484375, 0.04443359375
191, 1285454202, -6.72593879699707, -0.820052444934845, 7.206030368804932, -2.414816379547119, -1.4051510095596313, -2.254967451095581, 1.118408203125, -0.40869140625, 0.04345703125
192, 1285470869, -6.712793350219727, -0.8449774980545044, 7.208359718322754, -2.3852083683013916, -1.401526927947998, -2.1661813259124756, 1.1142578125, -0.408203125, 0.0458984375
193, 1285487536, -6.729602813720703, -0.8296909928321838, 7.211969375610352, -2.333099126815796, -1.411285161972046, -2.1308226585388184, 1.116455078125, -0.40966796875, 0.046630859375
194, 1285504203, -6.715167999267578, -0.8194444179534912, 7.199403285980225, -2.4012417793273926, -1.500981092453003, -2.2052407264709473, 1.116943359375, -0.407470703125, 0.045166015625
195, 1285520870, -6.712884902954102, -0.8218055367469788, 7.194386959075928, -2.3300256729125977, -1.5290910005569458, -2.2377817630767822, 1.117431640625, -0.40869140625, 0.046630859375
196, 1285537537, -6.731828689575195, -0.8354632258415222, 7.184476375579834, -2.353627920150757, -1.5640140771865845, -2.2721540927886963, 1.11376953125, -0.406982421875, 0.04541015625
197, 1285554204, -6.723853588104248, -0.8191217184066772, 7.193613052368164, -2.3224315643310547, -1.6513787508010864, -2.2941677570343018, 1.115234375, -0.40869140625, 0.047607421875
198, 1285570871, -6.713249206542969, -0.8331323862075806, 7.190842628479004, -2.377178907394409, -1.713655948638916, -2.188220977783203, 1.116943359375, -0.40869140625, 0.044677734375
199, 1285587538, -6.708406925201416, -0.8163251280784607, 7.212394714355469, -2.3006479740142822, -1.6970206499099731, -2.256337881088257, 1.1142578125, -0.407470703125, 0.046142578125
200, 1285604205, -6.73148775100708, -0.8115572929382324, 7.205487251281738, -2.295217752456665, -1.6172369718551636, -2.2599236965179443, 1.117919921875, -0.407470703125, 0.046142578125
201, 1285620872, -6.72468376159668, -0.808927595615387, 7.222545146942139, -2.382262945175171, -1.6183127164840698, -2.284025192260742, 1.1142578125, -0.40966796875, 0.047119140625
202, 1285637539, -6.709315776824951, -0.8143460750579834, 7.221841812133789, -2.433091163635254, -1.574130892753601, -2.2742409706115723, 1.115234375, -0.408203125, 0.044921875
203, 1285654206, -6.711453914642334, -0.8230704665184021, 7.198065280914307, -2.3805084228515625, -1.6335653066635132, -2.2050487995147705, 1.1162109375, -0.407958984375, 0.046630859375
204, 1285670873, -6.717215538024902, -0.8296762704849243, 7.213834762573242, -2.3459441661834717, -1.6628918647766113, -2.251984119415283, 1.11376953125, -0.407470703125, 0.048095703125
205, 1285687540, -6.720740795135498, -0.8071402311325073, 7.191631317138672, -2.3161051273345947, -1.5915604829788208, -2.198120355606079, 1.11474609375, -0.40771484375, 0.045654296875
206, 1285704207, -6.728585243225098, -0.8080753684043884, 7.1986846923828125, -2.351950168609619, -1.5541914701461792, -2.2870733737945557, 1.116455078125, -0.40869140625, 0.04296875
207, 1285720874, -6.710766792297363, -0.8246147036552429, 7.220407962799072, -2.3525779247283936, -1.555869221687317, -2.2173941135406494, 1.11572265625, -0.406982421875, 0.047119140625
208, 1285737541, -6.7136101722717285, -0.8238500952720642, 7.19378662109375, -2.311328649520874, -1.6610475778579712, -2.239574432373047, 1.11572265625, -0.407470703125, 0.046142578125
209, 1285754208, -6.716407299041748, -0.8088359832763672, 7.188957214355469, -2.260812520980835, -1.5727813243865967, -2.2158520221710205, 1.11572265625, -0.40771484375, 0.04541015625
210, 1285770875, -6.72429895401001, -0.8380898833274841, 7.200498104095459, -2.336480140686035, -1.5764490365982056, -2.2044084072113037, 1.115234375, -0.40966796875, 0.045166015625
211, 1285787542, -6.71467399597168, -0.8199945092201233, 7.210136890411377, -2.4815762042999268, -1.4174069166183472, -2.2763161659240723, 1.115234375, -0.40869140625, 0.047119140625
212, 1285804209, -6.714480400085449, -0.8169183135032654, 7.201953411102295, -2.4486892223358154, -1.452406406402588, -2.352001190185547, 1.1162109375, -0.408203125, 0.045166015625
213, 1285820876, -6.7264204025268555, -0.8230676054954529, 7.233959674835205, -2.555276870727539, -1.4146407842636108, -2.376692533493042, 1.117919921875, -0.407958984375, 0.045654296875
214, 1285837543, -6.709649562835693, -0.8264411091804504, 7.19814395904541, -2.425855875015259, -1.433222770690918, -2.38873028755188, 1.116943359375, -0.406494140625, 0.044921875
215, 1285854210, -6.70767879486084, -0.8343684077262878, 7.196033954620361, -2.4880435466766357, -1.5923289060592651, -2.2390623092651367, 1.115966796875, -0.40869140625, 0.045654296875
216, 1285870877, -6.721338272094727, -0.8157654404640198, 7.227315902709961, -2.3670616149902344, -1.5619903802871704, -2.239126205444336, 1.116943359375, -0.408203125, 0.045654296875
217, 1285887544, -6.707983493804932, -0.8128995895385742, 7.17836332321167, -2.3893957138061523, -1.564257025718689, -2.3399760723114014, 1.115234375, -0.406982421875, 0.04443359375
218, 1285904211, -6.706159591674805, -0.7973906397819519, 7.219135284423828, -2.4250359535217285, -1.4659558534622192, -2.3814563751220703, 1.115234375, -0.408203125, 0.046142578125
219, 1285920878, -6.711722373962402, -0.81505286693573, 7.216749668121338, -2.533031940460205, -1.4216201305389404, -2.4050838947296143, 1.1162109375, -0.408203125, 0.04443359375
220, 1285937545, -6.721068859100342, -0.8131211996078491, 7.223737716674805, -2.4208099842071533, -1.3806911706924438, -2.477760076522827, 1.11669921875, -0.406982421875, 0.045166015625
221, 1285954212, -6.726005554199219, -0.8129895329475403, 7.209383487701416, -2.4596900939941406, -1.3084760904312134, -2.4067487716674805, 1.116943359375, -0.407958984375, 0.045166015625
222, 1285970879, -6.731446266174316, -0.8288840651512146, 7.220672607421875, -2.3808796405792236, -1.1972911357879639, -2.354332208633423, 1.115234375, -0.40771484375, 0.04443359375
223, 1285987546, -6.733302116394043, -0.8332430720329285, 7.190898895263672, -2.4032399654388428, -1.227808952331543, -2.3675994873046875, 1.11572265625, -0.4091796875, 0.046142578125
224, 1286004213, -6.724083423614502, -0.821516215801239, 7.200958251953125, -2.3724918365478516, -1.2468904256820679, -2.365947961807251, 1.115966796875, -0.40869140625, 0.047119140625
225, 1286020880, -6.720813751220703, -0.8073348999023438, 7.211812496185303, -2.4615468978881836, -1.2366836071014404, -2.428339958190918, 1.116455078125, -0.407958984375, 0.047119140625
226, 1286037547, -6.727400302886963, -0.836601197719574, 7.181372165679932, -2.4446938037872314, -1.2364020347595215, -2.3991801738739014, 1.115966796875, -0.408203125, 0.046142578125
227, 1286054214, -6.707257270812988, -0.8346812725067139, 7.194398880004883, -2.420067310333252, -1.2993322610855103, -2.27481746673584, 1.116943359375, -0.40966796875, 0.045654296875
228, 1286070881, -6.71375846862793, -0.8147245049476624, 7.189703464508057, -2.356534719467163, -1.190106749534607, -2.132974147796631, 1.116455078125, -0.407470703125, 0.045166015625
229, 1286087548, -6.7249908447265625, -0.8228310942649841, 7.185249328613281, -2.4119606018066406, -1.3629412651062012, -2.199362277984619, 1.115234375, -0.408203125, 0.045654296875
230, 1286104215, -6.731846809387207, -0.8138652443885803, 7.199542045593262, -2.414355516433716, -1.4935919046401978, -2.2531747817993164, 1.116455078125, -0.40869140625, 0.045654296875
231, 1286120882, -6.727405548095703, -0.8085111975669861, 7.220834255218506, -2.3482749462127686, -1.5627334117889404, -2.2008228302001953, 1.11572265625, -0.407470703125, 0.047119140625
232, 1286137549, -6.726476669311523, -0.7987881898880005, 7.199665546417236, -2.4417357444763184, -1.5517199039459229, -2.2478861808776855, 1.116943359375, -0.4091796875, 0.048095703125
233, 1286154216, -6.721160888671875, -0.807421863079071, 7.198503017425537, -2.4824469089508057, -1.4540331363677979, -2.429288148880005, 1.11669921875, -0.406982421875, 0.046142578125
234, 1286170883, -6.731401443481445, -0.8198117613792419, 7.2219929695129395, -2.532750368118286, -1.4333124160766602, -2.4630327224731445, 1.1162109375, -0.406494140625, 0.048095703125
235, 1286187550, -6.7076416015625, -0.8428128957748413, 7.1905035972595215, -2.5881123542785645, -1.4412652254104614, -2.5177414417266846, 1.11474609375, -0.406982421875, 0.049560546875
236, 1286204217, -6.715768337249756, -0.8443353176116943, 7.190642356872559, -2.5393967628479004, -1.3468822240829468, -2.34997820854187, 1.117431640625, -0.40869140625, 0.048583984375
237, 1286220884, -6.7281694412231445, -0.8390434384346008, 7.196378707885742, -2.5039618015289307, -1.344269871711731, -2.245170831680298, 1.11572265625, -0.40869140625, 0.047607421875
238, 1286237551, -6.724300384521484, -0.8251864910125732, 7.184641361236572, -2.4170706272125244, -1.415281057357788, -2.199221611022949, 1.118408203125, -0.408203125, 0.046630859375
239, 1286254218, -6.7233195304870605, -0.8302315473556519, 7.163564205169678, -2.297292470932007, -1.566831111907959, -2.259552240371704, 1.118408203125, -0.40966796875, 0.044189453125
240, 1286270885, -6.723903656005859, -0.8263819217681885, 7.205777645111084, -2.333240270614624, -1.621399164199829, -2.1715216636657715, 1.117919921875, -0.407470703125, 0.046630859375
241, 1286287552, -6.732384204864502, -0.8298378586769104, 7.175097465515137, -2.2335169315338135, -1.6251384019851685, -2.1948418617248535, 1.115234375, -0.40771484375, 0.045654296875
242, 1286304219, -6.713037014007568, -0.825836718082428, 7.200856685638428, -2.2102603912353516, -1.591496229171753, -2.124816656112671, 1.116943359375, -0.407470703125, 0.046630859375
243, 1286320886, -6.707090377807617, -0.8500255346298218, 7.204952716827393, -2.081953525543213, -1.6854820251464844, -2.0094058513641357, 1.116455078125, -0.40966796875, 0.046142578125
244, 1286337553, -6.721841335296631, -0.8290804028511047, 7.1708197593688965, -2.0482730865478516, -1.7568901777267456, -1.9347704648971558, 1.118408203125, -0.406982421875, 0.047607421875
245, 1286354220, -6.733484268188477, -0.8261103630065918, 7.211400508880615, -2.101958990097046, -1.7057161331176758, -1.9136916399002075, 1.117431640625, -0.408203125, 0.045654296875
246, 1286370887, -6.717324733734131, -0.8221685290336609, 7.21170711517334, -2.175811529159546, -1.5791124105453491, -2.0032589435577393, 1.117431640625, -0.41064453125, 0.047607421875
247, 1286387554, -6.735532760620117, -0.8078309893608093, 7.205564022064209, -2.2736775875091553, -1.6056218147277832, -2.0029642581939697, 1.115966796875, -0.4091796875, 0.046142578125
248, 1286404221, -6.721948146820068, -0.8415297865867615, 7.215082168579102, -2.2736263275146484, -1.6086695194244385, -2.030740976333618, 1.11474609375, -0.40771484375, 0.046142578125
249, 1286420888, -6.7167205810546875, -0.8501003980636597, 7.2068047523498535, -2.25341796875, -1.5645771026611328, -1.8746446371078491, 1.116943359375, -0.40869140625, 0.047119140625
250, 1286437555, -6.726302623748779, -0.7940627336502075, 7.211376667022705, -2.2663652896881104, -1.5611450672149658, -1.8460990190505981, 1.118408203125, -0.408203125, 0.04345703125
251, 1286454222, -6.718888759613037, -0.8207472562789917, 7.2105584144592285, -2.3756802082061768, -1.5052070617675781, -1.9730103015899658, 1.116943359375, -0.40869140625, 0.044677734375
252, 1286470889, -6.718111991882324, -0.8061426877975464, 7.215271949768066, -2.5422523021698, -1.3992472887039185, -1.8999626636505127, 1.11572265625, -0.40869140625, 0.046142578125
253, 1286487556, -6.723563194274902, -0.8199062943458557, 7.208104610443115, -2.6413989067077637, -1.238348364830017, -2.0136446952819824, 1.116455078125, -0.408203125, 0.048583984375
254, 1286504223, -6.719685077667236, -0.8353762030601501, 7.1840081214904785, -2.5286264419555664, -1.504848599433899, -1.9905295372009277, 1.116943359375, -0.40966796875, 0.045166015625
255, 1286520890, -6.713359355926514, -0.8576210737228394, 7.182920455932617, -2.2938859462738037, -1.6339620351791382, -1.7029626369476318, 1.116943359375, -0.40869140625, 0.0439453125
256, 1286537557, -6.722353458404541, -0.7556973695755005, 7.205280780792236, -2.1665780544281006, -1.4589890241622925, -1.6050454378128052, 1.11572265625, -0.40869140625, 0.046630859375
257, 1286554224, -6.728446006774902, -0.7967754602432251, 7.207004070281982, -2.3705575466156006, -1.411157250404358, -1.810421109199524, 1.116943359375, -0.40869140625, 0.04443359375
258, 1286570891, -6.72186803817749, -0.8098658323287964, 7.16489315032959, -2.284025192260742, -1.515669822692871, -1.8704054355621338, 1.116943359375, -0.4091796875, 0.046630859375
259, 1286587558, -6.7353901863098145, -0.8004124164581299, 7.198605537414551, -2.2878544330596924, -1.442955493927002, -1.946001648902893, 1.117431640625, -0.40966796875, 0.046630859375
260, 1286604225, -6.745642185211182, -0.7994189262390137, 7.203948020935059, -2.3755266666412354, -1.5412697792053223, -2.039487838745117, 1.116455078125, -0.40966796875, 0.047607421875
261, 1286620892, -6.7416181564331055, -0.8031333088874817, 7.199105262756348, -2.61793851852417, -1.8219596147537231, -2.2152044773101807, 1.116943359375, -0.40869140625, 0.045654296875
262, 1286637559, -6.724619388580322, -0.7803535461425781, 7.239041805267334, -2.536937952041626, -1.660791277885437, -2.270155906677246, 1.11572265625, -0.40869140625, 0.048095703125
263, 1286654226, -6.7236247062683105, -0.783486008644104, 7.236888408660889, -2.5738329887390137, -1.3390190601348877, -2.2542123794555664, 1.116943359375, -0.407958984375, 0.045166015625
264, 1286670893, -6.733274459838867, -0.7640781998634338, 7.224442005157471, -2.929529905319214, -0.8447710275650024, -2.621870279312134, 1.11572265625, -0.408203125, 0.050048828125
265, 1286687560, -6.725156784057617, -0.7931197881698608, 7.21542501449585, -3.1418070793151855, -0.7284891605377197, -2.7378053665161133, 1.11572265625, -0.408203125, 0.04541015625
266, 1286704227, -6.742135524749756, -0.7953673005104065, 7.217240810394287, -2.987029790878296, -0.6958202123641968, -2.7873785495758057, 1.115966796875, -0.41064453125, 0.048095703125
267, 1286720894, -6.724340438842773, -0.8189973831176758, 7.221205711364746, -2.8779842853546143, -0.3347068130970001, -2.669471263885498, 1.118896484375, -0.407958984375, 0.046142578125
268, 1286737561, -6.736649990081787, -0.8030209541320801, 7.194140911102295, -3.017406463623047, -0.12172435224056244, -2.775379180908203, 1.11376953125, -0.40869140625, 0.046630859375
269, 1286754228, -6.731573104858398, -0.8095526099205017, 7.178666114807129, -3.2472805976867676, -0.09956937283277512, -2.8577115535736084, 1.117919921875, -0.4091796875, 0.046630859375
270, 1286770895, -6.7199506759643555, -0.856535792350769, 7.184131145477295, -3.1951589584350586, -0.42355725169181824, -2.856994390487671, 1.117431640625, -0.40869140625, 0.048095703125
271, 1286787562, -6.740604877471924, -0.8099293112754822, 7.180665969848633, -3.0776216983795166, -0.48148033022880554, -2.81064772605896, 1.116943359375, -0.407958984375, 0.05029296875
272, 1286804229, -6.729327201843262, -0.8170186281204224, 7.172686576843262, -3.158673048019409, -0.48822924494743347, -2.8293962478637695, 1.116455078125, -0.408203125, 0.048095703125
273, 1286820896, -6.729466915130615, -0.8378827571868896, 7.172039985656738, -3.183619976043701, -0.4730665385723114, -2.7598836421966553, 1.116943359375, -0.406982421875, 0.048095703125
274, 1286837563, -6.724978446960449, -0.8438094854354858, 7.179031848907471, -3.1647050380706787, -0.40589725971221924, -2.5554301738739014, 1.118896484375, -0.407470703125, 0.046630859375
275, 1286854230, -6.722579479217529, -0.8507366180419922, 7.174182891845703, -2.838489055633545, -0.4031183123588562, -2.2546603679656982, 1.120361328125, -0.407470703125, 0.047607421875
276, 1286870897, -6.751979827880859, -0.8314334154129028, 7.162198543548584, -2.899690866470337, -0.34718018770217896, -2.162198781967163, 1.119873046875, -0.407470703125, 0.04931640625
277, 1286887564, -6.761765003204346, -0.8404624462127686, 7.159727096557617, -2.8778555393218994, -0.6867789030075073, -2.182176113128662, 1.118408203125, -0.408203125, 0.04931640625
278, 1286904231, -6.745545864105225, -0.8446751236915588, 7.1674113273620605, -2.797226905822754, -0.9048967957496643, -2.139185667037964, 1.117919921875, -0.406005859375, 0.049072265625
279, 1286920898, -6.753995895385742, -0.8272913098335266, 7.168694972991943, -2.7495875358581543, -1.0358672142028809, -2.2717185020446777, 1.117919921875, -0.406005859375, 0.05029296875
280, 1286937565, -6.7452287673950195, -0.8522939682006836, 7.171630859375, -2.693431854248047, -1.2262464761734009, -2.2476937770843506, 1.120849609375, -0.406982421875, 0.048828125
281, 1286954232, -6.7506279945373535, -0.839871883392334, 7.169310569763184, -2.6261045932769775, -1.3794556856155396, -2.256164073944092, 1.118408203125, -0.407470703125, 0.049072265625
282, 1286970899, -6.7620673179626465, -0.8168566226959229, 7.185601234436035, -2.668689727783203, -1.2990761995315552, -2.2570552825927734, 1.117431640625, -0.405517578125, 0.0517578125
283, 1286987566, -6.759706974029541, -0.8308883905410767, 7.2118754386901855, -2.9419264793395996, -1.1095166206359863, -2.277596950531006, 1.118408203125, -0.408203125, 0.05126953125
284, 1287004233, -6.7708306312561035, -0.8078332543373108, 7.22125768661499, -3.4477121829986572, -1.1250377893447876, -2.417095899581909, 1.118408203125, -0.406982421875, 0.05078125
285, 1287020900, -6.767068862915039, -0.821265459060669, 7.178659915924072, -3.923276424407959, -1.0500823259353638, -2.810391902923584, 1.118408203125, -0.405517578125, 0.05078125
286, 1287037567, -6.730443954467773, -0.9435908794403076, 7.125158786773682, -4.039878845214844, -1.1843825578689575, -2.828026533126831, 1.119873046875, -0.405029296875, 0.049072265625
287, 1287054234, -6.713322639465332, -0.9168190956115723, 7.1589202880859375, -3.5704362392425537, -1.5416924953460693, -2.421283721923828, 1.118896484375, -0.405517578125, 0.05126953125
288, 1287070901, -6.718137264251709, -0.8342269659042358, 7.154855251312256, -3.392824649810791, -1.5209332704544067, -2.1166205406188965, 1.118896484375, -0.405029296875, 0.05078125
289, 1287087568, -6.727785110473633, -0.9114167094230652, 7.167035102844238, -3.165832042694092, -1.9274706840515137, -1.8528482913970947, 1.11572265625, -0.407470703125, 0.05224609375
290, 1287104235, -6.700838565826416, -1.0181814432144165, 7.10577392578125, -2.5623583793640137, -4.121825695037842, -1.170782208442688, 1.118408203125, -0.405029296875, 0.05126953125
291, 1287120902, -6.6957807540893555, -0.7276598811149597, 7.1107330322265625, -0.7905232906341553, -7.608074188232422, -0.9973714351654053, 1.118896484375, -0.406982421875, 0.048583984375
292, 1287137569, -6.64008903503418, -0.13465622067451477, 7.252589225769043, -0.23809577524662018, -11.114444732666016, -3.0660979747772217, 1.11572265625, -0.404541015625, 0.050048828125
293, 1287154236, -6.5654988288879395, -0.35322800278663635, 7.330167293548584, -2.887474775314331, -10.529860496520996, -6.7568511962890625, 1.11474609375, -0.404541015625, 0.044921875
294, 1287170903, -6.636178970336914, -0.5372461676597595, 7.4919257164001465, -8.585265159606934, -0.2693048417568207, -7.393467426300049, 1.1142578125, -0.403076171875, 0.044921875
295, 1287187570, -6.903234481811523, -2.1848456859588623, 6.873123645782471, -7.796647548675537, 3.7388460636138916, -2.938762903213501, 1.11474609375, -0.40234375, 0.047119140625
296, 1287204237, -6.835464000701904, -1.5275390148162842, 6.948126316070557, -2.094837188720703, -3.5321710109710693, 2.8244216442108154, 1.11474609375, -0.404052734375, 0.047607421875
297, 1287220904, -6.6469597816467285, -0.7271934747695923, 7.380324840545654, -1.095839500427246, -5.00682258605957, 3.0698556900024414, 1.11376953125, -0.404541015625, 0.044921875
298, 1287237571, -6.577381134033203, -0.6466679573059082, 7.3782267570495605, -4.6345930099487305, 0.1061326414346695, 0.013260975480079651, 1.1142578125, -0.403076171875, 0.048583984375
299, 1287254238, -6.6099138259887695, -0.7413169741630554, 7.248325347900391, -8.298133850097656, 5.018367767333984, -2.253406047821045, 1.11474609375, -0.400390625, 0.05224609375
300, 1287270905, -6.763000965118408, -0.9737282991409302, 7.05479097366333, -9.002176284790039, 6.4472126960754395, -3.3178064823150635, 1.115234375, -0.39794921875, 0.0556640625
301, 1287287572, -6.76147985458374, -0.7119733691215515, 7.099384307861328, -10.649728775024414, 6.414468288421631, -5.497513294219971, 1.115234375, -0.394287109375, 0.056640625
302, 1287304239, -6.607875347137451, -0.754770040512085, 7.261804580688477, -15.881550788879395, 11.137887001037598, -8.748671531677246, 1.114501953125, -0.39111328125, 0.059814453125
303, 1287320906, -6.701099872589111, -0.8308275938034058, 7.364670753479004, -22.708072662353516, 18.96969985961914, -13.239202499389648, 1.115478515625, -0.384521484375, 0.06494140625
304, 1287337573, -6.884645462036133, -1.2381577491760254, 7.1321187019348145, -23.73579216003418, 22.47792625427246, -14.543621063232422, 1.116943359375, -0.37841796875, 0.069091796875
305, 1287354240, -7.065377712249756, -1.8095110654830933, 6.891807556152344, -14.597131729125977, 18.898622512817383, -7.598369598388672, 1.1240234375, -0.376708984375, 0.07568359375
306, 1287370907, -6.817692279815674, -2.8938238620758057, 6.632143020629883, -0.8438494205474854, 12.55718994140625, 6.134814739227295, 1.12255859375, -0.375732421875, 0.081298828125
307, 1287387574, -7.112661361694336, -2.7451183795928955, 6.3826727867126465, 12.017931938171387, 4.135979652404785, 20.60405731201172, 1.12353515625, -0.38232421875, 0.08203125
308, 1287404241, -7.315340995788574, -1.0455228090286255, 6.677019119262695, 20.02842903137207, -11.784964561462402, 26.215688705444336, 1.124755859375, -0.392578125, 0.08251953125
309, 1287420908, -7.123729228973389, 0.5177515745162964, 7.292463302612305, 18.24045181274414, -16.50550079345703, 21.539215087890625, 1.122314453125, -0.39990234375, 0.07958984375
310, 1287437575, -6.826882362365723, -0.2951796352863312, 7.228209972381592, 13.185439109802246, -13.6148042678833, 15.008888244628906, 1.12255859375, -0.406494140625, 0.074951171875
311, 1287454242, -6.69804573059082, -0.8755634427070618, 7.310700416564941, 11.679451942443848, -7.5597004890441895, 14.278965950012207, 1.12109375, -0.4130859375, 0.074951171875
312, 1287470909, -6.71568489074707, -0.6946918964385986, 7.194681644439697, 11.701966285705566, -3.148573398590088, 15.676051139831543, 1.122314453125, -0.418212890625, 0.07470703125
313, 1287487576, -6.829322338104248, -0.619113028049469, 7.036647796630859, 12.821158409118652, -1.7738746404647827, 18.426342010498047, 1.120361328125, -0.42431640625, 0.07421875
314, 1287504243, -7.083154201507568, 0.2829459607601166, 6.99342155456543, 13.781495094299316, -4.548798084259033, 17.720083236694336, 1.119873046875, -0.43212890625, 0.0732421875
315, 1287520910, -7.120628833770752, 0.6193679571151733, 7.0042314529418945, 9.100398063659668, -9.711101531982422, 9.051862716674805, 1.119873046875, -0.435302734375, 0.070556640625
316, 1287537577, -7.010459899902344, 0.1683511584997177, 7.036561489105225, 3.8576529026031494, -12.887590408325195, 1.3025797605514526, 1.117919921875, -0.439208984375, 0.068115234375
317, 1287554244, -6.893496036529541, 0.3448758125305176, 7.138852596282959, -0.5535600781440735, -14.215575218200684, -4.998559951782227, 1.119384765625, -0.4404296875, 0.06494140625
318, 1287570911, -6.692111015319824, 0.5941851139068604, 7.222444534301758, -7.651612758636475, -10.428149223327637, -14.095931053161621, 1.116943359375, -0.439208984375, 0.062744140625
319, 1287587578, -6.544295310974121, 0.6322826743125916, 7.427248001098633, -16.730289459228516, -1.9148491621017456, -23.045909881591797, 1.11572265625, -0.43115234375, 0.060302734375
320, 1287604245, -6.678775310516357, -0.5266305208206177, 7.243782997131348, -23.054777145385742, 6.7566680908203125, -27.48792266845703, 1.1162109375, -0.423828125, 0.061767578125
321, 1287620912, -6.7862043380737305, -1.1530767679214478, 7.209616661071777, -22.48801612854004, 9.803140640258789, -24.484111785888672, 1.117431640625, -0.414306640625, 0.062744140625
322, 1287637579, -6.848282337188721, -1.7776423692703247, 7.034928798675537, -16.988933563232422, 9.479994773864746, -17.18695640563965, 1.1201171875, -0.41064453125, 0.064208984375
323, 1287654246, -6.961019515991211, -1.494607925415039, 6.893047332763672, -11.993208885192871, 5.096355438232422, -12.359330177307129, 1.119873046875, -0.406005859375, 0.066650390625
324, 1287670913, -6.847289562225342, -1.1473721265792847, 7.088265895843506, -9.27432632446289, 2.521040678024292, -9.364418983459473, 1.120361328125, -0.4033203125, 0.06884765625
325, 1287687580, -6.901864051818848, -1.1184674501419067, 7.089287757873535, -8.717698097229004, 3.260646104812622, -7.893544673919678, 1.120849609375, -0.398193359375, 0.0732421875
326, 1287704247, -6.955395698547363, -0.6487789750099182, 7.0219550132751465, -9.123761177062988, 3.4049606323242188, -8.215149879455566, 1.123291015625, -0.3984375, 0.07177734375
327, 1287720914, -6.864123344421387, -1.2873286008834839, 6.965979099273682, -7.826104164123535, 1.0109784603118896, -7.934689044952393, 1.122802734375, -0.397705078125, 0.075927734375
328, 1287737581, -6.859163284301758, -1.4978010654449463, 6.999380111694336, -4.037714004516602, -1.0499926805496216, -4.1709513664245605, 1.125, -0.396728515625, 0.072998046875
329, 1287754248, -6.956268787384033, -0.8700253367424011, 6.965074062347412, -1.095583438873291, -2.4454238414764404, -1.4194046258926392, 1.12451171875, -0.39990234375, 0.07080078125
330, 1287770915, -6.929112911224365, -0.6804220080375671, 7.087482452392578, -1.5101503133773804, -4.243256092071533, -3.1065127849578857, 1.1259765625, -0.39892578125, 0.072509765625
331, 1287787582, -6.904927730560303, -0.6573079824447632, 7.186720371246338, -3.2094509601593018, -2.470550060272217, -5.338096618652344, 1.12451171875, -0.400390625, 0.072509765625
332, 1287804249, -6.980133056640625, -1.478674054145813, 6.994969367980957, -2.807920217514038, -1.9191724061965942, -5.179182529449463, 1.123046875, -0.40185546875, 0.0693359375
333, 1287820916, -6.988099575042725, -2.2951762676239014, 6.8181986808776855, 2.4531397819519043, -5.761244773864746, 0.9006898999214172, 1.12353515625, -0.4013671875, 0.067138671875
334, 1287837583, -6.975432395935059, -1.0095924139022827, 6.834950923919678, 10.548074722290039, -15.429957389831543, 7.61309814453125, 1.12353515625, -0.406005859375, 0.064208984375
335, 1287854250, -6.863926887512207, -0.45280221104621887, 7.250070571899414, 9.873575210571289, -17.77958106994629, 5.7080864906311035, 1.120361328125, -0.41015625, 0.06103515625
336, 1287870917, -6.724550724029541, -0.34546202421188354, 7.380063056945801, 6.318356513977051, -12.880904197692871, 2.979623794555664, 1.117431640625, -0.41015625, 0.058349609375
337, 1287887584, -6.737472057342529, -0.5331388711929321, 7.334414958953857, 2.677443027496338, -6.632204055786133, 0.35843056440353394, 1.118408203125, -0.41357421875, 0.056884765625
338, 1287904251, -6.739752292633057, -0.7188325524330139, 7.255800724029541, 0.781987726688385, -2.4722018241882324, -0.8002304434776306, 1.119140625, -0.414794921875, 0.056396484375
339, 1287920918, -6.692683219909668, -0.6712019443511963, 7.135984897613525, -0.48917698860168457, -0.10916133224964142, -1.0950838327407837, 1.119140625, -0.414794921875, 0.05859375
340, 1287937585, -6.593598365783691, -0.6123101115226746, 7.062797546386719, -1.225887656211853, 0.5090587735176086, -1.503093957901001, 1.1201171875, -0.414794921875, 0.056396484375
341, 1287954252, -6.672211170196533, -0.9781611561775208, 6.980764389038086, -0.7191789746284485, -0.5211030840873718, -0.4647167921066284, 1.119140625, -0.414794921875, 0.05712890625
342, 1287970919, -6.8167243003845215, -1.2374669313430786, 6.933398246765137, 0.8416014313697815, -4.149796009063721, 1.988205075263977, 1.119140625, -0.417724609375, 0.055908203125
343, 1287987586, -6.830000877380371, -0.9934239387512207, 7.057407855987549, 2.816955804824829, -8.064787864685059, 3.8811893463134766, 1.1181640625, -0.42041015625, 0.055419921875
344, 1288004253, -6.726361274719238, -0.3961319327354431, 7.247954845428467, 2.5338075160980225, -8.896343231201172, 2.97977614402771, 1.1171875, -0.4208984375, 0.056884765625
345, 1288020920, -6.669739723205566, -0.09513150900602341, 7.32459831237793, -0.19405461847782135, -6.030893802642822, -0.44710806012153625, 1.11767578125, -0.42138671875, 0.053466796875
346, 1288037587, -6.654644966125488, -0.31093400716781616, 7.292689800262451, -3.0942704677581787, -2.070671796798706, -3.8923497200012207, 1.114990234375, -0.42236328125, 0.052978515625
347, 1288054254, -6.7042236328125, -0.6421310901641846, 7.237499237060547, -4.1680192947387695, 0.7020377516746521, -5.187366008758545, 1.11767578125, -0.4208984375, 0.05029296875
348, 1288070921, -6.74914026260376, -0.8516616821289062, 7.183745861053467, -4.378222942352295, 2.0648512840270996, -4.7893195152282715, 1.1181640625, -0.42041015625, 0.055908203125
349, 1288087588, -6.786746025085449, -0.9144836068153381, 7.147273540496826, -3.64534068107605, 1.874267339706421, -3.3193042278289795, 1.114501953125, -0.42041015625, 0.056396484375
350, 1288104255, -6.804020881652832, -0.8166755437850952, 7.145421981811523, -3.083923101425171, 0.5190990567207336, -2.421642780303955, 1.119140625, -0.42041015625, 0.05615234375
351, 1288120922, -6.775310516357422, -0.6982347369194031, 7.13702392578125, -2.617912769317627, -0.2516319751739502, -2.0882163047790527, 1.11962890625, -0.419921875, 0.055419921875
352, 1288137589, -6.801913738250732, -0.6401520371437073, 7.13407039642334, -2.512772560119629, -1.109170913696289, -2.552881956100464, 1.12060546875, -0.4189453125, 0.054443359375
353, 1288154256, -6.7410759925842285, -0.6519742012023926, 7.145055294036865, -2.576969623565674, -1.6449153423309326, -3.2223193645477295, 1.11865234375, -0.41943359375, 0.053955078125
354, 1288170923, -6.68463134765625, -0.7220966219902039, 7.168426513671875, -2.521134614944458, -1.1238723993301392, -3.3772904872894287, 1.11865234375, -0.4189453125, 0.056396484375
355, 1288187590, -6.726937770843506, -0.6952524185180664, 7.17170524597168, -2.891878843307495, 0.0489138588309288, -3.7566659450531006, 1.11865234375, -0.41943359375, 0.055908203125
356, 1288204257, -6.737408638000488, -0.6358924508094788, 7.15926456451416, -3.1110596656799316, 1.1431653499603271, -4.124682426452637, 1.11962890625, -0.41943359375, 0.055419921875
357, 1288220924, -6.799069404602051, -0.7322911620140076, 7.171238422393799, -3.4743244647979736, 2.0468196868896484, -4.608428955078125, 1.11962890625, -0.418701171875, 0.056396484375
358, 1288237591, -6.836996078491211, -0.7970981001853943, 7.1601667404174805, -3.743821382522583, 1.772033929824829, -4.596122741699219, 1.1201171875, -0.415283203125, 0.05712890625
359, 1288254258, -6.82547664642334, -0.7580409049987793, 7.145030498504639, -3.5238332748413086, 0.8133248686790466, -4.580472469329834, 1.12109375, -0.416259765625, 0.06005859375
360, 1288270925, -6.804287433624268, -0.7797349691390991, 7.12440299987793, -3.5081849098205566, -0.14692726731300354, -4.7804059982299805, 1.1201171875, -0.415771484375, 0.05810546875
361, 1288287592, -6.788644313812256, -0.7679456472396851, 7.102202892303467, -3.351396083831787, -0.6603595018386841, -4.69135046005249, 1.119873046875, -0.412109375, 0.056884765625
362, 1288304259, -6.7818684577941895, -0.8447252511978149, 7.131158351898193, -3.2928452491760254, -0.7696104645729065, -4.448490619659424, 1.11865234375, -0.415283203125, 0.0576171875
363, 1288320926, -6.782964706420898, -0.8164058923721313, 7.169367790222168, -3.3207764625549316, -0.08307479321956635, -4.074673652648926, 1.123046875, -0.412109375, 0.05712890625
364, 1288337593, -6.80100679397583, -0.8450355529785156, 7.143834114074707, -3.375575065612793, 0.2287662774324417, -3.8918118476867676, 1.12060546875, -0.41259765625, 0.05908203125
365, 1288354260, -6.810416221618652, -0.8362807631492615, 7.133642196655273, -3.2350125312805176, 0.1636587679386139, -3.459251880645752, 1.12255859375, -0.41162109375, 0.056396484375
366, 1288370927, -6.827672958374023, -0.8691176772117615, 7.110355854034424, -2.9032375812530518, -0.25156792998313904, -2.9712650775909424, 1.12255859375, -0.41162109375, 0.05810546875
367, 1288387594, -6.8075056076049805, -0.8885356187820435, 7.116494655609131, -2.3945701122283936, -0.9086105823516846, -2.4144198894500732, 1.12158203125, -0.412109375, 0.05810546875
368, 1288404261, -6.805244445800781, -0.8794043660163879, 7.100423812866211, -2.01290225982666, -1.257891058921814, -1.8702906370162964, 1.12353515625, -0.41259765625, 0.05859375
369, 1288420928, -6.817204475402832, -0.8290106654167175, 7.1215691566467285, -1.6694614887237549, -1.1643917560577393, -1.2737197875976562, 1.12109375, -0.41162109375, 0.06005859375
370, 1288437595, -6.829877853393555, -0.7923960089683533, 7.096174240112305, -1.6382906436920166, -1.35484778881073, -1.218921184539795, 1.119873046875, -0.4111328125, 0.05908203125
371, 1288454262, -6.814266681671143, -0.7620872259140015, 7.1072564125061035, -1.6257532835006714, -1.3607386350631714, -1.5370692014694214, 1.11962890625, -0.413818359375, 0.05810546875
372, 1288470929, -6.829172134399414, -0.789264976978302, 7.123425006866455, -1.6433749198913574, -1.4250776767730713, -1.681460976600647, 1.12060546875, -0.414794921875, 0.0595703125
373, 1288487596, -6.8276519775390625, -0.7794171571731567, 7.114172458648682, -1.6961113214492798, -1.731840968132019, -1.733864426612854, 1.12109375, -0.41357421875, 0.0615234375
374, 1288504263, -6.82484769821167, -0.761485755443573, 7.132431507110596, -1.6339364051818848, -2.0301265716552734, -1.827824592590332, 1.12158203125, -0.4130859375, 0.05908203125
375, 1288520930, -6.833065032958984, -0.7453204393386841, 7.128227710723877, -1.7770603895187378, -2.2697594165802, -2.2046773433685303, 1.12060546875, -0.412109375, 0.06005859375
376, 1288537597, -6.832400798797607, -0.7501828670501709, 7.135143280029297, -1.896069884300232, -2.1087193489074707, -2.3515405654907227, 1.1220703125, -0.4130859375, 0.05810546875
377, 1288554264, -6.801801681518555, -0.8082191944122314, 7.121158123016357, -1.8945715427398682, -2.146894931793213, -2.320126533508301, 1.12158203125, -0.414306640625, 0.05859375
378, 1288570931, -6.798776626586914, -0.781181275844574, 7.136049747467041, -1.90818452835083, -1.9456814527511597, -2.253021001815796, 1.1220703125, -0.414306640625, 0.05712890625
379, 1288587598, -6.79247522354126, -0.769532322883606, 7.123218536376953, -2.0861802101135254, -1.9253835678100586, -2.3875136375427246, 1.1201171875, -0.41357421875, 0.05810546875
380, 1288604265, -6.8059539794921875, -0.7449375987052917, 7.140474796295166, -2.2294063568115234, -1.6359728574752808, -2.5626916885375977, 1.12158203125, -0.413818359375, 0.05908203125
381, 1288620932, -6.805388450622559, -0.7722301483154297, 7.12525749206543, -2.3371849060058594, -1.6145353317260742, -2.5683906078338623, 1.123046875, -0.41259765625, 0.056640625
382, 1288637599, -6.810276985168457, -0.772610068321228, 7.117938995361328, -2.353743076324463, -1.5597751140594482, -2.6629271507263184, 1.12158203125, -0.4130859375, 0.056640625
383, 1288654266, -6.807715892791748, -0.8266609311103821, 7.114055156707764, -2.1565892696380615, -1.7537527084350586, -2.4011776447296143, 1.12158203125, -0.41357421875, 0.0576171875
384, 1288670933, -6.805950164794922, -0.8596828579902649, 7.073232173919678, -1.8573178052902222, -2.4526596069335938, -2.069851875305176, 1.12158203125, -0.413818359375, 0.05810546875
385, 1288687600, -6.794793605804443, -0.8773133158683777, 7.1017866134643555, -1.4336453676223755, -3.309109926223755, -1.685059666633606, 1.1220703125, -0.414794921875, 0.05810546875
386, 1288704267, -6.800255298614502, -0.8308699727058411, 7.1079206466674805, -1.0375577211380005, -4.244267463684082, -1.225746989250183, 1.11962890625, -0.415283203125, 0.05712890625
387, 1288720934, -6.780144214630127, -0.7824077606201172, 7.123186111450195, -0.9639467597007751, -4.807990550994873, -1.1555938720703125, 1.1201171875, -0.415771484375, 0.05810546875
388, 1288737601, -6.776817321777344, -0.7877354025840759, 7.1253342628479, -0.8060189485549927, -5.127291679382324, -1.2303317785263062, 1.1201171875, -0.413818359375, 0.052490234375
389, 1288754268, -6.760496616363525, -0.7670979499816895, 7.164180755615234, -0.740073025226593, -5.249380111694336, -1.2827095985412598, 1.12109375, -0.414794921875, 0.052001953125
390, 1288770935, -6.7368011474609375, -0.7598230242729187, 7.187705039978027, -1.0209221839904785, -4.607212543487549, -1.2889078855514526, 1.119140625, -0.417236328125, 0.053955078125
391, 1288787602, -6.740109443664551, -0.6841210722923279, 7.233213424682617, -1.4283177852630615, -3.586712598800659, -1.481335997581482, 1.11865234375, -0.417724609375, 0.052978515625
392, 1288804269, -6.719204902648926, -0.7512816190719604, 7.214856147766113, -1.7571849822998047, -3.062753677368164, -1.7132847309112549, 1.11767578125, -0.418701171875, 0.052490234375
393, 1288820936, -6.724109172821045, -0.7975272536277771, 7.1748127937316895, -1.6427600383758545, -2.726996898651123, -1.272310733795166, 1.1181640625, -0.417236328125, 0.052490234375
394, 1288837603, -6.749183177947998, -0.714224100112915, 7.16667366027832, -1.535071611404419, -2.5972940921783447, -1.0724676847457886, 1.11865234375, -0.415771484375, 0.0498046875
395, 1288854270, -6.761423110961914, -0.7033137083053589, 7.182121753692627, -1.596823811531067, -2.7711150646209717, -1.306734323501587, 1.12060546875, -0.418212890625, 0.052001953125
396, 1288870937, -6.740582466125488, -0.6876431107521057, 7.193093299865723, -1.7743579149246216, -2.5242209434509277, -1.6316826343536377, 1.117919921875, -0.417236328125, 0.05126953125
397, 1288887604, -6.748917102813721, -0.6809108257293701, 7.186081886291504, -1.9086583852767944, -2.3603639602661133, -2.012133836746216, 1.116943359375, -0.41943359375, 0.05029296875
398, 1288904271, -6.744909286499023, -0.7282729148864746, 7.2035627365112305, -2.121474504470825, -2.0775742530822754, -2.2301106452941895, 1.116455078125, -0.417724609375, 0.05078125
399, 1288920938, -6.723025321960449, -0.8145394325256348, 7.200589656829834, -2.1576526165008545, -2.1668856143951416, -1.946783185005188, 1.116943359375, -0.416748046875, 0.0498046875
400, 1288937605, -6.751941680908203, -0.7006728649139404, 7.193140029907227, -2.1110498905181885, -1.907800316810608, -1.8144805431365967, 1.117431640625, -0.41845703125, 0.05126953125
401, 1288954272, -6.736309051513672, -0.7034720778465271, 7.190502166748047, -2.235105037689209, -2.1453967094421387, -2.0674188137054443, 1.12060546875, -0.417724609375, 0.04931640625
402, 1288970939, -6.74526834487915, -0.7142846584320068, 7.1895952224731445, -2.329423666000366, -1.8352394104003906, -2.157639265060425, 1.11767578125, -0.419921875, 0.048828125
403, 1288987606, -6.741745471954346, -0.7165821194648743, 7.189648628234863, -2.309778928756714, -1.7591571807861328, -2.1346263885498047, 1.116943359375, -0.41943359375, 0.0498046875
404, 1289004273, -6.739171504974365, -0.7300764918327332, 7.188894271850586, -2.3068463802337646, -1.839465856552124, -2.314401865005493, 1.119140625, -0.416259765625, 0.0517578125
405, 1289020940, -6.73008394241333, -0.7404972910881042, 7.212182998657227, -2.397310495376587, -1.723017692565918, -2.253495216369629, 1.116943359375, -0.417724609375, 0.05126953125
406, 1289037607, -6.734646797180176, -0.7254869937896729, 7.197269439697266, -2.3482744693756104, -1.6036622524261475, -2.101111888885498, 1.117919921875, -0.417236328125, 0.05029296875
407, 1289054274, -6.732417583465576, -0.7242308259010315, 7.191189289093018, -2.446089744567871, -1.5249418020248413, -2.237436056137085, 1.117431640625, -0.4189453125, 0.04931640625
408, 1289070941, -6.748040676116943, -0.7276002764701843, 7.174961090087891, -2.456949472427368, -1.388925552368164, -2.260448932647705, 1.11962890625, -0.418212890625, 0.05078125
409, 1289087608, -6.728785991668701, -0.7484172582626343, 7.206653594970703, -2.4415946006774902, -1.421030879020691, -2.0974624156951904, 1.118408203125, -0.415283203125, 0.05078125
410, 1289104275, -6.749522686004639, -0.7368770837783813, 7.1991729736328125, -2.38533616065979, -1.414678931236267, -2.0707993507385254, 1.115966796875, -0.418212890625, 0.05029296875
411, 1289120942, -6.745511054992676, -0.7225944399833679, 7.190649032592773, -2.3549728393554688, -1.4780193567276, -2.224360942840576, 1.115478515625, -0.416259765625, 0.048828125
412, 1289137609, -6.726168155670166, -0.7531548142433167, 7.191653728485107, -2.317078113555908, -1.5607097148895264, -2.1441028118133545, 1.11865234375, -0.417724609375, 0.048828125
413, 1289154276, -6.737792015075684, -0.7296223640441895, 7.198149681091309, -2.2633814811706543, -1.4146534204483032, -2.038156509399414, 1.115966796875, -0.41845703125, 0.05078125
414, 1289170943, -6.739547252655029, -0.7032208442687988, 7.22088098526001, -2.279517412185669, -1.2795593738555908, -2.005640983581543, 1.1181640625, -0.41845703125, 0.04833984375
415, 1289187610, -6.751385688781738, -0.6880514621734619, 7.210347652435303, -2.430081844329834, -1.0405031442642212, -2.309048891067505, 1.117431640625, -0.417724609375, 0.05126953125
416, 1289204277, -6.743194103240967, -0.729735255241394, 7.178399085998535, -2.4647743701934814, -1.0791783332824707, -2.460958242416382, 1.116943359375, -0.418212890625, 0.05078125
417, 1289220944, -6.755338668823242, -0.7378097176551819, 7.201995849609375, -2.4231274127960205, -1.097273588180542, -2.2068541049957275, 1.116943359375, -0.417236328125, 0.05126953125
418, 1289237611, -6.742774963378906, -0.7136740684509277, 7.171004295349121, -2.382377862930298, -1.2150408029556274, -2.3189351558685303, 1.117431640625, -0.418212890625, 0.05029296875
419, 1289254278, -6.737542152404785, -0.7434112429618835, 7.175632953643799, -2.2959861755371094, -1.3581901788711548, -2.2091848850250244, 1.119140625, -0.416259765625, 0.05029296875
420, 1289270945, -6.724337577819824, -0.7273902893066406, 7.179463863372803, -2.0957465171813965, -1.4896217584609985, -2.1217048168182373, 1.11962890625, -0.417724609375, 0.04833984375
421, 1289287612, -6.74475622177124, -0.6940889954566956, 7.166313171386719, -2.159048080444336, -1.433197021484375, -2.2320055961608887, 1.116943359375, -0.417236328125, 0.05126953125
422, 1289304279, -6.760686874389648, -0.6918581128120422, 7.191195964813232, -2.3224828243255615, -1.5091772079467773, -2.5074450969696045, 1.115966796875, -0.41943359375, 0.05029296875
423, 1289320946, -6.757657527923584, -0.7202547788619995, 7.208469867706299, -2.3580329418182373, -1.478684902191162, -2.5207889080047607, 1.117919921875, -0.417236328125, 0.0498046875
424, 1289337613, -6.748783111572266, -0.7223447561264038, 7.204970836639404, -2.379842519760132, -1.5451630353927612, -2.527627944946289, 1.119140625, -0.4189453125, 0.04931640625
425, 1289354280, -6.740667343139648, -0.7260292768478394, 7.208083629608154, -2.2994089126586914, -1.6528931856155396, -2.5173215866088867, 1.119140625, -0.419921875, 0.048828125
426, 1289370947, -6.754332542419434, -0.6837205290794373, 7.193501949310303, -2.29056978225708, -1.3821765184402466, -2.561218738555908, 1.11962890625, -0.416748046875, 0.048828125
427, 1289387614, -6.760575294494629, -0.6977978944778442, 7.186367988586426, -2.399000883102417, -1.39882493019104, -2.6489553451538086, 1.117431640625, -0.41845703125, 0.05078125
428, 1289404281, -6.762657642364502, -0.6774425506591797, 7.195006370544434, -2.616913318634033, -1.1735097169876099, -2.9050049781799316, 1.1181640625, -0.4189453125, 0.05126953125
429, 1289420948, -6.746217250823975, -0.7078937888145447, 7.178143501281738, -2.76513409614563, -1.012470006942749, -3.094756841659546, 1.117431640625, -0.415771484375, 0.05224609375
430, 1289437615, -6.7469682693481445, -0.7371206283569336, 7.179584503173828, -2.7884933948516846, -1.1720499992370605, -3.153486967086792, 1.117431640625, -0.416748046875, 0.05078125
431, 1289454282, -6.7674713134765625, -0.7728813886642456, 7.1824564933776855, -2.802515983581543, -1.0919846296310425, -3.022503137588501, 1.11865234375, -0.417724609375, 0.05078125
432, 1289470949, -6.762037754058838, -0.7254500389099121, 7.179098606109619, -2.807983875274658, -1.1435683965682983, -3.01248836517334, 1.117431640625, -0.4189453125, 0.05078125
433, 1289487616, -6.75651741027832, -0.7532492876052856, 7.164505481719971, -2.693610668182373, -1.3342806100845337, -2.9241247177124023, 1.117431640625, -0.417724609375, 0.052490234375
434, 1289504283, -6.754359722137451, -0.7535201907157898, 7.18010950088501, -2.4880564212799072, -1.5498758554458618, -2.713486671447754, 1.11865234375, -0.416259765625, 0.0478515625
435, 1289520950, -6.74943208694458, -0.7703368663787842, 7.169264793395996, -2.3023900985717773, -1.9074419736862183, -2.448164701461792, 1.119140625, -0.415283203125, 0.0517578125
436, 1289537617, -6.731098175048828, -0.764818012714386, 7.20670747756958, -2.0317018032073975, -2.027693271636963, -2.2336065769195557, 1.118896484375, -0.415283203125, 0.05029296875
437, 1289554284, -6.736833572387695, -0.7469581961631775, 7.199587821960449, -2.1455118656158447, -1.9178407192230225, -2.0560851097106934, 1.117919921875, -0.418212890625, 0.0498046875
438, 1289570951, -6.73388147354126, -0.7445853352546692, 7.1966118812561035, -2.167692184448242, -1.8181813955307007, -1.994550347328186, 1.1201171875, -0.416259765625, 0.05029296875
439, 1289587618, -6.743265628814697, -0.7282102108001709, 7.208754062652588, -2.2628564834594727, -1.3599063158035278, -1.981091022491455, 1.116943359375, -0.417236328125, 0.05078125
440, 1289604285, -6.7539963722229, -0.7176221609115601, 7.165419578552246, -2.2227981090545654, -1.4379737377166748, -2.1401586532592773, 1.116943359375, -0.416259765625, 0.04931640625
441, 1289620952, -6.7625813484191895, -0.7462598085403442, 7.156318664550781, -2.1516458988189697, -1.70294988155365, -2.142848014831543, 1.116455078125, -0.415771484375, 0.0498046875
442, 1289637619, -6.750676155090332, -0.7595116496086121, 7.207761764526367, -2.0769593715667725, -1.9883009195327759, -2.0787010192871094, 1.117919921875, -0.415771484375, 0.048095703125
443, 1289654286, -6.748457908630371, -0.7216784954071045, 7.189422130584717, -2.0877296924591064, -2.07657527923584, -2.169280529022217, 1.117431640625, -0.416748046875, 0.048828125
444, 1289670953, -6.73486852645874, -0.7281062006950378, 7.19380521774292, -2.1270837783813477, -2.1247401237487793, -2.3624517917633057, 1.11962890625, -0.416259765625, 0.047119140625
445, 1289687620, -6.73964262008667, -0.7222865223884583, 7.211726188659668, -2.2291760444641113, -2.009547233581543, -2.3747332096099854, 1.117919921875, -0.417724609375, 0.05029296875
446, 1289704287, -6.737620830535889, -0.7232864499092102, 7.203341007232666, -2.364744186401367, -1.8783588409423828, -2.492128849029541, 1.115478515625, -0.416748046875, 0.0498046875
447, 1289720954, -6.7413201332092285, -0.7400201559066772, 7.202131271362305, -2.518958330154419, -1.8153516054153442, -2.5131442546844482, 1.114501953125, -0.415771484375, 0.04931640625
448, 1289737621, -6.737039566040039, -0.7280942797660828, 7.184571266174316, -2.4163150787353516, -1.6702682971954346, -2.5634984970092773, 1.117919921875, -0.416748046875, 0.0498046875
449, 1289754288, -6.741011619567871, -0.7224453091621399, 7.19699239730835, -2.4793221950531006, -1.6874029636383057, -2.541970729827881, 1.11962890625, -0.415283203125, 0.047119140625
450, 1289770955, -6.73282527923584, -0.7327466607093811, 7.20079231262207, -2.4549777507781982, -1.6815252304077148, -2.5462486743927, 1.117431640625, -0.415771484375, 0.05029296875
451, 1289787622, -6.738429546356201, -0.7361190319061279, 7.191705226898193, -2.4366519451141357, -1.643234133720398, -2.549591064453125, 1.118408203125, -0.414794921875, 0.04833984375
452, 1289804289, -6.73153018951416, -0.7233524322509766, 7.184568881988525, -2.4752886295318604, -1.6959707736968994, -2.6245081424713135, 1.115966796875, -0.417236328125, 0.04931640625
453, 1289820956, -6.749422550201416, -0.7358424067497253, 7.211599826812744, -2.547260284423828, -1.7428420782089233, -2.644102096557617, 1.117431640625, -0.417724609375, 0.05029296875
454, 1289837623, -6.731415271759033, -0.7352235317230225, 7.205261707305908, -2.5100831985473633, -1.663173794746399, -2.6588292121887207, 1.117431640625, -0.417724609375, 0.04833984375
455, 1289854290, -6.745114803314209, -0.7268677353858948, 7.203185558319092, -2.64447283744812, -1.5971436500549316, -2.8156936168670654, 1.118896484375, -0.415283203125, 0.047119140625
456, 1289870957, -6.733276844024658, -0.7603214979171753, 7.189544200897217, -2.4832539558410645, -1.6216555833816528, -2.6150057315826416, 1.117919921875, -0.414794921875, 0.04931640625
457, 1289887624, -6.72760534286499, -0.7618746161460876, 7.180126667022705, -2.462392568588257, -1.6799883842468262, -2.529510498046875, 1.116943359375, -0.417236328125, 0.048095703125
458, 1289904291, -6.738528728485107, -0.7657378911972046, 7.163759708404541, -2.3318443298339844, -1.727333426475525, -2.3790102005004883, 1.116455078125, -0.417724609375, 0.05029296875
459, 1289920958, -6.719000816345215, -0.7442244291305542, 7.199819564819336, -2.32651686668396, -1.7136561870574951, -2.325530767440796, 1.116455078125, -0.415771484375, 0.05029296875
460, 1289937625, -6.733345985412598, -0.7309215068817139, 7.208860397338867, -2.356816530227661, -1.7133232355117798, -2.4021384716033936, 1.116455078125, -0.414306640625, 0.048583984375
461, 1289954292, -6.728610992431641, -0.7378205060958862, 7.2138566970825195, -2.4041707515716553, -1.676941990852356, -2.416771650314331, 1.116943359375, -0.413818359375, 0.047119140625
462, 1289970959, -6.730280876159668, -0.7526272535324097, 7.195693016052246, -2.4324893951416016, -1.5309351682662964, -2.467719793319702, 1.117431640625, -0.415283203125, 0.0498046875
463, 1289987626, -6.72332763671875, -0.7503147125244141, 7.210765838623047, -2.3967976570129395, -1.5615421533584595, -2.4401731491088867, 1.115966796875, -0.418212890625, 0.04833984375
464, 1290004293, -6.723472595214844, -0.7613750696182251, 7.181551933288574, -2.4080424308776855, -1.6008065938949585, -2.3963372707366943, 1.115966796875, -0.414794921875, 0.048583984375
465, 1290020960, -6.725709915161133, -0.7688885927200317, 7.209529399871826, -2.326465606689453, -1.6336933374404907, -2.229559898376465, 1.117431640625, -0.416259765625, 0.048828125
466, 1290037627, -6.72603702545166, -0.7402089834213257, 7.200845718383789, -2.4020488262176514, -1.562413215637207, -2.21578049659729, 1.115966796875, -0.415283203125, 0.048828125
467, 1290054294, -6.7234649658203125, -0.7461350560188293, 7.2203450202941895, -2.4759414196014404, -1.6294161081314087, -2.401421308517456, 1.118408203125, -0.416259765625, 0.04833984375
468, 1290070961, -6.737163066864014, -0.7411354184150696, 7.19248628616333, -2.440800666809082, -1.4865611791610718, -2.4090921878814697, 1.116943359375, -0.416748046875, 0.05029296875
469, 1290087628, -6.735705375671387, -0.7394266724586487, 7.210687160491943, -2.3459441661834717, -1.6226669549942017, -2.3171298503875732, 1.11865234375, -0.416748046875, 0.048828125
470, 1290104295, -6.750341892242432, -0.7545387744903564, 7.190373420715332, -2.412370443344116, -1.6425039768218994, -2.309163808822632, 1.115966796875, -0.417236328125, 0.05078125
471, 1290120962, -6.7147722244262695, -0.7534197568893433, 7.1922502517700195, -2.296306610107422, -1.684022307395935, -2.2407398223876953, 1.117431640625, -0.415283203125, 0.04931640625
472, 1290137629, -6.728700160980225, -0.7581648826599121, 7.20894718170166, -2.3139026165008545, -1.518103003501892, -2.1057991981506348, 1.116943359375, -0.415771484375, 0.048828125
473, 1290154296, -6.732174396514893, -0.735987663269043, 7.200187683105469, -2.4310550689697266, -1.544970989227295, -2.2675821781158447, 1.117919921875, -0.415771484375, 0.048095703125
474, 1290170963, -6.724555969238281, -0.7433698177337646, 7.217869281768799, -2.4179158210754395, -1.3813825845718384, -2.273895740509033, 1.118408203125, -0.415283203125, 0.048828125
475, 1290187630, -6.7470574378967285, -0.7388045191764832, 7.185484886169434, -2.4556562900543213, -1.4075204133987427, -2.328002452850342, 1.116943359375, -0.414794921875, 0.048583984375
476, 1290204297, -6.7393574714660645, -0.7589582800865173, 7.181606769561768, -2.5028858184814453, -1.5584560632705688, -2.324326992034912, 1.115966796875, -0.416259765625, 0.0498046875
477, 1290220964, -6.733635902404785, -0.7596837282180786, 7.21074914932251, -2.3880257606506348, -1.4974466562271118, -2.35306453704834, 1.117919921875, -0.414794921875, 0.04931640625
478, 1290237631, -6.746434211730957, -0.7237752676010132, 7.219594955444336, -2.4162511825561523, -1.5593395233154297, -2.3134543895721436, 1.116943359375, -0.414306640625, 0.048828125
479, 1290254298, -6.735169887542725, -0.7550938725471497, 7.2230634689331055, -2.473252296447754, -1.5220476388931274, -2.511953115463257, 1.117919921875, -0.414794921875, 0.046630859375
480, 1290270965, -6.724793910980225, -0.7478797435760498, 7.181427955627441, -2.409694194793701, -1.5645262002944946, -2.5162432193756104, 1.118408203125, -0.416748046875, 0.047607421875
481, 1290287632, -6.71369743347168, -0.744274377822876, 7.212486267089844, -2.450610637664795, -1.5721461772918701, -2.496546983718872, 1.117431640625, -0.413818359375, 0.047119140625
482, 1290304299, -6.7067766189575195, -0.7590511441230774, 7.180319309234619, -2.413625478744507, -1.5126477479934692, -2.4799625873565674, 1.114990234375, -0.415283203125, 0.0498046875
483, 1290320966, -6.735836982727051, -0.754186749458313, 7.205819606781006, -2.4390077590942383, -1.5275541543960571, -2.4590368270874023, 1.115966796875, -0.414794921875, 0.048583984375
484, 1290337633, -6.740379333496094, -0.7480602860450745, 7.217679977416992, -2.3855414390563965, -1.6176341772079468, -2.458742380142212, 1.117919921875, -0.413818359375, 0.05078125
485, 1290354300, -6.733246803283691, -0.7470434308052063, 7.208640098571777, -2.403841972351074, -1.6151114702224731, -2.492948532104492, 1.117919921875, -0.414794921875, 0.046630859375
486, 1290370967, -6.722049236297607, -0.7528762221336365, 7.197812080383301, -2.420771598815918, -1.6471017599105835, -2.4374330043792725, 1.116943359375, -0.414794921875, 0.047607421875
487, 1290387634, -6.744792938232422, -0.7502338886260986, 7.209394931793213, -2.438291072845459, -1.6821271181106567, -2.530240535736084, 1.117919921875, -0.414794921875, 0.0498046875
488, 1290404301, -6.721980094909668, -0.7502604126930237, 7.178339958190918, -2.4788100719451904, -1.6793354749679565, -2.6727752685546875, 1.116943359375, -0.413818359375, 0.048828125
489, 1290420968, -6.7278618812561035, -0.7443497180938721, 7.201071739196777, -2.553497076034546, -1.6428629159927368, -2.6581246852874756, 1.117431640625, -0.414306640625, 0.048095703125
490, 1290437635, -6.723782062530518, -0.7214885354042053, 7.1999616622924805, -2.5949885845184326, -1.632707118988037, -2.684953451156616, 1.115478515625, -0.412109375, 0.046142578125
491, 1290454302, -6.738115310668945, -0.7573897242546082, 7.1945061683654785, -2.627376079559326, -1.5632199048995972, -2.792001962661743, 1.116943359375, -0.415283203125, 0.04833984375
492, 1290470969, -6.746941566467285, -0.7542672753334045, 7.201188087463379, -2.5436103343963623, -1.639686942100525, -2.688847064971924, 1.119384765625, -0.4130859375, 0.04833984375
493, 1290487636, -6.742922306060791, -0.7304391264915466, 7.211665153503418, -2.5291643142700195, -1.9042785167694092, -2.6493263244628906, 1.115966796875, -0.414306640625, 0.047119140625
494, 1290504303, -6.724496841430664, -0.7888767123222351, 7.193217754364014, -2.477708339691162, -1.8317562341690063, -2.822173595428467, 1.116455078125, -0.413330078125, 0.05078125
495, 1290520970, -6.73532772064209, -0.7539859414100647, 7.202775001525879, -2.526052474975586, -1.8240594863891602, -2.8094568252563477, 1.115966796875, -0.414794921875, 0.048828125
496, 1290537637, -6.726523399353027, -0.7732514142990112, 7.208451747894287, -2.558939218521118, -1.7800440788269043, -2.9158647060394287, 1.115966796875, -0.41259765625, 0.047607421875
497, 1290554304, -6.73045539855957, -0.7771428227424622, 7.2186102867126465, -2.5324063301086426, -1.7806415557861328, -2.8184573650360107, 1.116455078125, -0.413330078125, 0.046142578125
498, 1290570971, -6.7267560958862305, -0.7820746302604675, 7.2119269371032715, -2.5782763957977295, -1.6204642057418823, -2.716201066970825, 1.117431640625, -0.415283203125, 0.046630859375
499, 1290587638, -6.718621253967285, -0.7732698917388916, 7.222569465637207, -2.456463098526001, -1.6897339820861816, -2.5590548515319824, 1.117919921875, -0.414306640625, 0.048828125
500, 1290604305, -6.721668720245361, -0.7597511410713196, 7.2042765617370605, -2.5003890991210938, -1.5401302576065063, -2.5297796726226807, 1.117431640625, -0.413818359375, 0.047607421875
501, 1290620972, -6.721923828125, -0.7561767101287842, 7.2171430587768555, -2.5931708812713623, -1.4997390508651733, -2.5822598934173584, 1.116455078125, -0.4130859375, 0.047119140625
502, 1290637639, -6.726325035095215, -0.7560309171676636, 7.2322797775268555, -2.5865371227264404, -1.5291424989700317, -2.6055545806884766, 1.116455078125, -0.41259765625, 0.049072265625
503, 1290654306, -6.715997219085693, -0.7927082180976868, 7.188161849975586, -2.6240084171295166, -1.5424737930297852, -2.564382314682007, 1.116455078125, -0.41259765625, 0.047119140625
504, 1290670973, -6.728118896484375, -0.7797364592552185, 7.20626974105835, -2.556339979171753, -1.6168659925460815, -2.5154621601104736, 1.117431640625, -0.4130859375, 0.048095703125
505, 1290687640, -6.711620807647705, -0.7709130644798279, 7.204671859741211, -2.4953813552856445, -1.562554121017456, -2.3638861179351807, 1.118896484375, -0.41162109375, 0.04833984375
506, 1290704307, -6.717837810516357, -0.7800472974777222, 7.185415267944336, -2.4549388885498047, -1.4844609498977661, -2.4417741298675537, 1.117919921875, -0.412109375, 0.04931640625
507, 1290720974, -6.71697998046875, -0.7838250994682312, 7.214328765869141, -2.43196439743042, -1.468324899673462, -2.316105365753174, 1.1142578125, -0.412109375, 0.048095703125
508, 1290737641, -6.727438449859619, -0.7818090915679932, 7.200498580932617, -2.5129776000976562, -1.4193918704986572, -2.3569703102111816, 1.116943359375, -0.414794921875, 0.05078125
509, 1290754308, -6.729657173156738, -0.774689793586731, 7.213975429534912, -2.46285343170166, -1.3999134302139282, -2.3975024223327637, 1.116943359375, -0.4130859375, 0.046630859375
510, 1290770975, -6.736088275909424, -0.7565890550613403, 7.229873180389404, -2.532353401184082, -1.3902831077575684, -2.4075300693511963, 1.116455078125, -0.41259765625, 0.047607421875
511, 1290787642, -6.7326340675354, -0.7673969864845276, 7.228026390075684, -2.4729835987091064, -1.506027102470398, -2.4743921756744385, 1.116455078125, -0.414306640625, 0.048583984375
512, 1290804309, -6.737757682800293, -0.7620260119438171, 7.190881252288818, -2.527448892593384, -1.5352383852005005, -2.451788902282715, 1.115478515625, -0.41259765625, 0.045654296875
513, 1290820976, -6.720285415649414, -0.7805178165435791, 7.217089653015137, -2.4932942390441895, -1.653786540031433, -2.4417741298675537, 1.115478515625, -0.41259765625, 0.049072265625
514, 1290837643, -6.731325149536133, -0.7701929211616516, 7.198099613189697, -2.4323232173919678, -1.6397253274917603, -2.43241286277771, 1.117431640625, -0.41162109375, 0.047119140625
515, 1290854310, -6.72470235824585, -0.7963260412216187, 7.196756362915039, -2.4329757690429688, -1.5343414545059204, -2.448317766189575, 1.118896484375, -0.41162109375, 0.046142578125
516, 1290870977, -6.72512149810791, -0.7623773813247681, 7.241059303283691, -2.481243371963501, -1.5780754089355469, -2.580761432647705, 1.117431640625, -0.41259765625, 0.047607421875
517, 1290887644, -6.7223920822143555, -0.7739806771278381, 7.207204341888428, -2.511223316192627, -1.4585539102554321, -2.590481758117676, 1.116455078125, -0.4111328125, 0.048095703125
518, 1290904311, -6.714410305023193, -0.8091438412666321, 7.208269119262695, -2.5000174045562744, -1.4598217010498047, -2.6143014430999756, 1.115966796875, -0.41064453125, 0.048583984375
519, 1290920978, -6.722676753997803, -0.7890426516532898, 7.201789379119873, -2.407184600830078, -1.5095102787017822, -2.5436744689941406, 1.115966796875, -0.41064453125, 0.048095703125
520, 1290937645, -6.723793983459473, -0.7874330282211304, 7.218800067901611, -2.376128911972046, -1.5786901712417603, -2.4094507694244385, 1.115966796875, -0.41259765625, 0.047607421875
521, 1290954312, -6.713644027709961, -0.7807103395462036, 7.199732780456543, -2.3037984371185303, -1.611961007118225, -2.304771661758423, 1.115966796875, -0.41064453125, 0.047607421875
522, 1290970979, -6.712299823760986, -0.7751951217651367, 7.215960502624512, -2.3245062828063965, -1.6943954229354858, -2.3777806758880615, 1.116943359375, -0.412109375, 0.045166015625
523, 1290987646, -6.7168354988098145, -0.7681117057800293, 7.210978984832764, -2.334085464477539, -1.6616111993789673, -2.366600751876831, 1.117919921875, -0.41015625, 0.048828125
524, 1291004313, -6.722899436950684, -0.7682132124900818, 7.212528705596924, -2.347531795501709, -1.6251769065856934, -2.4288904666900635, 1.115966796875, -0.412109375, 0.048583984375
525, 1291020980, -6.718291282653809, -0.7714143395423889, 7.207330703735352, -2.3810975551605225, -1.5997692346572876, -2.446486711502075, 1.116455078125, -0.412109375, 0.047607421875
526, 1291037647, -6.729217052459717, -0.786592960357666, 7.196938514709473, -2.3784468173980713, -1.7227872610092163, -2.501951217651367, 1.114990234375, -0.41259765625, 0.045654296875
527, 1291054314, -6.719126224517822, -0.775454044342041, 7.203665733337402, -2.3158748149871826, -1.7175878286361694, -2.348850965499878, 1.115966796875, -0.4111328125, 0.047119140625
528, 1291070981, -6.724076747894287, -0.8003204464912415, 7.208090782165527, -2.2427380084991455, -1.7596694231033325, -2.342806577682495, 1.116455078125, -0.41259765625, 0.048583984375
529, 1291087648, -6.716142654418945, -0.7663076519966125, 7.224246501922607, -2.1494052410125732, -1.8683056831359863, -2.353179931640625, 1.116943359375, -0.41259765625, 0.047607421875
530, 1291104315, -6.717140197753906, -0.7788739800453186, 7.207500457763672, -2.220813512802124, -1.777137279510498, -2.321227788925171, 1.11328125, -0.4111328125, 0.045654296875
531, 1291120982, -6.72005033493042, -0.7829784750938416, 7.192017555236816, -2.224385976791382, -1.847764015197754, -2.2167792320251465, 1.117919921875, -0.41064453125, 0.046142578125
532, 1291137649, -6.728686809539795, -0.7670236825942993, 7.2285003662109375, -2.3318324089050293, -1.8632762432098389, -2.3533201217651367, 1.11474609375, -0.412109375, 0.045166015625
533, 1291154316, -6.721420764923096, -0.7758032083511353, 7.23128604888916, -2.316476821899414, -1.8507354259490967, -2.3699686527252197, 1.115966796875, -0.41064453125, 0.047119140625
534, 1291170983, -6.722757339477539, -0.783697247505188, 7.224495887756348, -2.3438825607299805, -1.7437255382537842, -2.391496181488037, 1.117919921875, -0.41162109375, 0.044677734375
535, 1291187650, -6.729004859924316, -0.7896413207054138, 7.204229354858398, -2.371582269668579, -1.720251441001892, -2.397451400756836, 1.117919921875, -0.4111328125, 0.048095703125
536, 1291204317, -6.716362476348877, -0.7789230942726135, 7.222626209259033, -2.397707462310791, -1.7066127061843872, -2.3331122398376465, 1.11376953125, -0.413330078125, 0.046630859375
537, 1291220984, -6.7136664390563965, -0.7746109366416931, 7.212516784667969, -2.3434722423553467, -1.7272053956985474, -2.3980789184570312, 1.116455078125, -0.412109375, 0.045654296875
538, 1291237651, -6.703476905822754, -0.787848949432373, 7.2187981605529785, -2.3940064907073975, -1.6524418592453003, -2.375283718109131, 1.117919921875, -0.4111328125, 0.0439453125
539, 1291254318, -6.715347766876221, -0.7973276376724243, 7.219241142272949, -2.493934392929077, -1.5946083068847656, -2.273729085922241, 1.116455078125, -0.4111328125, 0.044677734375
540, 1291270985, -6.712985515594482, -0.7768227458000183, 7.200549602508545, -2.3189609050750732, -1.483871579170227, -2.3314599990844727, 1.117919921875, -0.41015625, 0.045166015625
541, 1291287652, -6.712447166442871, -0.8006331920623779, 7.2167863845825195, -2.3929433822631836, -1.550119161605835, -2.3304996490478516, 1.117431640625, -0.413818359375, 0.047119140625
542, 1291304319, -6.719681262969971, -0.7932708859443665, 7.216124057769775, -2.417198657989502, -1.4930411577224731, -2.2522780895233154, 1.116455078125, -0.41162109375, 0.045166015625
543, 1291320986, -6.7141947746276855, -0.786825954914093, 7.21219539642334, -2.394275188446045, -1.5144790410995483, -2.2364370822906494, 1.114990234375, -0.41162109375, 0.045654296875
544, 1291337653, -6.712065696716309, -0.7781050801277161, 7.22264289855957, -2.3560357093811035, -1.4744207859039307, -2.303452730178833, 1.116455078125, -0.41162109375, 0.045166015625
545, 1291354320, -6.7117133140563965, -0.776961088180542, 7.220677375793457, -2.284473419189453, -1.5585582256317139, -2.180396318435669, 1.116943359375, -0.412109375, 0.047119140625
546, 1291370987, -6.714407444000244, -0.7860869765281677, 7.2180094718933105, -2.3215606212615967, -1.5396047830581665, -2.1489310264587402, 1.11376953125, -0.4111328125, 0.045654296875
547, 1291387654, -6.710838794708252, -0.7785910964012146, 7.2098822593688965, -2.343139410018921, -1.4807724952697754, -2.1578314304351807, 1.116943359375, -0.41015625, 0.0439453125
548, 1291404321, -6.72257137298584, -0.768395185470581, 7.217598915100098, -2.359710693359375, -1.3697799444198608, -2.283717632293701, 1.116455078125, -0.41064453125, 0.046142578125
549, 1291420988, -6.721014022827148, -0.7833675146102905, 7.227908134460449, -2.4175703525543213, -1.4667497873306274, -2.2578492164611816, 1.115966796875, -0.4111328125, 0.047607421875
550, 1291437655, -6.725550174713135, -0.7459560632705688, 7.23184871673584, -2.3700714111328125, -1.386953353881836, -2.388909339904785, 1.115478515625, -0.41015625, 0.045166015625
551, 1291454322, -6.724279403686523, -0.7667278051376343, 7.210493087768555, -2.2263071537017822, -1.3634792566299438, -2.435703754425049, 1.115966796875, -0.4130859375, 0.045166015625
552, 1291470989, -6.702413082122803, -0.7966627478599548, 7.214808940887451, -2.1627492904663086, -1.5133905410766602, -2.31189227104187, 1.116455078125, -0.41259765625, 0.044189453125
553, 1291487656, -6.724441051483154, -0.7543660402297974, 7.217901229858398, -2.114328145980835, -1.4490256309509277, -2.296652317047119, 1.114501953125, -0.4130859375, 0.045654296875
554, 1291504323, -6.740576267242432, -0.7260153293609619, 7.233129024505615, -1.9707691669464111, -1.3734937906265259, -2.4811019897460938, 1.115966796875, -0.412109375, 0.046142578125
555, 1291520990, -6.717473030090332, -0.8028364181518555, 7.196750640869141, -1.7895082235336304, -1.577306866645813, -2.350118637084961, 1.114501953125, -0.414794921875, 0.046142578125
556, 1291537657, -6.698685646057129, -0.7716231942176819, 7.197866916656494, -1.7015668153762817, -1.789469599723816, -2.1602134704589844, 1.115966796875, -0.41162109375, 0.047119140625
557, 1291554324, -6.699349880218506, -0.7730086445808411, 7.195653915405273, -1.937831163406372, -1.7901482582092285, -2.121128559112549, 1.114990234375, -0.41162109375, 0.046630859375
558, 1291570991, -6.7092061042785645, -0.7752584218978882, 7.213330268859863, -2.1098077297210693, -1.7514090538024902, -2.2219655513763428, 1.114990234375, -0.412109375, 0.045654296875
559, 1291587658, -6.702747821807861, -0.7772518396377563, 7.219008922576904, -2.328232765197754, -1.7828104496002197, -2.2547757625579834, 1.115478515625, -0.413330078125, 0.046142578125
560, 1291604325, -6.708512306213379, -0.7848041653633118, 7.212772369384766, -2.391829013824463, -1.6519166231155396, -2.313326120376587, 1.115966796875, -0.412109375, 0.046630859375
561, 1291620992, -6.7076416015625, -0.7782372832298279, 7.210940837860107, -2.490809202194214, -1.69273042678833, -2.210158109664917, 1.115478515625, -0.4111328125, 0.045166015625
562, 1291637659, -6.7071709632873535, -0.7599554061889648, 7.215760707855225, -2.507457733154297, -1.608656883239746, -2.3217272758483887, 1.115966796875, -0.4111328125, 0.045654296875
563, 1291654326, -6.701817512512207, -0.7918490171432495, 7.223755836486816, -2.549680233001709, -1.6227947473526, -2.2655839920043945, 1.115966796875, -0.4130859375, 0.044677734375
564, 1291670993, -6.715762138366699, -0.7706815004348755, 7.192529678344727, -2.617271900177002, -1.5945571660995483, -2.326606512069702, 1.116943359375, -0.41064453125, 0.047119140625
565, 1291687660, -6.689305782318115, -0.7849093675613403, 7.217472076416016, -2.630988121032715, -1.4939374923706055, -2.2741644382476807, 1.115966796875, -0.413330078125, 0.045654296875
566, 1291704327, -6.709056854248047, -0.7783221006393433, 7.209002494812012, -2.6322555541992188, -1.4623441696166992, -2.318166971206665, 1.11474609375, -0.41162109375, 0.047607421875
567, 1291720994, -6.7113728523254395, -0.7628271579742432, 7.205092906951904, -2.7115399837493896, -1.3318734169006348, -2.3898701667785645, 1.115966796875, -0.4111328125, 0.049072265625
568, 1291737661, -6.714237213134766, -0.7740346193313599, 7.211589336395264, -2.8243865966796875, -1.2824407815933228, -2.3779456615448, 1.116455078125, -0.41162109375, 0.045654296875
569, 1291754328, -6.7068071365356445, -0.803582489490509, 7.198955535888672, -2.883324384689331, -1.2310619354248047, -2.4449503421783447, 1.115966796875, -0.412109375, 0.046630859375
570, 1291770995, -6.700466632843018, -0.7771373987197876, 7.2008376121521, -2.755260944366455, -1.3799868822097778, -2.364680290222168, 1.115966796875, -0.4111328125, 0.046142578125
571, 1291787662, -6.707062244415283, -0.7814285159111023, 7.222782611846924, -2.7525973320007324, -1.4299827814102173, -2.462008476257324, 1.115478515625, -0.412109375, 0.046630859375
572, 1291804329, -6.706722736358643, -0.7906538248062134, 7.220479488372803, -2.6349706649780273, -1.5092028379440308, -2.464121103286743, 1.115966796875, -0.41064453125, 0.046142578125
573, 1291820996, -6.7100701332092285, -0.7634873390197754, 7.226691246032715, -2.813926935195923, -1.425334095954895, -2.5456724166870117, 1.115234375, -0.4111328125, 0.04443359375
574, 1291837663, -6.730693340301514, -0.7773933410644531, 7.236028671264648, -2.88653826713562, -1.3486878871917725, -2.6601219177246094, 1.115966796875, -0.41064453125, 0.047607421875
575, 1291854330, -6.72174596786499, -0.7840796113014221, 7.211688041687012, -2.849579095840454, -1.5742205381393433, -2.580172300338745, 1.116455078125, -0.4130859375, 0.046630859375
576, 1291870997, -6.725188732147217, -0.7909843921661377, 7.206421852111816, -2.6781156063079834, -1.392408847808838, -2.4366261959075928, 1.117431640625, -0.4130859375, 0.044189453125
577, 1291887664, -6.720603942871094, -0.8060547113418579, 7.231307506561279, -2.5413434505462646, -1.5802141427993774, -2.4164304733276367, 1.114990234375, -0.41162109375, 0.048095703125
578, 1291904331, -6.7110443115234375, -0.7769419550895691, 7.2049055099487305, -2.4201314449310303, -1.6677709817886353, -2.2778525352478027, 1.114990234375, -0.41162109375, 0.045654296875
579, 1291920998, -6.724219799041748, -0.7914204597473145, 7.214308738708496, -2.2494354248046875, -1.6660547256469727, -2.127992630004883, 1.11376953125, -0.4091796875, 0.0458984375
580, 1291937665, -6.709634304046631, -0.7907924652099609, 7.228000164031982, -2.125751256942749, -1.565243124961853, -2.0240306854248047, 1.115966796875, -0.41064453125, 0.045654296875
581, 1291954332, -6.709139347076416, -0.778959333896637, 7.232016086578369, -2.124035358428955, -1.5365570783615112, -1.9573864936828613, 1.115966796875, -0.41259765625, 0.0439453125
582, 1291970999, -6.705345153808594, -0.7706671953201294, 7.24137544631958, -2.1504294872283936, -1.5173988342285156, -1.98973548412323, 1.116455078125, -0.4130859375, 0.047119140625
583, 1291987666, -6.705207824707031, -0.7813600897789001, 7.220489025115967, -2.225320816040039, -1.616711974143982, -2.1101150512695312, 1.115478515625, -0.4111328125, 0.045654296875
584, 1292004333, -6.7159295082092285, -0.7667614221572876, 7.2229485511779785, -2.1247522830963135, -1.5434467792510986, -2.1267759799957275, 1.115966796875, -0.41162109375, 0.048095703125
585, 1292021000, -6.725000381469727, -0.7804909348487854, 7.219563961029053, -2.078829050064087, -1.5130831003189087, -2.155052661895752, 1.114990234375, -0.4111328125, 0.047119140625
586, 1292037667, -6.715287685394287, -0.8014569282531738, 7.222553253173828, -2.0024776458740234, -1.740126609802246, -2.251023054122925, 1.1142578125, -0.4111328125, 0.046142578125
587, 1292054334, -6.71327018737793, -0.7944684028625488, 7.219444751739502, -1.8333954811096191, -1.9643532037734985, -2.1429250240325928, 1.115478515625, -0.41162109375, 0.046630859375
588, 1292071001, -6.705408573150635, -0.7853996753692627, 7.226177215576172, -1.7846802473068237, -1.9521485567092896, -1.9798232316970825, 1.116943359375, -0.4111328125, 0.046142578125
589, 1292087668, -6.717226505279541, -0.7833486199378967, 7.232006549835205, -1.8274660110473633, -1.8912544250488281, -1.980553150177002, 1.116455078125, -0.4130859375, 0.045166015625
590, 1292104335, -6.703365325927734, -0.7863245010375977, 7.23276948928833, -1.81494140625, -1.9035485982894897, -1.91266667842865, 1.114990234375, -0.413330078125, 0.046142578125
591, 1292121002, -6.728153705596924, -0.7549780607223511, 7.228325843811035, -1.8505175113677979, -1.8134812116622925, -1.9602422714233398, 1.1142578125, -0.41259765625, 0.047607421875
592, 1292137669, -6.6986846923828125, -0.8138580918312073, 7.240481376647949, -1.818258285522461, -1.8340483903884888, -1.9646220207214355, 1.114501953125, -0.413818359375, 0.046630859375
593, 1292154336, -6.6830925941467285, -0.7818039059638977, 7.230329990386963, -1.7667639255523682, -1.8994888067245483, -1.824507713317871, 1.11474609375, -0.41064453125, 0.044921875
594, 1292171003, -6.688281059265137, -0.7694174647331238, 7.232144355773926, -1.9393423795700073, -1.81376314163208, -1.8087177276611328, 1.116455078125, -0.41162109375, 0.045654296875
595, 1292187670, -6.702200412750244, -0.7629586458206177, 7.232695579528809, -2.065446376800537, -1.7058311700820923, -1.9233856201171875, 1.116455078125, -0.413330078125, 0.045654296875
596, 1292204337, -6.701659202575684, -0.7614194750785828, 7.220904350280762, -2.0941712856292725, -1.6818065643310547, -1.9379336833953857, 1.114501953125, -0.413330078125, 0.04345703125
597, 1292221004, -6.695971488952637, -0.7786915898323059, 7.233470916748047, -2.2595908641815186, -1.3274424076080322, -1.7586320638656616, 1.115966796875, -0.413330078125, 0.045166015625
598, 1292237671, -6.704813003540039, -0.7606735229492188, 7.217807769775391, -2.5624351501464844, -1.0247511863708496, -1.7104415893554688, 1.115478515625, -0.412109375, 0.046630859375
599, 1292254338, -6.716782569885254, -0.7556679844856262, 7.235738754272461, -2.9219863414764404, -0.7546781897544861, -1.7200847864151, 1.117431640625, -0.415771484375, 0.045654296875
600, 1292271005, -6.701764106750488, -0.7941872477531433, 7.235477924346924, -3.0077123641967773, -0.7323567867279053, -1.7727702856063843, 1.114501953125, -0.413330078125, 0.0439453125
601, 1292287672, -6.7007598876953125, -0.7713932991027832, 7.196564197540283, -2.857621431350708, -0.9984213709831238, -1.8663843870162964, 1.116943359375, -0.413330078125, 0.046142578125
602, 1292304339, -6.709357738494873, -0.7536092400550842, 7.225377082824707, -2.6449851989746094, -1.2461987733840942, -1.9180712699890137, 1.115966796875, -0.414306640625, 0.048095703125
603, 1292321006, -6.706798553466797, -0.7744286060333252, 7.22358512878418, -2.5178561210632324, -1.2782913446426392, -1.9411735534667969, 1.116943359375, -0.416259765625, 0.046142578125
604, 1292337673, -6.707324981689453, -0.772794783115387, 7.20695686340332, -2.4346227645874023, -1.370632529258728, -1.9279953241348267, 1.117919921875, -0.414306640625, 0.045166015625
605, 1292354340, -6.725674152374268, -0.767400324344635, 7.214105606079102, -2.283371925354004, -1.5139410495758057, -1.8562291860580444, 1.115966796875, -0.414306640625, 0.046142578125
606, 1292371007, -6.714152812957764, -0.7589856386184692, 7.233620643615723, -2.8005051612854004, -0.8982757329940796, -1.7002604007720947, 1.117431640625, -0.415771484375, 0.046630859375
607, 1292387674, -6.715531349182129, -0.7324212193489075, 7.244797706604004, -3.1250054836273193, -0.7691493034362793, -1.6571159362792969, 1.116943359375, -0.4130859375, 0.047119140625
608, 1292404341, -6.701231002807617, -0.7441242933273315, 7.2055792808532715, -3.549267292022705, -0.720907986164093, -1.8647072315216064, 1.116943359375, -0.414306640625, 0.045166015625
609, 1292421008, -6.7134528160095215, -0.7283198237419128, 7.203452110290527, -3.6510393619537354, -0.6391265392303467, -2.179320812225342, 1.116455078125, -0.415283203125, 0.045654296875
610, 1292437675, -6.723961353302002, -0.7608504891395569, 7.237325668334961, -3.9359290599823, -0.5646576285362244, -2.1318345069885254, 1.116455078125, -0.414306640625, 0.047607421875
611, 1292454342, -6.746560573577881, -0.7168731093406677, 7.245067596435547, -4.779112339019775, -0.01940162293612957, -2.2343368530273438, 1.117431640625, -0.412109375, 0.047119140625
612, 1292471009, -6.782894611358643, -0.7285646200180054, 7.260034084320068, -6.110383987426758, 0.704125165939331, -2.5854485034942627, 1.117919921875, -0.414794921875, 0.04833984375
613, 1292487676, -6.788283348083496, -0.6918704509735107, 7.247462272644043, -7.350103378295898, 0.6089228391647339, -3.0974082946777344, 1.119384765625, -0.4111328125, 0.04931640625
614, 1292504343, -6.715601921081543, -0.8166518807411194, 7.182395935058594, -7.112762928009033, -0.061342429369688034, -3.4741716384887695, 1.116455078125, -0.40966796875, 0.0498046875
615, 1292521010, -6.697994232177734, -0.8864890336990356, 7.146006107330322, -5.929916858673096, -0.7148505449295044, -3.320417881011963, 1.117919921875, -0.40869140625, 0.05126953125
616, 1292537677, -6.7516584396362305, -0.8565382361412048, 7.164002418518066, -5.239795207977295, -1.090102195739746, -2.9584460258483887, 1.117919921875, -0.40869140625, 0.04931640625
617, 1292554344, -6.737001419067383, -0.8339094519615173, 7.1660356521606445, -5.049326419830322, -1.1652241945266724, -2.647815227508545, 1.116943359375, -0.4111328125, 0.049072265625
618, 1292571011, -6.737328052520752, -0.8560983538627625, 7.183527946472168, -5.229485988616943, -1.0770525932312012, -2.5231330394744873, 1.119384765625, -0.41064453125, 0.0498046875
619, 1292587678, -6.726710796356201, -0.8006657958030701, 7.157623767852783, -5.331988334655762, -0.853428065776825, -2.484586000442505, 1.117431640625, -0.407958984375, 0.05126953125
620, 1292604345, -6.684195518493652, -0.8828352093696594, 7.15138578414917, -4.851531982421875, -0.8172628879547119, -2.3960554599761963, 1.117431640625, -0.408203125, 0.05078125
621, 1292621012, -6.685582637786865, -0.872102677822113, 7.1542134284973145, -4.251312255859375, -0.47227269411087036, -2.0174615383148193, 1.117919921875, -0.407470703125, 0.052734375
622, 1292637679, -6.72977352142334, -0.8139475584030151, 7.206174850463867, -4.3223876953125, 0.47866949439048767, -1.839798927307129, 1.117919921875, -0.405517578125, 0.05126953125
623, 1292654346, -6.740845203399658, -0.7078070044517517, 7.1867265701293945, -5.077103137969971, 1.8265633583068848, -2.3175268173217773, 1.119384765625, -0.406494140625, 0.05078125
624, 1292671013, -6.662490367889404, -0.8708389401435852, 7.161820411682129, -5.418086051940918, 3.340453624725342, -2.5528311729431152, 1.119873046875, -0.404052734375, 0.05322265625
625, 1292687680, -6.570240497589111, -0.9025444388389587, 7.178983688354492, -5.304826736450195, 6.246087074279785, -2.2280619144439697, 1.120849609375, -0.406494140625, 0.054931640625
626, 1292704347, -6.465818881988525, -0.9522237181663513, 7.22490930557251, -4.681874752044678, 10.299132347106934, -1.662341594696045, 1.123046875, -0.406982421875, 0.05859375
627, 1292721014, -6.2462382316589355, -1.1368869543075562, 7.315252780914307, -4.123368263244629, 18.37424659729004, 0.07141469419002533, 1.123046875, -0.403564453125, 0.06201171875
628, 1292737681, -5.909938335418701, -1.243517279624939, 7.57717752456665, -4.969781398773193, 34.13811492919922, 3.3563473224639893, 1.12646484375, -0.407470703125, 0.06982421875
629, 1292754348, -5.7236785888671875, -1.2539674043655396, 7.842311382293701, -9.06633472442627, 59.48106384277344, 9.469643592834473, 1.134765625, -0.409912109375, 0.08251953125
630, 1292771015, -5.405303001403809, -2.0717129707336426, 10.584416389465332, -16.840299606323242, 86.00997924804688, 26.995927810668945, 1.1435546875, -0.41259765625, 0.10693359375
631, 1292787682, -6.640294551849365, -2.814032554626465, 11.805230140686035, -23.632789611816406, 102.47673797607422, 46.76144790649414, 1.155517578125, -0.4228515625, 0.1328125
632, 1292804349, -4.883595943450928, -4.84733772277832, 13.43073844909668, -19.542552947998047, 92.61593627929688, 62.07659912109375, 1.16552734375, -0.43603515625, 0.156982421875
633, 1292821016, -4.5324931144714355, -6.940970420837402, 15.318845748901367, 5.165424823760986, 64.31343078613281, 61.3156623840332, 1.173095703125, -0.451904296875, 0.17626953125
634, 1292837683, -1.6801612377166748, -7.195105075836182, 15.00736141204834, 11.28359317779541, 23.522153854370117, 31.268619537353516, 1.17822265625, -0.465087890625, 0.181640625
635, 1292854350, 1.5761897563934326, -6.126886367797852, 13.129569053649902, 1.6881011724472046, 5.024014949798584, 1.9812769889831543, 1.178955078125, -0.465087890625, 0.184326171875
636, 1292871017, 2.140442132949829, -5.231100082397461, 12.090715408325195, -10.63446044921875, -4.7902350425720215, -17.63982391357422, 1.180908203125, -0.4609375, 0.18017578125
637, 1292887684, 1.8368244171142578, -4.381973743438721, 11.688403129577637, -12.268808364868164, -12.224318504333496, -27.073959350585938, 1.18115234375, -0.455322265625, 0.18212890625
638, 1292904351, -0.6215108036994934, -3.026439905166626, 12.702127456665039, -14.424654006958008, -17.713098526000977, -32.70424270629883, 1.180419921875, -0.443115234375, 0.17529296875
639, 1292921018, -4.301455020904541, -1.9024449586868286, 14.234787940979004, -27.399961471557617, -43.871028900146484, -42.206138610839844, 1.17919921875, -0.432861328125, 0.166015625
640, 1292937685, -6.200870037078857, -1.34920334815979, 14.0294771194458, -42.16073226928711, -90.91551208496094, -53.47774124145508, 1.17333984375, -0.4140625, 0.1435546875
641, 1292954352, -5.507896423339844, -0.9341623187065125, 11.891797065734863, -45.921844482421875, -125.54727935791016, -56.68763732910156, 1.16064453125, -0.39404296875, 0.1162109375
642, 1292971019, -5.176844120025635, -0.24043059349060059, 10.436834335327148, -41.46538162231445, -134.3997039794922, -50.83631134033203, 1.14697265625, -0.374267578125, 0.08642578125
643, 1292987686, -5.986325740814209, 0.1834689974784851, 10.199702262878418, -37.05831527709961, -132.27615356445312, -40.39007568359375, 1.13232421875, -0.357421875, 0.051513671875
644, 1293004353, -8.149908065795898, 0.4069531559944153, 10.825281143188477, -36.57267761230469, -131.96607971191406, -28.453866958618164, 1.11376953125, -0.34423828125, 0.020751953125
645, 1293021020, -10.360838890075684, 0.7341646552085876, 11.13662052154541, -48.498313903808594, -145.83358764648438, -25.474817276000977, 1.091796875, -0.329833984375, -0.0087890625
646, 1293037687, -10.668200492858887, 0.18225409090518951, 9.845710754394531, -62.44718551635742, -163.90570068359375, -28.365049362182617, 1.06640625, -0.310546875, -0.040283203125
647, 1293054354, -9.91823959350586, -0.25299063324928284, 7.843662261962891, -60.8884391784668, -170.98651123046875, -28.72635841369629, 1.03564453125, -0.293212890625, -0.074462890625
648, 1293071021, -9.240169525146484, 0.00687040388584137, 6.282143592834473, -53.11758804321289, -161.6651153564453, -28.172441482543945, 1.006591796875, -0.277099609375, -0.10302734375
649, 1293087688, -9.031464576721191, -0.11311033368110657, 5.193472385406494, -45.38896560668945, -142.46914672851562, -27.42947769165039, 0.98193359375, -0.264404296875, -0.125732421875
