sep=,
DeviceTag:,B,,,,,,,,,,,,,,,,,
FirmwareVersion:,2.2.1,,,,,,,,,,,,,,,,,
AppVersion:,2023.6.1,,,,,,,,,,,,,,,,,
SyncStatus:,Synced,,,,,,,,,,,,,,,,,
OutputRate:,60Hz,,,,,,,,,,,,,,,,,
FilterProfile:,General,,,,,,,,,,,,,,,,,
Measurement Mode:,Inertial Mode - Rate quantities (with mag),,,,,,,,,,,,,,,,,
StartTime:,2023-12-07 12:47:23.614 +0200,,,,,,,,,,,,,,,,,
 2023,,,,,,,,,,,,,,,,,,,

PacketCounter,SampleTimeFine,Acc_X,Acc_Y,Acc_Z,Gyr_X,Gyr_Y,Gyr_Z,Mag_X,Mag_Y,Mag_Z
1, 1282304139, -6.273128509521484, 1.8249201774597168, 7.126533031463623, 0.5415741205215454, -0.8261889219284058, -0.6754837036132812, 0.604736328125, 0.1826171875, -0.7060546875
2, 1282320806, -6.286080837249756, 1.8358591794967651, 7.0983052253723145, 0.4523907005786896, -1.0301042795181274, -0.6969470977783203, 0.605224609375, 0.18310546875, -0.705078125
3, 1282337473, -6.274595737457275, 1.831148624420166, 7.1412529945373535, 0.33069196343421936, -0.9218651056289673, -0.9228768348693848, 0.603759765625, 0.18115234375, -0.70458984375
4, 1282354140, -6.272367000579834, 1.8134146928787231, 7.118605136871338, 0.2569017708301544, -0.7770380973815918, -0.9274358749389648, 0.603271484375, 0.181640625, -0.705078125
5, 1282370807, -6.274672508239746, 1.820505976676941, 7.133046627044678, 0.2551600933074951, -0.70893394947052, -0.985960841178894, 0.6025390625, 0.18310546875, -0.705078125
6, 1282387474, -6.277844429016113, 1.8228448629379272, 7.126474857330322, 0.49246177077293396, -0.5568456649780273, -0.8643645644187927, 0.60205078125, 0.18115234375, -0.705078125
7, 1282404141, -6.283198833465576, 1.845629096031189, 7.121406555175781, 0.47297054529190063, -0.313781201839447, -0.8397123217582703, 0.60302734375, 0.1826171875, -0.70361328125
8, 1282420808, -6.268184185028076, 1.8385429382324219, 7.124077320098877, 0.4717923402786255, -0.28179091215133667, -0.9030909538269043, 0.605224609375, 0.18017578125, -0.705078125
9, 1282437475, -6.268947124481201, 1.822784423828125, 7.115809440612793, 0.47742706537246704, -0.09728983789682388, -0.8758134245872498, 0.604248046875, 0.181640625, -0.70361328125
10, 1282454142, -6.290945529937744, 1.8511170148849487, 7.129639148712158, 0.3796890676021576, -0.15171681344509125, -0.9130542278289795, 0.602294921875, 0.18017578125, -0.705078125
11, 1282470809, -6.286782264709473, 1.8570107221603394, 7.092268943786621, 0.06207877770066261, -0.2510300576686859, -1.136384129524231, 0.602294921875, 0.18115234375, -0.70361328125
12, 1282487476, -6.286906719207764, 1.8466947078704834, 7.098147869110107, -0.27577194571495056, -0.6023210883140564, -1.4602569341659546, 0.603759765625, 0.181640625, -0.702392578125
13, 1282504143, -6.291275501251221, 1.849521279335022, 7.0851054191589355, -0.39141330122947693, -0.7697898149490356, -1.585951328277588, 0.603759765625, 0.1796875, -0.70361328125
14, 1282520810, -6.289797782897949, 1.839011311531067, 7.093008041381836, -0.45402348041534424, -0.7444587349891663, -1.4703738689422607, 0.603759765625, 0.1796875, -0.70361328125
15, 1282537477, -6.280473232269287, 1.8561795949935913, 7.090056419372559, -0.3866749703884125, -0.8131392002105713, -1.5291550159454346, 0.603759765625, 0.18017578125, -0.70556640625
16, 1282554144, -6.276975154876709, 1.8269517421722412, 7.080718517303467, -0.4288206398487091, -0.7548190951347351, -1.5739260911941528, 0.604248046875, 0.18212890625, -0.7041015625
17, 1282570811, -6.291172027587891, 1.8270683288574219, 7.101050853729248, -0.5029438138008118, -0.797041654586792, -1.5111620426177979, 0.605224609375, 0.181640625, -0.701904296875
18, 1282587478, -6.295332908630371, 1.8330262899398804, 7.083680152893066, -0.4240310490131378, -0.8487920165061951, -1.5616062879562378, 0.604736328125, 0.18310546875, -0.705078125
19, 1282604145, -6.277688026428223, 1.8420054912567139, 7.120842456817627, -0.4645375609397888, -0.9303813576698303, -1.4889302253723145, 0.604248046875, 0.1806640625, -0.70703125
20, 1282620812, -6.297639846801758, 1.8443142175674438, 7.132343292236328, -0.4963868260383606, -0.9737178683280945, -1.505194067955017, 0.60302734375, 0.18115234375, -0.7060546875
21, 1282637479, -6.299860000610352, 1.8479305505752563, 7.137617111206055, -0.47726699709892273, -0.9277687072753906, -1.6135871410369873, 0.6025390625, 0.1826171875, -0.70556640625
22, 1282654146, -6.283978462219238, 1.812239646911621, 7.104531288146973, -0.5095773935317993, -0.8745840191841125, -1.5648974180221558, 0.603759765625, 0.1826171875, -0.703125
23, 1282670813, -6.299901008605957, 1.8290621042251587, 7.08636999130249, -0.3984055817127228, -0.771966814994812, -1.600537657737732, 0.602783203125, 0.18212890625, -0.7041015625
24, 1282687480, -6.275530815124512, 1.8213645219802856, 7.13430643081665, -0.40364328026771545, -0.779112696647644, -1.5588144063949585, 0.604248046875, 0.18115234375, -0.70703125
25, 1282704147, -6.291894912719727, 1.801914095878601, 7.110021591186523, -0.31666260957717896, -0.7848243117332458, -1.5684832334518433, 0.60302734375, 0.1826171875, -0.7041015625
26, 1282720814, -6.290278434753418, 1.806639313697815, 7.115653991699219, -0.4232370853424072, -0.7559204697608948, -1.3986071348190308, 0.602294921875, 0.18017578125, -0.705078125
27, 1282737481, -6.297060489654541, 1.825247049331665, 7.1036810874938965, -0.35518404841423035, -0.8431187272071838, -1.4874701499938965, 0.606201171875, 0.182861328125, -0.700927734375
28, 1282754148, -6.280354976654053, 1.8232166767120361, 7.105966567993164, -0.2846851348876953, -0.7696999907493591, -1.3918325901031494, 0.602783203125, 0.18115234375, -0.70361328125
29, 1282770815, -6.298436164855957, 1.8138025999069214, 7.1008195877075195, -0.40853533148765564, -0.9382315278053284, -1.4782111644744873, 0.6025390625, 0.18359375, -0.705078125
30, 1282787482, -6.279305458068848, 1.8403120040893555, 7.107473850250244, -0.5004336833953857, -0.8593572378158569, -1.4265376329421997, 0.60400390625, 0.18359375, -0.70556640625
31, 1282804149, -6.28692102432251, 1.8111701011657715, 7.129719257354736, -0.4285901188850403, -0.9675453901290894, -1.4369878768920898, 0.602783203125, 0.1806640625, -0.7041015625
32, 1282820816, -6.275678634643555, 1.8151897192001343, 7.103150367736816, -0.36622315645217896, -0.9383595585823059, -1.4213383197784424, 0.605224609375, 0.1826171875, -0.705078125
33, 1282837483, -6.301052093505859, 1.8165528774261475, 7.094840049743652, -0.3076341152191162, -0.8142789602279663, -1.4053304195404053, 0.6015625, 0.181640625, -0.70556640625
34, 1282854150, -6.263486385345459, 1.8215913772583008, 7.097862720489502, -0.2837503254413605, -0.808503270149231, -1.3142772912979126, 0.6015625, 0.181640625, -0.70361328125
35, 1282870817, -6.28748083114624, 1.8211681842803955, 7.1128740310668945, -0.2768348455429077, -0.8731368780136108, -1.360303282737732, 0.6025390625, 0.18310546875, -0.705078125
36, 1282887484, -6.269381046295166, 1.8450480699539185, 7.1005859375, -0.3106180429458618, -1.0720323324203491, -1.3633513450622559, 0.60205078125, 0.181640625, -0.70361328125
37, 1282904151, -6.277003765106201, 1.8334782123565674, 7.076004981994629, -0.43371260166168213, -1.1422109603881836, -1.4215302467346191, 0.605224609375, 0.181640625, -0.705078125
38, 1282920818, -6.292800426483154, 1.8349175453186035, 7.11903190612793, -0.5934461951255798, -1.2502069473266602, -1.5359039306640625, 0.603515625, 0.18310546875, -0.7060546875
39, 1282937485, -6.2820940017700195, 1.8233927488327026, 7.136818885803223, -0.4861930310726166, -1.0837372541427612, -1.5405781269073486, 0.603515625, 0.183837890625, -0.70556640625
40, 1282954152, -6.276312828063965, 1.8117386102676392, 7.116860866546631, -0.3943203389644623, -0.9652658104896545, -1.4238612651824951, 0.604736328125, 0.183349609375, -0.7041015625
41, 1282970819, -6.285754203796387, 1.789620041847229, 7.110530853271484, -0.3402647376060486, -0.9173444509506226, -1.2074851989746094, 0.6005859375, 0.18310546875, -0.7041015625
42, 1282987486, -6.28356409072876, 1.8129816055297852, 7.105839729309082, -0.2894875407218933, -0.9716946482658386, -1.2218538522720337, 0.60302734375, 0.18310546875, -0.70654296875
43, 1283004153, -6.283650875091553, 1.8406902551651, 7.103760719299316, -0.2910114824771881, -1.0780385732650757, -1.18366539478302, 0.60400390625, 0.183837890625, -0.7060546875
44, 1283020820, -6.265073776245117, 1.8285579681396484, 7.133506774902344, -0.44331738352775574, -1.2010434865951538, -1.3147255182266235, 0.6015625, 0.18310546875, -0.70556640625
45, 1283037487, -6.268396854400635, 1.8332009315490723, 7.126053333282471, -0.4711327850818634, -1.0806639194488525, -1.4256925582885742, 0.60205078125, 0.18359375, -0.7060546875
46, 1283054154, -6.284209728240967, 1.825045108795166, 7.132776737213135, -0.45448458194732666, -0.9832203388214111, -1.4066239595413208, 0.6015625, 0.18408203125, -0.70361328125
47, 1283070821, -6.278543949127197, 1.8183188438415527, 7.128885269165039, -0.3852277994155884, -0.8682448267936707, -1.459424376487732, 0.6025390625, 0.18310546875, -0.705078125
48, 1283087488, -6.275430679321289, 1.8009251356124878, 7.116274833679199, -0.4269509017467499, -1.1033439636230469, -1.3464596271514893, 0.603271484375, 0.181640625, -0.7060546875
49, 1283104155, -6.2634124755859375, 1.7996071577072144, 7.121313571929932, -0.4158478379249573, -0.9148473143577576, -1.4285612106323242, 0.603759765625, 0.1826171875, -0.70556640625
50, 1283120822, -6.2820515632629395, 1.8141522407531738, 7.106875896453857, -0.3986104726791382, -0.8711392879486084, -1.4498454332351685, 0.603515625, 0.183837890625, -0.70361328125
51, 1283137489, -6.267801761627197, 1.8091973066329956, 7.108439922332764, -0.37325388193130493, -0.8608812093734741, -1.3771692514419556, 0.6015625, 0.18408203125, -0.7060546875
52, 1283154156, -6.272176265716553, 1.8154449462890625, 7.114073753356934, -0.23202544450759888, -0.8375097513198853, -1.4401381015777588, 0.60205078125, 0.18408203125, -0.705078125
53, 1283170823, -6.270968914031982, 1.8108365535736084, 7.1020188331604, -0.3775055706501007, -0.9359777569770813, -1.4619344472885132, 0.6015625, 0.184814453125, -0.70556640625
54, 1283187490, -6.274058818817139, 1.8136389255523682, 7.112843990325928, -0.28197023272514343, -0.8385598659515381, -1.4773406982421875, 0.60205078125, 0.18310546875, -0.705078125
55, 1283204157, -6.259509563446045, 1.8182733058929443, 7.1200995445251465, -0.2195136547088623, -0.6361938714981079, -1.5183464288711548, 0.6025390625, 0.18359375, -0.705078125
56, 1283220824, -6.267033100128174, 1.8226585388183594, 7.12216329574585, -0.3126542270183563, -0.5177991390228271, -1.6342439651489258, 0.6015625, 0.1826171875, -0.70751953125
57, 1283237491, -6.2817206382751465, 1.7955052852630615, 7.134350299835205, -0.20500405132770538, -0.4594790041446686, -1.5988727807998657, 0.604248046875, 0.18310546875, -0.703125
58, 1283254158, -6.259387493133545, 1.8130629062652588, 7.111948490142822, -0.2551281452178955, -0.45895397663116455, -1.6623923778533936, 0.6025390625, 0.184326171875, -0.70263671875
59, 1283270825, -6.277695655822754, 1.7995854616165161, 7.124269008636475, -0.3312362730503082, -0.39186152815818787, -1.6524802446365356, 0.60205078125, 0.18359375, -0.7041015625
60, 1283287492, -6.276118278503418, 1.8004862070083618, 7.124435901641846, -0.2556275725364685, -0.30064189434051514, -1.6509947776794434, 0.603515625, 0.1826171875, -0.705078125
61, 1283304159, -6.287874221801758, 1.8132896423339844, 7.113619804382324, -0.20465826988220215, -0.4317532479763031, -1.628404140472412, 0.6025390625, 0.18310546875, -0.70361328125
62, 1283320826, -6.301800727844238, 1.8118304014205933, 7.112939357757568, -0.26689717173576355, -0.46424299478530884, -1.6643261909484863, 0.604248046875, 0.1826171875, -0.70556640625
63, 1283337493, -6.283122539520264, 1.8135840892791748, 7.107874870300293, -0.32950738072395325, -0.42487630248069763, -1.6624948978424072, 0.603515625, 0.18310546875, -0.70556640625
64, 1283354160, -6.3018693923950195, 1.8124492168426514, 7.097278118133545, -0.3386511206626892, -0.6027692556381226, -1.5717490911483765, 0.6015625, 0.18408203125, -0.70361328125
65, 1283370827, -6.299429893493652, 1.8188270330429077, 7.117526054382324, -0.44650617241859436, -0.6402406096458435, -1.6826390027999878, 0.6015625, 0.184326171875, -0.70361328125
66, 1283387494, -6.279695987701416, 1.8046553134918213, 7.126726150512695, -0.5016374588012695, -0.7648848295211792, -1.7279223203659058, 0.6015625, 0.185302734375, -0.70458984375
67, 1283404161, -6.291858196258545, 1.7906769514083862, 7.115128993988037, -0.5816643238067627, -0.7877824306488037, -1.7845388650894165, 0.60302734375, 0.184814453125, -0.70751953125
68, 1283420828, -6.293379306793213, 1.7968021631240845, 7.1031670570373535, -0.6577341556549072, -0.9218394756317139, -1.8018662929534912, 0.6025390625, 0.18408203125, -0.70654296875
69, 1283437495, -6.282684326171875, 1.8180338144302368, 7.139781951904297, -0.7296930551528931, -0.8774527311325073, -1.8725959062576294, 0.60302734375, 0.187255859375, -0.70556640625
70, 1283454162, -6.272000789642334, 1.7865833044052124, 7.132943630218506, -0.6622803807258606, -0.8259711861610413, -1.8521825075149536, 0.6015625, 0.186279296875, -0.70654296875
71, 1283470829, -6.277298450469971, 1.7894521951675415, 7.11610221862793, -0.6234643459320068, -0.7047591209411621, -1.8717249631881714, 0.60400390625, 0.185302734375, -0.7021484375
72, 1283487496, -6.287448883056641, 1.7862768173217773, 7.119546890258789, -0.7956201434135437, -0.7320110201835632, -1.8629014492034912, 0.60302734375, 0.184814453125, -0.7041015625
73, 1283504163, -6.289402961730957, 1.791948914527893, 7.1313796043396, -0.7684578895568848, -0.8678735494613647, -1.8165552616119385, 0.604248046875, 0.184814453125, -0.703125
74, 1283520830, -6.285304546356201, 1.7650688886642456, 7.084756851196289, -0.6048055291175842, -0.9227358102798462, -1.7491040229797363, 0.604736328125, 0.184326171875, -0.705078125
75, 1283537497, -6.2855730056762695, 1.7668031454086304, 7.128454685211182, -0.5821766257286072, -0.8608683943748474, -1.5992697477340698, 0.603515625, 0.183837890625, -0.70556640625
76, 1283554164, -6.293631076812744, 1.7892223596572876, 7.117833137512207, -0.448721706867218, -0.8592292666435242, -1.5339574813842773, 0.6044921875, 0.186279296875, -0.70654296875
77, 1283570831, -6.279110908508301, 1.7888233661651611, 7.135159015655518, -0.34715455770492554, -0.8940881490707397, -1.5405784845352173, 0.603515625, 0.185302734375, -0.70556640625
78, 1283587498, -6.276912689208984, 1.7661867141723633, 7.1509623527526855, -0.4200354516506195, -0.6785444617271423, -1.460269570350647, 0.60400390625, 0.188232421875, -0.7060546875
79, 1283604165, -6.281415939331055, 1.775888442993164, 7.125502586364746, -0.31848111748695374, -0.585749626159668, -1.5088825225830078, 0.60205078125, 0.185302734375, -0.70556640625
80, 1283620832, -6.302849769592285, 1.7716693878173828, 7.091558933258057, -0.3856760263442993, -0.6577212810516357, -1.4920166730880737, 0.60302734375, 0.187255859375, -0.7060546875
81, 1283637499, -6.295753479003906, 1.775754690170288, 7.115118026733398, -0.36021703481674194, -0.799910306930542, -1.5404503345489502, 0.6044921875, 0.186767578125, -0.705078125
82, 1283654166, -6.302267074584961, 1.7667039632797241, 7.121255874633789, -0.3382669687271118, -0.9125677347183228, -1.4383068084716797, 0.60302734375, 0.186767578125, -0.70361328125
83, 1283670833, -6.282616138458252, 1.7655435800552368, 7.13489294052124, -0.2902303636074066, -0.8659142255783081, -1.2920711040496826, 0.60205078125, 0.186279296875, -0.7041015625
84, 1283687500, -6.285602569580078, 1.780708909034729, 7.148797988891602, -0.18320763111114502, -0.9206869006156921, -1.2851300239562988, 0.605224609375, 0.186767578125, -0.703125
85, 1283704167, -6.288383960723877, 1.7715765237808228, 7.126839637756348, -0.2608013451099396, -0.929894745349884, -1.2304085493087769, 0.60400390625, 0.186767578125, -0.707763671875
86, 1283720834, -6.2904815673828125, 1.7737234830856323, 7.112827301025391, -0.2454080879688263, -1.0237908363342285, -1.2265026569366455, 0.60107421875, 0.185791015625, -0.7060546875
87, 1283737501, -6.271523952484131, 1.7685152292251587, 7.120734214782715, -0.21147124469280243, -0.9868572354316711, -1.2534983158111572, 0.60302734375, 0.185302734375, -0.7060546875
88, 1283754168, -6.288325309753418, 1.7833319902420044, 7.1335554122924805, -0.25056904554367065, -0.8433749079704285, -1.2289484739303589, 0.60498046875, 0.186279296875, -0.70361328125
89, 1283770835, -6.279482841491699, 1.792948842048645, 7.110177040100098, -0.26287591457366943, -0.950884222984314, -1.2636024951934814, 0.6044921875, 0.185791015625, -0.7060546875
90, 1283787502, -6.284607887268066, 1.7779721021652222, 7.129026412963867, -0.279511421918869, -1.0859272480010986, -1.3476635217666626, 0.60400390625, 0.186767578125, -0.70361328125
91, 1283804169, -6.280134677886963, 1.7748934030532837, 7.12552547454834, -0.28879597783088684, -1.0278760194778442, -1.323459267616272, 0.6025390625, 0.187255859375, -0.7060546875
92, 1283820836, -6.280675411224365, 1.7826517820358276, 7.146910667419434, -0.15733881294727325, -0.9500517845153809, -1.3173891305923462, 0.60302734375, 0.185302734375, -0.70703125
93, 1283837503, -6.286823272705078, 1.7825313806533813, 7.128584861755371, -0.2912164032459259, -0.8842912316322327, -1.247274398803711, 0.603515625, 0.185791015625, -0.70361328125
94, 1283854170, -6.290201187133789, 1.7891160249710083, 7.116803169250488, -0.25625506043434143, -0.8423505425453186, -1.4127197265625, 0.6044921875, 0.188720703125, -0.70654296875
95, 1283870837, -6.294306755065918, 1.7750657796859741, 7.139689922332764, -0.15966957807540894, -0.8416844606399536, -1.3287996053695679, 0.60302734375, 0.185791015625, -0.70703125
96, 1283887504, -6.280389785766602, 1.7916443347930908, 7.1320109367370605, -0.17393584549427032, -0.7775247097015381, -1.3223323822021484, 0.60205078125, 0.184814453125, -0.7041015625
97, 1283904171, -6.2938995361328125, 1.7929823398590088, 7.1349778175354, -0.17841807007789612, -0.7403863072395325, -1.3153914213180542, 0.6025390625, 0.186767578125, -0.70703125
98, 1283920838, -6.285961151123047, 1.7858115434646606, 7.138433456420898, -0.16791684925556183, -0.7340471744537354, -1.3659380674362183, 0.603515625, 0.185302734375, -0.70556640625
99, 1283937505, -6.280730724334717, 1.7799537181854248, 7.10146951675415, -0.1878819614648819, -0.7217018008232117, -1.361955165863037, 0.603515625, 0.184326171875, -0.705078125
100, 1283954172, -6.29370641708374, 1.7743366956710815, 7.140782833099365, -0.2690998613834381, -0.8198369741439819, -1.4352203607559204, 0.60302734375, 0.187255859375, -0.705078125
101, 1283970839, -6.282217025756836, 1.770644187927246, 7.1259613037109375, -0.3005906343460083, -0.8735211491584778, -1.3807934522628784, 0.60205078125, 0.189208984375, -0.7060546875
102, 1283987506, -6.284592628479004, 1.7792567014694214, 7.126537322998047, -0.23523983359336853, -0.8688467741012573, -1.3970575332641602, 0.60205078125, 0.186279296875, -0.708251953125
103, 1284004173, -6.28751277923584, 1.7728694677352905, 7.135510444641113, -0.2905120551586151, -0.9035008549690247, -1.4043186902999878, 0.60400390625, 0.186767578125, -0.70458984375
104, 1284020840, -6.2829365730285645, 1.7772184610366821, 7.130984306335449, -0.2768605053424835, -0.797400176525116, -1.2823125123977661, 0.60205078125, 0.186767578125, -0.707763671875
105, 1284037507, -6.277690410614014, 1.786359190940857, 7.116766929626465, -0.289154589176178, -0.7535896897315979, -1.4090698957443237, 0.603515625, 0.187255859375, -0.705078125
106, 1284054174, -6.289135932922363, 1.787144660949707, 7.110873222351074, -0.37367650866508484, -0.9201875329017639, -1.4090955257415771, 0.6044921875, 0.184326171875, -0.70751953125
107, 1284070841, -6.280261039733887, 1.7763921022415161, 7.111055374145508, -0.3610110282897949, -0.8955864906311035, -1.4714882373809814, 0.60302734375, 0.186767578125, -0.7041015625
108, 1284087508, -6.284714698791504, 1.7696834802627563, 7.119964599609375, -0.3975987732410431, -0.8422608971595764, -1.459987998008728, 0.6025390625, 0.187255859375, -0.708740234375
109, 1284104175, -6.27867317199707, 1.8043521642684937, 7.133246898651123, -0.49843594431877136, -1.0904093980789185, -1.496204137802124, 0.6015625, 0.186279296875, -0.70703125
110, 1284120842, -6.290375709533691, 1.7798573970794678, 7.135815143585205, -0.4345066249370575, -1.0172595977783203, -1.505078911781311, 0.60400390625, 0.186767578125, -0.7060546875
111, 1284137509, -6.277238845825195, 1.7885887622833252, 7.134759426116943, -0.5506858229637146, -1.0303348302841187, -1.4746383428573608, 0.60302734375, 0.186767578125, -0.7060546875
112, 1284154176, -6.2704620361328125, 1.781691312789917, 7.1441755294799805, -0.5836621522903442, -1.204859733581543, -1.5015572309494019, 0.60205078125, 0.186279296875, -0.7060546875
113, 1284170843, -6.278963565826416, 1.783950924873352, 7.147676944732666, -0.5631847977638245, -1.140226125717163, -1.5562915802001953, 0.6025390625, 0.187255859375, -0.70458984375
114, 1284187510, -6.2784552574157715, 1.7608388662338257, 7.1373796463012695, -0.47802257537841797, -0.9821444749832153, -1.5307813882827759, 0.603515625, 0.187255859375, -0.7060546875
115, 1284204177, -6.275278091430664, 1.7671117782592773, 7.13202428817749, -0.29358556866645813, -0.8548879623413086, -1.4840126037597656, 0.60400390625, 0.18896484375, -0.705078125
116, 1284220844, -6.290191173553467, 1.7685164213180542, 7.138664245605469, -0.31490811705589294, -0.7710831165313721, -1.4225292205810547, 0.60107421875, 0.186767578125, -0.708251953125
117, 1284237511, -6.286309719085693, 1.7597713470458984, 7.137662887573242, -0.27036768198013306, -0.7955688834190369, -1.4176502227783203, 0.60302734375, 0.187255859375, -0.707275390625
118, 1284254178, -6.288082122802734, 1.7733460664749146, 7.139820098876953, -0.34848642349243164, -0.9385389685630798, -1.3715089559555054, 0.6005859375, 0.187255859375, -0.706787109375
119, 1284270845, -6.276638984680176, 1.7743862867355347, 7.117659091949463, -0.4748081862926483, -0.9942337274551392, -1.4654946327209473, 0.60302734375, 0.187744140625, -0.70703125
120, 1284287512, -6.284798622131348, 1.7750357389450073, 7.128331661224365, -0.5156220197677612, -1.0910369157791138, -1.4682222604751587, 0.6025390625, 0.187255859375, -0.70654296875
121, 1284304179, -6.285118579864502, 1.776349663734436, 7.167518615722656, -0.5253804922103882, -1.1618304252624512, -1.4913761615753174, 0.60107421875, 0.188720703125, -0.706787109375
122, 1284320846, -6.264660835266113, 1.7471097707748413, 7.152251243591309, -0.6450045704841614, -1.2333154678344727, -1.5208052396774292, 0.60205078125, 0.188720703125, -0.709228515625
123, 1284337513, -6.267054557800293, 1.781237244606018, 7.111740589141846, -0.6830651164054871, -1.3517998456954956, -1.5370436906814575, 0.60302734375, 0.187744140625, -0.707275390625
124, 1284354180, -6.2789998054504395, 1.779160499572754, 7.133649826049805, -0.7483646869659424, -1.3818436861038208, -1.639084815979004, 0.6025390625, 0.186279296875, -0.708251953125
125, 1284370847, -6.27327299118042, 1.7531883716583252, 7.1338582038879395, -0.7391184568405151, -1.4398820400238037, -1.6236402988433838, 0.60400390625, 0.187744140625, -0.707275390625
126, 1284387514, -6.263638496398926, 1.7633473873138428, 7.141261577606201, -0.6999310851097107, -1.4064830541610718, -1.5188971757888794, 0.6025390625, 0.189208984375, -0.707763671875
127, 1284404181, -6.278380870819092, 1.7449007034301758, 7.144060134887695, -0.7253901362419128, -1.5150809288024902, -1.5561637878417969, 0.600830078125, 0.189208984375, -0.708251953125
128, 1284420848, -6.276132583618164, 1.7560218572616577, 7.151309013366699, -0.6742031574249268, -1.5437160730361938, -1.5551904439926147, 0.60302734375, 0.189453125, -0.707763671875
129, 1284437515, -6.278530120849609, 1.748032569885254, 7.174320220947266, -0.7950950264930725, -1.601049780845642, -1.7447115182876587, 0.6025390625, 0.188720703125, -0.708740234375
130, 1284454182, -6.263204574584961, 1.7476001977920532, 7.158076763153076, -1.0332931280136108, -1.6286731958389282, -1.8398882150650024, 0.599853515625, 0.188720703125, -0.706787109375
131, 1284470849, -6.270774841308594, 1.7628555297851562, 7.144869327545166, -1.0219467878341675, -1.6340261697769165, -1.7691714763641357, 0.6025390625, 0.188232421875, -0.707275390625
132, 1284487516, -6.2538323402404785, 1.7441567182540894, 7.1550092697143555, -0.824895441532135, -1.4517533779144287, -1.7847955226898193, 0.599365234375, 0.188720703125, -0.708251953125
133, 1284504183, -6.256414890289307, 1.7468547821044922, 7.1584272384643555, -0.6215689182281494, -1.0994633436203003, -1.6399041414260864, 0.601806640625, 0.189453125, -0.710693359375
134, 1284520850, -6.2654314041137695, 1.7128835916519165, 7.15861177444458, -0.347551554441452, -0.7145175933837891, -1.4804781675338745, 0.600341796875, 0.188720703125, -0.711181640625
135, 1284537517, -6.254724025726318, 1.7459564208984375, 7.175620079040527, -0.19742268323898315, -0.7014166116714478, -1.3486623764038086, 0.600341796875, 0.1904296875, -0.709716796875
136, 1284554184, -6.271345615386963, 1.7500278949737549, 7.165632724761963, -0.11881730705499649, -0.734725832939148, -1.3468437194824219, 0.60205078125, 0.188232421875, -0.708251953125
137, 1284570851, -6.2704176902771, 1.7540944814682007, 7.179318428039551, -0.07882308214902878, -0.7442409992218018, -1.2956695556640625, 0.599853515625, 0.189697265625, -0.708251953125
138, 1284587518, -6.267502307891846, 1.7515971660614014, 7.150664806365967, -0.11501383781433105, -0.7909714579582214, -1.2634873390197754, 0.6015625, 0.188720703125, -0.7060546875
139, 1284604185, -6.268186092376709, 1.739892840385437, 7.152214527130127, -0.10470472276210785, -0.7692390084266663, -1.3781040906906128, 0.60205078125, 0.188720703125, -0.707763671875
140, 1284620852, -6.248223781585693, 1.7506471872329712, 7.1482648849487305, -0.1416766494512558, -0.8335269093513489, -1.2391424179077148, 0.601318359375, 0.188232421875, -0.710205078125
141, 1284637519, -6.25541353225708, 1.7229341268539429, 7.1540093421936035, -0.16363953053951263, -0.9355165958404541, -1.250399112701416, 0.600341796875, 0.189697265625, -0.707763671875
142, 1284654186, -6.2641706466674805, 1.7373590469360352, 7.144002914428711, -0.07797786593437195, -0.9019895792007446, -1.2412681579589844, 0.60107421875, 0.188720703125, -0.707275390625
143, 1284670853, -6.259384632110596, 1.740989327430725, 7.151375770568848, -0.13022775948047638, -0.8374071717262268, -1.2053080797195435, 0.60205078125, 0.188720703125, -0.708740234375
144, 1284687520, -6.25763463973999, 1.7367557287216187, 7.163536071777344, -0.13549117743968964, -0.7967087030410767, -1.2115318775177002, 0.60205078125, 0.187255859375, -0.708740234375
145, 1284704187, -6.2542877197265625, 1.7363483905792236, 7.149566650390625, 0.024748269468545914, -0.726132869720459, -1.0980550050735474, 0.60205078125, 0.187255859375, -0.707275390625
146, 1284720854, -6.252110481262207, 1.7493520975112915, 7.156281471252441, 0.21151608228683472, -0.6052793264389038, -1.0607116222381592, 0.599365234375, 0.190185546875, -0.706787109375
147, 1284737521, -6.265928268432617, 1.7416163682937622, 7.14652681350708, 0.15104450285434723, -0.6364499926567078, -1.0039281845092773, 0.6005859375, 0.186767578125, -0.709228515625
148, 1284754188, -6.264892578125, 1.7605632543563843, 7.156114101409912, 0.043099772185087204, -0.7875264286994934, -1.0341768264770508, 0.601318359375, 0.189208984375, -0.708740234375
149, 1284770855, -6.263887882232666, 1.736568808555603, 7.156363487243652, 0.1307079941034317, -0.6199553608894348, -0.947797954082489, 0.60205078125, 0.187255859375, -0.70654296875
150, 1284787522, -6.272153854370117, 1.762500286102295, 7.147239685058594, 0.06633048504590988, -0.7572650909423828, -1.0300147533416748, 0.60009765625, 0.187255859375, -0.708251953125
151, 1284804189, -6.252942085266113, 1.773388147354126, 7.153581619262695, -0.056873004883527756, -0.9213913679122925, -1.2453150749206543, 0.600830078125, 0.188232421875, -0.708740234375
152, 1284820856, -6.2577385902404785, 1.7515760660171509, 7.14169454574585, -0.10364177823066711, -0.8888246417045593, -1.2435989379882812, 0.60302734375, 0.188232421875, -0.708740234375
153, 1284837523, -6.26068639755249, 1.7538018226623535, 7.127005577087402, -0.09278199821710587, -0.7427554726600647, -1.2972062826156616, 0.6015625, 0.187744140625, -0.708740234375
154, 1284854190, -6.265939235687256, 1.7567218542099, 7.145200729370117, -0.08988777548074722, -0.6428787112236023, -1.2705050706863403, 0.60546875, 0.1904296875, -0.7060546875
155, 1284870857, -6.257635593414307, 1.760262370109558, 7.15609884262085, -0.08381755650043488, -0.7039778232574463, -1.2000446319580078, 0.60107421875, 0.188232421875, -0.708740234375
156, 1284887524, -6.261949062347412, 1.7500394582748413, 7.158403396606445, 0.12819796800613403, -0.6961531639099121, -1.1266642808914185, 0.600341796875, 0.19091796875, -0.709228515625
157, 1284904191, -6.2607855796813965, 1.7593172788619995, 7.151304244995117, -0.0795658528804779, -0.7415772676467896, -1.1642253398895264, 0.599365234375, 0.190185546875, -0.708740234375
158, 1284920858, -6.266519069671631, 1.7574273347854614, 7.156596660614014, 0.010610061697661877, -0.7647440433502197, -1.0823286771774292, 0.6005859375, 0.187255859375, -0.708740234375
159, 1284937525, -6.2688889503479, 1.7590957880020142, 7.143514156341553, -0.03327089548110962, -0.7952103018760681, -1.135218858718872, 0.6025390625, 0.184814453125, -0.711181640625
160, 1284954192, -6.260019779205322, 1.7474442720413208, 7.146953582763672, -0.10090122371912003, -0.8205155730247498, -1.0833786725997925, 0.60107421875, 0.187255859375, -0.707275390625
161, 1284970859, -6.2553391456604, 1.7531795501708984, 7.158188343048096, -0.0036498093977570534, -0.7470840215682983, -1.127944827079773, 0.600341796875, 0.188232421875, -0.707275390625
162, 1284987526, -6.2461724281311035, 1.7463315725326538, 7.1302337646484375, 0.11630085855722427, -0.6020649671554565, -1.121900200843811, 0.6025390625, 0.188720703125, -0.708251953125
163, 1285004193, -6.25300407409668, 1.772966980934143, 7.140771389007568, 0.11861881613731384, -0.5849172472953796, -1.0880402326583862, 0.599853515625, 0.186767578125, -0.709228515625
164, 1285020860, -6.271448612213135, 1.7581815719604492, 7.184069633483887, 0.005833292845636606, -0.6104531288146973, -1.2135041952133179, 0.6005859375, 0.188232421875, -0.708251953125
165, 1285037527, -6.254942893981934, 1.7637556791305542, 7.124542713165283, -0.059716012328863144, -0.7133265137672424, -1.3348058462142944, 0.6015625, 0.188720703125, -0.708251953125
166, 1285054194, -6.250958442687988, 1.752257227897644, 7.123383522033691, -0.14314937591552734, -0.644902229309082, -1.3392879962921143, 0.603515625, 0.186279296875, -0.708740234375
167, 1285070861, -6.265762805938721, 1.7537935972213745, 7.146061897277832, -0.11341303586959839, -0.639907717704773, -1.39566171169281, 0.6005859375, 0.189208984375, -0.7060546875
168, 1285087528, -6.257252216339111, 1.7622079849243164, 7.151729106903076, -0.08981091529130936, -0.5103970170021057, -1.3299905061721802, 0.60205078125, 0.189453125, -0.707275390625
169, 1285104195, -6.274886608123779, 1.7541441917419434, 7.143585205078125, 0.024466529488563538, -0.460759699344635, -1.3320140838623047, 0.60205078125, 0.186767578125, -0.708251953125
170, 1285120862, -6.268489837646484, 1.7549701929092407, 7.140801906585693, 0.048977889120578766, -0.4139268398284912, -1.172511100769043, 0.60205078125, 0.186279296875, -0.710205078125
171, 1285137529, -6.27415657043457, 1.771233320236206, 7.1396894454956055, 0.18288107216358185, -0.5302725434303284, -1.1967917680740356, 0.60498046875, 0.188232421875, -0.707275390625
172, 1285154196, -6.271631717681885, 1.7666945457458496, 7.1374287605285645, 0.12223020195960999, -0.5077589154243469, -1.0835963487625122, 0.60107421875, 0.188720703125, -0.707275390625
173, 1285170863, -6.26291561126709, 1.7540276050567627, 7.157098770141602, 0.16073890030384064, -0.5445643663406372, -1.0141860246658325, 0.60107421875, 0.187744140625, -0.707275390625
174, 1285187530, -6.272888660430908, 1.7563621997833252, 7.14467716217041, 0.23588652908802032, -0.46793121099472046, -1.0108051300048828, 0.60400390625, 0.187744140625, -0.7060546875
175, 1285204197, -6.259443283081055, 1.7565417289733887, 7.1592607498168945, 0.40505844354629517, -0.39236095547676086, -0.9305606484413147, 0.6015625, 0.186279296875, -0.707275390625
176, 1285220864, -6.275045394897461, 1.7538238763809204, 7.13747501373291, 0.42297452688217163, -0.19173665344715118, -0.8434005379676819, 0.6025390625, 0.186279296875, -0.709228515625
177, 1285237531, -6.268430233001709, 1.7959707975387573, 7.1300950050354, 0.4119739234447479, -0.24789254367351532, -0.8629815578460693, 0.6015625, 0.187255859375, -0.709228515625
178, 1285254198, -6.271574974060059, 1.7724272012710571, 7.1360015869140625, 0.27885183691978455, -0.4396035373210907, -0.8871726393699646, 0.6025390625, 0.186279296875, -0.707275390625
179, 1285270865, -6.251760482788086, 1.7758901119232178, 7.159949779510498, 0.30077633261680603, -0.7037217020988464, -0.9078036546707153, 0.6005859375, 0.186279296875, -0.7060546875
180, 1285287532, -6.262421131134033, 1.7652419805526733, 7.158590316772461, 0.5100449323654175, -0.36582618951797485, -0.7935070395469666, 0.60009765625, 0.187744140625, -0.707275390625
181, 1285304199, -6.276963233947754, 1.8088326454162598, 7.14972448348999, 0.5856536030769348, -0.31095099449157715, -0.7694823145866394, 0.6005859375, 0.186767578125, -0.707763671875
182, 1285320866, -6.277506351470947, 1.7867157459259033, 7.133697509765625, 0.43893125653266907, -0.41163450479507446, -0.8837149143218994, 0.6025390625, 0.186279296875, -0.707275390625
183, 1285337533, -6.274686813354492, 1.8214974403381348, 7.1259918212890625, 0.5549567341804504, -0.4952599108219147, -1.0605833530426025, 0.60107421875, 0.184326171875, -0.7060546875
184, 1285354200, -6.265050411224365, 1.7902837991714478, 7.113265514373779, 0.403534471988678, -0.317328542470932, -1.1939616203308105, 0.60302734375, 0.185302734375, -0.70654296875
185, 1285370867, -6.271454811096191, 1.7679591178894043, 7.150078296661377, 0.6041587591171265, -0.34694963693618774, -1.2077925205230713, 0.6005859375, 0.184814453125, -0.70703125
186, 1285387534, -6.273606300354004, 1.785658359527588, 7.13738489151001, 1.010107159614563, -0.03955881670117378, -1.2530629634857178, 0.6025390625, 0.186279296875, -0.70703125
187, 1285404201, -6.283400058746338, 1.7780500650405884, 7.144655704498291, 1.4936109781265259, 0.4391233026981354, -1.0519646406173706, 0.603515625, 0.184326171875, -0.707763671875
188, 1285420868, -6.290334701538086, 1.7941503524780273, 7.1428608894348145, 1.177588701248169, 0.024312855675816536, -0.9453646540641785, 0.603515625, 0.183837890625, -0.707763671875
189, 1285437535, -6.2738037109375, 1.8025133609771729, 7.113752365112305, 0.8755125403404236, -0.33952194452285767, -1.045856237411499, 0.603515625, 0.18310546875, -0.70751953125
190, 1285454202, -6.272405624389648, 1.8169798851013184, 7.129190921783447, 0.729648232460022, -0.2516447901725769, -0.9286268949508667, 0.60400390625, 0.184326171875, -0.7041015625
191, 1285470869, -6.283123970031738, 1.793230652809143, 7.123335361480713, 0.6775391101837158, -0.1506538838148117, -0.8037776947021484, 0.6025390625, 0.184326171875, -0.70654296875
192, 1285487536, -6.279486656188965, 1.8292268514633179, 7.125645160675049, 0.6292848587036133, -0.2665257453918457, -0.870357871055603, 0.60107421875, 0.18359375, -0.70556640625
193, 1285504203, -6.272829532623291, 1.8090553283691406, 7.0848541259765625, 0.4975075125694275, -0.512599766254425, -1.0219595432281494, 0.60302734375, 0.185302734375, -0.7041015625
194, 1285520870, -6.286967754364014, 1.7876449823379517, 7.126870155334473, 0.39003661274909973, -0.5433734655380249, -0.9902638792991638, 0.6025390625, 0.18310546875, -0.709228515625
195, 1285537537, -6.282384872436523, 1.8003520965576172, 7.113992691040039, 0.07710062712430954, -0.7692774534225464, -1.044985294342041, 0.605224609375, 0.184326171875, -0.70751953125
196, 1285554204, -6.276295185089111, 1.818462610244751, 7.10289192199707, 0.010328322649002075, -0.7473785877227783, -1.0027884244918823, 0.6025390625, 0.18359375, -0.7060546875
197, 1285570871, -6.278924942016602, 1.8224338293075562, 7.1217241287231445, -0.1403447836637497, -0.8252923488616943, -1.0589443445205688, 0.603271484375, 0.18115234375, -0.7041015625
198, 1285587538, -6.272381782531738, 1.835853934288025, 7.115260601043701, -0.3194800019264221, -0.9806718230247498, -1.225913405418396, 0.60205078125, 0.18212890625, -0.70361328125
199, 1285604205, -6.279690742492676, 1.8181034326553345, 7.108865737915039, -0.4576093256473541, -1.0109845399856567, -1.3166849613189697, 0.603759765625, 0.183837890625, -0.70263671875
200, 1285620872, -6.2872819900512695, 1.810546636581421, 7.103561878204346, -0.5202323794364929, -1.0216394662857056, -1.3608283996582031, 0.603515625, 0.18359375, -0.70556640625
201, 1285637539, -6.2701592445373535, 1.8239808082580566, 7.142310619354248, -0.5566792488098145, -0.949155330657959, -1.3069007396697998, 0.604248046875, 0.1826171875, -0.70556640625
202, 1285654206, -6.263302803039551, 1.826898455619812, 7.125401973724365, -0.512702226638794, -0.8885941505432129, -1.3482781648635864, 0.60205078125, 0.18408203125, -0.7041015625
203, 1285670873, -6.284355163574219, 1.8182464838027954, 7.11119270324707, -0.5799611806869507, -0.8934222459793091, -1.4212744235992432, 0.60205078125, 0.1826171875, -0.705078125
204, 1285687540, -6.275803089141846, 1.8224610090255737, 7.119896411895752, -0.5848787426948547, -1.069624662399292, -1.3703433275222778, 0.603515625, 0.183837890625, -0.70361328125
205, 1285704207, -6.267555236816406, 1.8169046640396118, 7.144289493560791, -0.7106755375862122, -1.0781663656234741, -1.3850066661834717, 0.603271484375, 0.1806640625, -0.70556640625
206, 1285720874, -6.270613193511963, 1.8167086839675903, 7.126302719116211, -0.46843069791793823, -0.8591268062591553, -1.4509210586547852, 0.60302734375, 0.184326171875, -0.70703125
207, 1285737541, -6.2689080238342285, 1.7971166372299194, 7.105595588684082, -0.3341432809829712, -0.9127213954925537, -1.434772253036499, 0.6025390625, 0.18408203125, -0.70751953125
208, 1285754208, -6.270989894866943, 1.8039273023605347, 7.1606059074401855, -0.22555825114250183, -0.7908305525779724, -1.294132947921753, 0.60107421875, 0.184814453125, -0.70556640625
209, 1285770875, -6.282559871673584, 1.8059120178222656, 7.122498035430908, -0.23522701859474182, -0.7963628172874451, -1.2849122285842896, 0.60302734375, 0.1826171875, -0.70361328125
210, 1285787542, -6.280307292938232, 1.8119703531265259, 7.153176784515381, -0.009335829876363277, -0.7248522639274597, -1.2799690961837769, 0.60302734375, 0.18310546875, -0.70556640625
211, 1285804209, -6.276939868927002, 1.8004093170166016, 7.123260021209717, -0.006172660738229752, -0.6912226676940918, -1.1943329572677612, 0.6025390625, 0.186767578125, -0.705078125
212, 1285820876, -6.277106285095215, 1.8034065961837769, 7.128672122955322, -0.022167792543768883, -0.5759527683258057, -1.2207014560699463, 0.60107421875, 0.18359375, -0.70703125
213, 1285837543, -6.283529281616211, 1.8006638288497925, 7.129964351654053, -0.0673229843378067, -0.6480140686035156, -1.254151463508606, 0.603271484375, 0.18212890625, -0.70556640625
214, 1285854210, -6.269575119018555, 1.827296495437622, 7.123021602630615, -0.0657862201333046, -0.7170019149780273, -1.2781121730804443, 0.603515625, 0.184326171875, -0.70654296875
215, 1285870877, -6.283576488494873, 1.8256266117095947, 7.118554592132568, 0.17614495754241943, -0.6072771549224854, -1.204719066619873, 0.6044921875, 0.185302734375, -0.70654296875
216, 1285887544, -6.2681403160095215, 1.808105230331421, 7.115097522735596, 0.19261392951011658, -0.5954440236091614, -1.3089115619659424, 0.6025390625, 0.18310546875, -0.7041015625
217, 1285904211, -6.287775993347168, 1.8188400268554688, 7.127917289733887, 0.06293681263923645, -0.5944707989692688, -1.2589154243469238, 0.6015625, 0.18212890625, -0.70703125
218, 1285920878, -6.292535305023193, 1.818281650543213, 7.127449989318848, -0.06901341676712036, -0.7826216816902161, -1.2612589597702026, 0.60302734375, 0.181640625, -0.70703125
219, 1285937545, -6.284079551696777, 1.8268094062805176, 7.110464572906494, -0.14026793837547302, -0.8018695712089539, -1.1978291273117065, 0.60302734375, 0.18212890625, -0.70556640625
220, 1285954212, -6.2706499099731445, 1.8255281448364258, 7.112184524536133, 0.10487760603427887, -0.7081783413887024, -1.324906587600708, 0.6005859375, 0.18359375, -0.705078125
221, 1285970879, -6.265246868133545, 1.8135485649108887, 7.122664928436279, 0.3085881769657135, -0.5774639248847961, -1.2951445579528809, 0.6025390625, 0.1826171875, -0.705078125
222, 1285987546, -6.268495082855225, 1.8097915649414062, 7.114417552947998, 0.1990426927804947, -0.6115672588348389, -1.2414475679397583, 0.60400390625, 0.185302734375, -0.705078125
223, 1286004213, -6.271734714508057, 1.8341120481491089, 7.116793155670166, 0.34682798385620117, -0.6211336255073547, -1.1810016632080078, 0.60205078125, 0.18359375, -0.70458984375
224, 1286020880, -6.282892227172852, 1.813130497932434, 7.113430023193359, 0.3809184730052948, -0.5067600607872009, -1.0436407327651978, 0.60302734375, 0.1826171875, -0.70556640625
225, 1286037547, -6.293628692626953, 1.8118075132369995, 7.111670017242432, 0.5884581804275513, -0.23862069845199585, -0.9265010952949524, 0.604248046875, 0.183349609375, -0.705078125
226, 1286054214, -6.283223628997803, 1.8290482759475708, 7.110620975494385, 0.6028268933296204, -0.3157789707183838, -0.922441303730011, 0.603271484375, 0.18212890625, -0.705078125
227, 1286070881, -6.275412559509277, 1.8328254222869873, 7.106253147125244, 0.5719123482704163, -0.2916261553764343, -0.9699016809463501, 0.603759765625, 0.18212890625, -0.7041015625
228, 1286087548, -6.285542011260986, 1.819595217704773, 7.127331733703613, 0.6339591145515442, -0.34408101439476013, -1.017464518547058, 0.603271484375, 0.1826171875, -0.703125
229, 1286104215, -6.274000644683838, 1.8809475898742676, 7.09358549118042, 0.5229921340942383, -0.4679696559906006, -1.0745424032211304, 0.6005859375, 0.18115234375, -0.70556640625
230, 1286120882, -6.278640270233154, 1.8235998153686523, 7.120248794555664, 0.23915216326713562, -0.6831674575805664, -1.142710566520691, 0.603759765625, 0.18017578125, -0.7080078125
231, 1286137549, -6.284773349761963, 1.8364883661270142, 7.115736484527588, -0.020835932344198227, -0.8597415089607239, -1.1625348329544067, 0.602783203125, 0.178466796875, -0.7060546875
232, 1286154216, -6.276854515075684, 1.8358169794082642, 7.130049228668213, -0.06139363721013069, -0.8236532211303711, -1.2483245134353638, 0.603759765625, 0.18310546875, -0.705078125
233, 1286170883, -6.271389007568359, 1.8276195526123047, 7.1036882400512695, -0.11197872459888458, -0.8665417432785034, -1.23668372631073, 0.602294921875, 0.18115234375, -0.703125
234, 1286187550, -6.262369632720947, 1.8358722925186157, 7.101066589355469, -0.28716957569122314, -0.9891241192817688, -1.2672779560089111, 0.602294921875, 0.181640625, -0.70361328125
235, 1286204217, -6.267199993133545, 1.830544114112854, 7.114530086517334, -0.3787606358528137, -0.9294977188110352, -1.2834267616271973, 0.60107421875, 0.18017578125, -0.7041015625
236, 1286220884, -6.286958694458008, 1.8488892316818237, 7.114631175994873, -0.2877458930015564, -0.9537273645401001, -1.3118313550949097, 0.603271484375, 0.181640625, -0.705078125
237, 1286237551, -6.293650150299072, 1.8372459411621094, 7.111430644989014, -0.31725171208381653, -0.8074531555175781, -1.3861593008041382, 0.603759765625, 0.18212890625, -0.70556640625
238, 1286254218, -6.287365436553955, 1.8657984733581543, 7.101842403411865, -0.40601253509521484, -0.9462612271308899, -1.4926058053970337, 0.602294921875, 0.1806640625, -0.70458984375
239, 1286270885, -6.280818939208984, 1.816412091255188, 7.118420124053955, -0.5733402371406555, -0.8357423543930054, -1.5136208534240723, 0.603271484375, 0.18115234375, -0.70361328125
240, 1286287552, -6.277704238891602, 1.8302935361862183, 7.130661964416504, -0.655774712562561, -0.9603352546691895, -1.620412826538086, 0.60302734375, 0.183837890625, -0.70654296875
241, 1286304219, -6.28183650970459, 1.847848653793335, 7.117498874664307, -0.8720612525939941, -1.0432565212249756, -1.6609323024749756, 0.6005859375, 0.18212890625, -0.70703125
242, 1286320886, -6.28256368637085, 1.8300714492797852, 7.090515613555908, -0.9372072219848633, -1.1055209636688232, -1.6422735452651978, 0.604736328125, 0.18212890625, -0.70556640625
243, 1286337553, -6.287269115447998, 1.8244425058364868, 7.116615295410156, -1.0747601985931396, -1.2360560894012451, -1.581584095954895, 0.604736328125, 0.181640625, -0.70458984375
244, 1286354220, -6.265832901000977, 1.8266732692718506, 7.098623275756836, -1.3260719776153564, -1.4277158975601196, -1.6193115711212158, 0.60205078125, 0.18310546875, -0.7060546875
245, 1286370887, -6.275489330291748, 1.843309760093689, 7.125120639801025, -1.5153753757476807, -1.616660714149475, -1.6306709051132202, 0.603271484375, 0.181640625, -0.703125
246, 1286387554, -6.2734479904174805, 1.8018954992294312, 7.126821041107178, -1.4735243320465088, -1.397800326347351, -1.6932429075241089, 0.60205078125, 0.18212890625, -0.7060546875
247, 1286404221, -6.2800397872924805, 1.8166987895965576, 7.112514972686768, -1.016772985458374, -1.169796109199524, -1.6133184432983398, 0.60205078125, 0.18212890625, -0.709228515625
248, 1286420888, -6.275391578674316, 1.8002086877822876, 7.132580280303955, -0.7115079164505005, -1.0549999475479126, -1.4709372520446777, 0.60302734375, 0.185302734375, -0.70751953125
249, 1286437555, -6.25544548034668, 1.838811993598938, 7.121007919311523, -0.6162543296813965, -0.865875780582428, -1.4140644073486328, 0.6025390625, 0.184326171875, -0.70556640625
250, 1286454222, -6.263572692871094, 1.8006665706634521, 7.131797790527344, -0.3702828288078308, -0.7330611348152161, -1.3280441761016846, 0.6015625, 0.18310546875, -0.70458984375
251, 1286470889, -6.285179138183594, 1.8010969161987305, 7.115729808807373, -0.14159980416297913, -0.4987688660621643, -1.2158348560333252, 0.60205078125, 0.184814453125, -0.7060546875
252, 1286487556, -6.285912990570068, 1.8284862041473389, 7.116880893707275, 0.1126638650894165, -0.4279114007949829, -1.0784610509872437, 0.60302734375, 0.183837890625, -0.70654296875
253, 1286504223, -6.290228843688965, 1.8269603252410889, 7.109419345855713, 0.11819619685411453, -0.5011764764785767, -1.1878657341003418, 0.60205078125, 0.18359375, -0.70703125
254, 1286520890, -6.282198905944824, 1.8093359470367432, 7.122456073760986, -0.19413143396377563, -0.7671003341674805, -1.3351515531539917, 0.603515625, 0.18359375, -0.708251953125
255, 1286537557, -6.273035526275635, 1.7998284101486206, 7.136620998382568, -0.1881764829158783, -0.8255100846290588, -1.3251241445541382, 0.6044921875, 0.183349609375, -0.70654296875
256, 1286554224, -6.283927917480469, 1.7944368124008179, 7.113720417022705, -0.18844543397426605, -0.7421150803565979, -1.3602904081344604, 0.60302734375, 0.18212890625, -0.7060546875
257, 1286570891, -6.28396463394165, 1.8180124759674072, 7.151793003082275, -0.10055546462535858, -0.7371975779533386, -1.2445082664489746, 0.603759765625, 0.18212890625, -0.70458984375
258, 1286587558, -6.275032043457031, 1.8169435262680054, 7.121593952178955, -0.3345530927181244, -0.8627638220787048, -1.3534775972366333, 0.603515625, 0.184814453125, -0.7041015625
259, 1286604225, -6.277409553527832, 1.8123712539672852, 7.101690769195557, -0.47945693135261536, -1.0167601108551025, -1.4669289588928223, 0.6025390625, 0.18359375, -0.70556640625
260, 1286620892, -6.271233081817627, 1.7993686199188232, 7.126215934753418, -0.39642056822776794, -0.8827930092811584, -1.452240228652954, 0.603515625, 0.183837890625, -0.70703125
261, 1286637559, -6.277616024017334, 1.8125368356704712, 7.112080097198486, -0.2978372871875763, -0.7034784555435181, -1.3789877891540527, 0.603515625, 0.1826171875, -0.70556640625
262, 1286654226, -6.286494731903076, 1.810916781425476, 7.139908790588379, -0.02215498499572277, -0.5137779116630554, -1.3386478424072266, 0.60205078125, 0.184326171875, -0.70654296875
263, 1286670893, -6.283565998077393, 1.7930247783660889, 7.1515302658081055, 0.3325616717338562, -0.4479532539844513, -1.036507487297058, 0.604248046875, 0.18310546875, -0.7060546875
264, 1286687560, -6.293796539306641, 1.820163607597351, 7.121269226074219, 0.48336929082870483, -0.5148921012878418, -1.0355855226516724, 0.603759765625, 0.1826171875, -0.70458984375
265, 1286704227, -6.279382228851318, 1.8403873443603516, 7.103236675262451, 0.4898364543914795, -0.7291038632392883, -0.9592724442481995, 0.603759765625, 0.18212890625, -0.70703125
266, 1286720894, -6.280157566070557, 1.8229151964187622, 7.152207374572754, 1.4999501705169678, -0.13487647473812103, -1.0512092113494873, 0.60205078125, 0.18359375, -0.70703125
267, 1286737561, -6.3218674659729, 1.7496212720870972, 7.149039268493652, 4.720849514007568, 1.6949907541275024, -0.5248426795005798, 0.6025390625, 0.18212890625, -0.705078125
268, 1286754228, -6.29027795791626, 1.6799821853637695, 7.138463973999023, 5.202535152435303, 1.6557393074035645, 0.7611773610115051, 0.604736328125, 0.1787109375, -0.703369140625
269, 1286770895, -6.307830333709717, 1.821549415588379, 7.095526695251465, 4.80079984664917, 1.204917550086975, 1.4306806325912476, 0.602294921875, 0.1787109375, -0.70458984375
270, 1286787562, -6.289315700531006, 1.8870068788528442, 7.101004123687744, 3.7616801261901855, 0.32786181569099426, 1.4749650955200195, 0.604736328125, 0.17919921875, -0.702880859375
271, 1286804229, -6.245493412017822, 2.0412065982818604, 7.015472888946533, 2.2359821796417236, -0.6193918585777283, 0.606860876083374, 0.604248046875, 0.177978515625, -0.702392578125
272, 1286820896, -6.246885776519775, 1.9792391061782837, 7.087894916534424, 0.1678464114665985, -1.4735112190246582, -0.8369077444076538, 0.605224609375, 0.177490234375, -0.702880859375
273, 1286837563, -6.259378910064697, 1.9389333724975586, 7.097423553466797, -1.2674572467803955, -1.6270980834960938, -1.9180200099945068, 0.604248046875, 0.177490234375, -0.70556640625
274, 1286854230, -6.293900012969971, 1.8898295164108276, 7.080600738525391, -1.4449788331985474, -1.4351179599761963, -2.133819341659546, 0.603759765625, 0.177001953125, -0.702880859375
275, 1286870897, -6.291248798370361, 1.8848471641540527, 7.121812343597412, -1.0284650325775146, -1.2861286401748657, -1.9942301511764526, 0.604248046875, 0.176513671875, -0.70361328125
276, 1286887564, -6.289027690887451, 1.8537098169326782, 7.087889194488525, -1.0697143077850342, -1.2702232599258423, -1.99928879737854, 0.602783203125, 0.178466796875, -0.705078125
277, 1286904231, -6.290944576263428, 1.8269188404083252, 7.118056297302246, -1.1882243156433105, -1.3930491209030151, -2.007587194442749, 0.603271484375, 0.1787109375, -0.701904296875
278, 1286920898, -6.294859886169434, 1.847840428352356, 7.1239542961120605, -0.5107428431510925, -0.8405575752258301, -1.5668951272964478, 0.605224609375, 0.18017578125, -0.70458984375
279, 1286937565, -6.289702892303467, 1.9140535593032837, 7.071117877960205, -0.3854583501815796, -0.766370415687561, -1.583633303642273, 0.605712890625, 0.177001953125, -0.70556640625
280, 1286954232, -6.297745704650879, 1.9093799591064453, 7.12352991104126, -0.5732762217521667, -1.0084872245788574, -1.8045427799224854, 0.605224609375, 0.17822265625, -0.70556640625
281, 1286970899, -6.307901859283447, 1.8381328582763672, 7.141476154327393, -0.6076485514640808, -0.9244264364242554, -1.8786019086837769, 0.603271484375, 0.178466796875, -0.70361328125
282, 1286987566, -6.289778709411621, 1.8189406394958496, 7.163264751434326, 0.3570346534252167, -0.08133313059806824, -1.3606489896774292, 0.603271484375, 0.17919921875, -0.70556640625
283, 1287004233, -6.27018404006958, 1.8992558717727661, 7.097131729125977, 0.5424065589904785, -0.516211211681366, -1.284669041633606, 0.601806640625, 0.17919921875, -0.70458984375
284, 1287020900, -6.299019813537598, 1.8784366846084595, 7.1176300048828125, 1.08119535446167, -0.3748290538787842, -1.3307974338531494, 0.604248046875, 0.177490234375, -0.70458984375
285, 1287037567, -6.279144763946533, 1.8983898162841797, 7.019564151763916, 0.7244872450828552, -0.7073586583137512, -1.3312201499938965, 0.603271484375, 0.178466796875, -0.7041015625
286, 1287054234, -6.238876819610596, 1.90000319480896, 7.086680889129639, -0.22219015657901764, -0.8900413513183594, -1.882981538772583, 0.602294921875, 0.177978515625, -0.70361328125
287, 1287070901, -6.261911392211914, 1.9068886041641235, 7.0573906898498535, -0.8533254861831665, -0.4627702832221985, -2.2497940063476562, 0.604248046875, 0.177490234375, -0.702392578125
288, 1287087568, -6.272930145263672, 1.9523037672042847, 7.0377631187438965, -1.5178470611572266, -0.45905643701553345, -2.6153128147125244, 0.602783203125, 0.177001953125, -0.702880859375
289, 1287104235, -6.249164581298828, 1.8934776782989502, 7.065519332885742, -1.8064638376235962, -0.34596356749534607, -3.1126348972320557, 0.603759765625, 0.177978515625, -0.70361328125
290, 1287120902, -6.2124176025390625, 1.885530948638916, 7.150619029998779, -1.0155564546585083, 1.9824680089950562, -3.186310052871704, 0.603759765625, 0.17919921875, -0.7041015625
291, 1287137569, -6.113767147064209, 1.6617753505706787, 7.289889335632324, 2.1421892642974854, 9.281116485595703, -2.6470603942871094, 0.606689453125, 0.18017578125, -0.702392578125
292, 1287154236, -6.020530700683594, 1.1943758726119995, 7.688146114349365, 7.705219268798828, 23.211345672607422, -1.4151813983917236, 0.6064453125, 0.1796875, -0.697998046875
293, 1287170903, -6.2265305519104, -0.28311270475387573, 8.63132381439209, 17.764711380004883, 42.25518035888672, 6.968467712402344, 0.612548828125, 0.17578125, -0.689208984375
294, 1287187570, -6.374795913696289, -1.455277919769287, 9.526945114135742, 34.45574188232422, 61.091556549072266, 29.226957321166992, 0.619140625, 0.169189453125, -0.670654296875
295, 1287204237, 1.985897421836853, 1.4125304222106934, 16.317333221435547, 1.3062981367111206, 86.19369506835938, 70.35472869873047, 0.629638671875, 0.14990234375, -0.654541015625
296, 1287220904, 6.650304794311523, -14.150728225708008, 30.742725372314453, -139.58766174316406, 107.2105712890625, 90.1186752319336, 0.638916015625, 0.141845703125, -0.6298828125
297, 1287237571, 4.423215389251709, -21.480600357055664, 36.120697021484375, -88.7498550415039, 5.287684917449951, 33.10077667236328, 0.6416015625, 0.13720703125, -0.62060546875
298, 1287254238, 0.7768669128417969, -22.6505184173584, 38.367183685302734, 14.810811042785645, -136.42169189453125, -76.17823791503906, 0.630859375, 0.146728515625, -0.645751953125
299, 1287270905, -1.2022455930709839, -16.68132781982422, 33.98405456542969, 52.32810974121094, -237.45797729492188, -141.61387634277344, 0.606689453125, 0.164306640625, -0.69921875
300, 1287287572, -5.513903617858887, -11.570087432861328, 29.221086502075195, 18.318065643310547, -261.58203125, -160.7283935546875, 0.573486328125, 0.18994140625, -0.758544921875
301, 1287304239, -9.789726257324219, -8.543423652648926, 25.061172485351562, -14.638073921203613, -245.34075927734375, -159.33731079101562, 0.538330078125, 0.22119140625, -0.817138671875
302, 1287320906, -15.311450958251953, -5.457930088043213, 24.92844009399414, -14.641188621520996, -222.4979705810547, -156.97886657714844, 0.5009765625, 0.249755859375, -0.8662109375
303, 1287337573, -22.019269943237305, -1.8753875494003296, 24.993812561035156, -6.034397602081299, -254.49159240722656, -144.94692993164062, 0.4580078125, 0.276123046875, -0.91845703125
304, 1287354240, -20.787782669067383, 1.4224610328674316, 19.624542236328125, -22.8878173828125, -303.9892578125, -133.12440490722656, 0.400146484375, 0.29931640625, -0.977294921875
305, 1287370907, -17.92484474182129, 4.139758110046387, 13.66404914855957, -57.5813102722168, -306.5592956542969, -130.49810791015625, 0.327880859375, 0.3291015625, -1.029052734375
306, 1287387574, -17.3704891204834, 6.601324558258057, 10.158056259155273, -81.44947052001953, -287.08038330078125, -133.7845458984375, 0.25244140625, 0.365966796875, -1.07080078125
307, 1287404241, -17.449018478393555, 10.542781829833984, 5.978089332580566, -86.89234161376953, -264.4815979003906, -142.4811553955078, 0.179443359375, 0.40380859375, -1.103271484375
308, 1287420908, -20.438129425048828, 14.145207405090332, 0.7712211608886719, -76.31319427490234, -237.75804138183594, -146.74884033203125, 0.10498046875, 0.439453125, -1.12353515625
309, 1287437575, -24.604557037353516, 13.540730476379395, -6.27665901184082, -8.608020782470703, -224.37307739257812, -135.90769958496094, 0.03564453125, 0.4580078125, -1.139892578125
310, 1287454242, -23.71219253540039, 13.584620475769043, -15.094352722167969, 100.35135650634766, -198.2472686767578, -106.773681640625, -0.028564453125, 0.44482421875, -1.158203125
311, 1287470909, -23.017024993896484, 14.224767684936523, -20.906370162963867, 129.98309326171875, -134.45082092285156, -69.2672119140625, -0.0751953125, 0.412841796875, -1.172119140625
312, 1287487576, -23.60150718688965, 11.887520790100098, -23.9351749420166, 81.40900421142578, -60.13525390625, -20.172922134399414, -0.1015625, 0.385009765625, -1.17919921875
313, 1287504243, -23.53151512145996, 7.8150482177734375, -24.438167572021484, 14.104883193969727, 14.26740837097168, 11.925673484802246, -0.100830078125, 0.377685546875, -1.18017578125
314, 1287520910, -22.354061126708984, 5.170518398284912, -21.528461456298828, -19.29398536682129, 85.76915740966797, 20.49894905090332, -0.085693359375, 0.380126953125, -1.177978515625
315, 1287537577, -22.061349868774414, 6.260729789733887, -15.900948524475098, -31.188695907592773, 144.07696533203125, 30.879009246826172, -0.044921875, 0.3876953125, -1.171630859375
316, 1287554244, -21.584774017333984, 7.513518810272217, -11.308680534362793, -50.7215461730957, 190.41506958007812, 51.34449768066406, 0.00927734375, 0.399169921875, -1.1591796875
317, 1287570911, -21.921836853027344, 6.665637493133545, -5.947455406188965, -53.097129821777344, 233.45352172851562, 64.43757629394531, 0.070556640625, 0.4072265625, -1.139404296875
318, 1287587578, -22.326231002807617, 6.665424346923828, 0.42621785402297974, -24.64571762084961, 257.378173828125, 75.2560043334961, 0.1416015625, 0.410400390625, -1.116943359375
319, 1287604245, -21.013851165771484, 6.491305828094482, 5.637167930603027, 4.605120658874512, 270.58489990234375, 85.943603515625, 0.215087890625, 0.399169921875, -1.08056640625
320, 1287620912, -20.317768096923828, 5.358688831329346, 10.512041091918945, 20.815900802612305, 286.1396789550781, 93.23755645751953, 0.289794921875, 0.3828125, -1.04345703125
321, 1287637579, -19.918588638305664, 2.5934181213378906, 15.016542434692383, 29.430421829223633, 293.85955810546875, 100.95333099365234, 0.357666015625, 0.36376953125, -0.9921875
322, 1287654246, -18.927947998046875, 1.7961750030517578, 19.04070281982422, 33.79840087890625, 299.8553771972656, 94.48518371582031, 0.423095703125, 0.338623046875, -0.9384765625
323, 1287670913, -12.576472282409668, 0.2917223572731018, 26.154193878173828, 43.16128158569336, 315.6341247558594, 85.24542999267578, 0.485595703125, 0.3154296875, -0.87646484375
324, 1287687580, -5.288976192474365, 2.759165048599243, 33.18733596801758, 35.47249221801758, 301.44110107421875, 120.6529541015625, 0.53662109375, 0.28662109375, -0.804931640625
325, 1287704247, 0.3116527795791626, 1.8795527219772339, 33.7396354675293, -34.39555740356445, 215.8563995361328, 146.85154724121094, 0.57568359375, 0.26220703125, -0.7509765625
326, 1287720914, 2.4944498538970947, -5.9530816078186035, 30.547449111938477, -12.252973556518555, 139.108642578125, 166.23324584960938, 0.597412109375, 0.234375, -0.7158203125
327, 1287737581, 1.9955778121948242, -7.106134414672852, 25.535573959350586, 62.86632537841797, 84.26200866699219, 165.45132446289062, 0.611083984375, 0.193603515625, -0.6923828125
328, 1287754248, 1.8817366361618042, -8.902433395385742, 22.579856872558594, 101.36074829101562, 60.261173248291016, 140.08248901367188, 0.61572265625, 0.149658203125, -0.676513671875
329, 1287770915, -0.20676124095916748, -10.086824417114258, 22.45850944519043, 93.2330322265625, 33.41551208496094, 82.8575668334961, 0.6171875, 0.118408203125, -0.6650390625
330, 1287787582, -1.06133234500885, -11.690570831298828, 19.08883285522461, 88.75323486328125, 4.687672138214111, 8.752765655517578, 0.617919921875, 0.10302734375, -0.657958984375
331, 1287804249, -0.49522361159324646, -9.25724983215332, 14.616748809814453, 102.1915054321289, 6.098820686340332, -48.75823974609375, 0.62060546875, 0.10009765625, -0.65478515625
332, 1287820916, -2.0808963775634766, 2.8515939712524414, 14.537972450256348, 57.553550720214844, 33.093658447265625, -93.9257583618164, 0.627197265625, 0.10791015625, -0.64599609375
333, 1287837583, -6.026545524597168, -0.19970178604125977, 23.50946617126465, -225.5724334716797, -42.31551742553711, -163.87171936035156, 0.630859375, 0.169189453125, -0.651611328125
334, 1287854250, -9.396180152893066, -11.703763008117676, 15.202813148498535, -77.6611328125, -97.77284240722656, -65.03013610839844, 0.6201171875, 0.2060546875, -0.677490234375
335, 1287870917, -9.269951820373535, 3.697385549545288, 4.241250514984131, -35.025535583496094, -72.74588012695312, -14.75381851196289, 0.609130859375, 0.21875, -0.692626953125
336, 1287887584, -4.745860576629639, -0.49122536182403564, 9.547876358032227, -11.139678955078125, -42.335079193115234, 2.451568126678467, 0.599853515625, 0.219482421875, -0.704833984375
337, 1287904251, -6.360452651977539, 0.7473250031471252, 7.642636299133301, 4.306899070739746, -4.906639575958252, 8.857125282287598, 0.59619140625, 0.218994140625, -0.7080078125
338, 1287920918, -6.5720391273498535, 1.8145519495010376, 7.15949010848999, 12.301828384399414, 8.644342422485352, 12.823572158813477, 0.60009765625, 0.2109375, -0.705322265625
339, 1287937585, -6.544137477874756, 2.6514923572540283, 6.819794178009033, 8.588896751403809, 7.066040992736816, 7.96755838394165, 0.60107421875, 0.21142578125, -0.704833984375
340, 1287954252, -6.427095890045166, 2.420294761657715, 6.850962162017822, 3.2459168434143066, 2.7098941802978516, 2.899453639984131, 0.6015625, 0.208251953125, -0.70263671875
341, 1287970919, -6.360888481140137, 2.3246376514434814, 6.889658451080322, -1.0991432666778564, -0.2749139070510864, -1.1847538948059082, 0.601806640625, 0.206787109375, -0.70263671875
342, 1287987586, -6.4264020919799805, 1.956722378730774, 6.965657711029053, -3.3910319805145264, -2.142425537109375, -3.0409703254699707, 0.60107421875, 0.207763671875, -0.704833984375
343, 1288004253, -6.438182830810547, 1.7921191453933716, 6.975645542144775, -3.9052329063415527, -3.845362901687622, -3.026998996734619, 0.60205078125, 0.208740234375, -0.705322265625
344, 1288020920, -6.429954528808594, 1.6896461248397827, 7.016648769378662, -3.010516881942749, -4.134248733520508, -2.036952495574951, 0.60009765625, 0.207275390625, -0.707763671875
345, 1288037587, -6.414024353027344, 1.7633922100067139, 7.034420490264893, -1.8751184940338135, -3.5836005210876465, -1.304569959640503, 0.599609375, 0.208740234375, -0.703857421875
346, 1288054254, -6.3822784423828125, 1.8857825994491577, 7.036496639251709, -1.686020016670227, -2.639965295791626, -1.7424577474594116, 0.60205078125, 0.2109375, -0.706787109375
347, 1288070921, -6.411178112030029, 1.8829344511032104, 6.976725101470947, -2.4902331829071045, -2.2755606174468994, -2.9584975242614746, 0.60009765625, 0.208740234375, -0.706787109375
348, 1288087588, -6.419127464294434, 1.832836389541626, 7.0276384353637695, -2.955193519592285, -2.582592725753784, -3.254938840866089, 0.5986328125, 0.211181640625, -0.706298828125
349, 1288104255, -6.431362628936768, 1.7510349750518799, 7.011388301849365, -2.940338134765625, -3.039907693862915, -3.082245349884033, 0.598388671875, 0.211181640625, -0.7080078125
350, 1288120922, -6.412791728973389, 1.6533371210098267, 7.058863162994385, -2.1630053520202637, -3.2541961669921875, -2.0976803302764893, 0.599365234375, 0.21142578125, -0.7099609375
351, 1288137589, -6.402341365814209, 1.7538617849349976, 7.067211151123047, -1.1048805713653564, -2.817870616912842, -1.2956440448760986, 0.598876953125, 0.21142578125, -0.70947265625
352, 1288154256, -6.38319206237793, 1.8038924932479858, 7.049925804138184, -0.9749473929405212, -2.8672776222229004, -1.2023625373840332, 0.600341796875, 0.21337890625, -0.70947265625
353, 1288170923, -6.350501537322998, 1.8558244705200195, 7.077102184295654, -1.3027899265289307, -2.9057352542877197, -1.6289676427841187, 0.598388671875, 0.21435546875, -0.70947265625
354, 1288187590, -6.367008209228516, 1.765416145324707, 7.077860355377197, -1.2326750755310059, -2.6617612838745117, -1.7905964851379395, 0.5927734375, 0.2138671875, -0.7109375
355, 1288204257, -6.3559980392456055, 1.783165693283081, 7.07170295715332, -1.0704188346862793, -2.4003071784973145, -1.7703627347946167, 0.597412109375, 0.2138671875, -0.712646484375
356, 1288220924, -6.35934591293335, 1.7840275764465332, 7.071566104888916, -1.08211088180542, -2.0473127365112305, -1.958884835243225, 0.597900390625, 0.21484375, -0.71142578125
357, 1288237591, -6.3617658615112305, 1.7785383462905884, 7.084901809692383, -1.10844087600708, -1.9887750148773193, -2.042907476425171, 0.596923828125, 0.212890625, -0.713134765625
358, 1288254258, -6.341226100921631, 1.7504652738571167, 7.069657325744629, -0.8550158739089966, -1.906058669090271, -1.9139729738235474, 0.596923828125, 0.2158203125, -0.7119140625
359, 1288270925, -6.351860523223877, 1.774889588356018, 7.059811115264893, -0.4814547598361969, -1.434759497642517, -1.7904303073883057, 0.59423828125, 0.21484375, -0.713134765625
360, 1288287592, -6.353785037994385, 1.7519816160202026, 7.094520092010498, -0.3296738266944885, -0.8617264628410339, -1.6389565467834473, 0.5947265625, 0.21533203125, -0.71142578125
361, 1288304259, -6.3500447273254395, 1.7159193754196167, 7.081857681274414, -0.0840480700135231, -0.8167505264282227, -1.3939839601516724, 0.59521484375, 0.21630859375, -0.7099609375
362, 1288320926, -6.339601993560791, 1.7505292892456055, 7.0832037925720215, 0.12714783847332, -0.7104834318161011, -1.2211239337921143, 0.595703125, 0.21630859375, -0.712158203125
363, 1288337593, -6.352316856384277, 1.7618831396102905, 7.066291809082031, 0.31295517086982727, -0.30471429228782654, -1.1087226867675781, 0.596435546875, 0.21484375, -0.714111328125
364, 1288354260, -6.346359729766846, 1.7372344732284546, 7.07129430770874, 0.5066511631011963, -0.385368674993515, -0.959758996963501, 0.59521484375, 0.21533203125, -0.7119140625
365, 1288370927, -6.360270977020264, 1.7385621070861816, 7.083747863769531, 0.6379035115242004, -0.22222860157489777, -0.5802044868469238, 0.595458984375, 0.21435546875, -0.71142578125
366, 1288387594, -6.35220193862915, 1.805348515510559, 7.0656890869140625, 0.5967695116996765, -0.3540315330028534, -0.5295297503471375, 0.596435546875, 0.21630859375, -0.7109375
367, 1288404261, -6.352591037750244, 1.8055692911148071, 7.025759220123291, 0.5308423638343811, -0.6221836805343628, -0.6410089731216431, 0.597900390625, 0.21484375, -0.71240234375
368, 1288420928, -6.337255001068115, 1.7873377799987793, 7.055325508117676, 0.5337365865707397, -0.5245480537414551, -0.7733754515647888, 0.596435546875, 0.21484375, -0.7099609375
369, 1288437595, -6.344253063201904, 1.797865390777588, 7.068190097808838, 0.726843535900116, -0.06917989999055862, -0.7037088871002197, 0.596923828125, 0.212890625, -0.71142578125
370, 1288454262, -6.3671040534973145, 1.7888588905334473, 7.057569980621338, 0.5212632417678833, -0.31982576847076416, -0.8461154699325562, 0.596435546875, 0.21240234375, -0.71142578125
371, 1288470929, -6.374089241027832, 1.7908146381378174, 7.045105934143066, 0.23773068189620972, -0.8089003562927246, -0.9174853563308716, 0.597412109375, 0.2138671875, -0.713134765625
372, 1288487596, -6.365048885345459, 1.7716357707977295, 7.0356035232543945, 0.15756291151046753, -1.1303268671035767, -0.8931788206100464, 0.595947265625, 0.21337890625, -0.71044921875
373, 1288504263, -6.345734596252441, 1.8176203966140747, 7.065338611602783, 0.15744765102863312, -1.414576530456543, -0.8109877705574036, 0.595947265625, 0.2119140625, -0.7099609375
374, 1288520930, -6.34414529800415, 1.805648684501648, 7.05971622467041, 0.20168079435825348, -1.196228265762329, -0.7789334058761597, 0.595947265625, 0.2119140625, -0.71044921875
375, 1288537597, -6.348345756530762, 1.7707585096359253, 7.048360347747803, 0.21430787444114685, -1.4295729398727417, -0.7032607793807983, 0.598876953125, 0.212890625, -0.7109375
376, 1288554264, -6.349575519561768, 1.8077638149261475, 7.0788187980651855, 0.6252763867378235, -1.2417421340942383, -0.416244775056839, 0.595947265625, 0.211669921875, -0.71240234375
377, 1288570931, -6.359327793121338, 1.805067539215088, 7.058534145355225, 0.8548175096511841, -0.8908097743988037, -0.2354319542646408, 0.596435546875, 0.2119140625, -0.713134765625
378, 1288587598, -6.338538646697998, 1.8143491744995117, 7.068970680236816, 0.8328545689582825, -0.9502695798873901, -0.3899661898612976, 0.594970703125, 0.21337890625, -0.7109375
379, 1288604265, -6.358254432678223, 1.8170031309127808, 7.067538738250732, 0.5980373620986938, -1.357114553451538, -0.45315268635749817, 0.594482421875, 0.208740234375, -0.7119140625
380, 1288620932, -6.345491886138916, 1.8160618543624878, 7.070200443267822, 0.34924834966659546, -1.6777726411819458, -0.6697463989257812, 0.595947265625, 0.210205078125, -0.7119140625
381, 1288637599, -6.34310245513916, 1.8004469871520996, 7.083583831787109, 0.5303174257278442, -1.4545836448669434, -0.5860698223114014, 0.595947265625, 0.209716796875, -0.71142578125
382, 1288654266, -6.336453914642334, 1.8141953945159912, 7.0939788818359375, 0.7684898376464844, -1.1325552463531494, -0.5805887579917908, 0.596923828125, 0.210693359375, -0.7109375
383, 1288670933, -6.332329750061035, 1.8089572191238403, 7.078423023223877, 0.7626758217811584, -1.0390559434890747, -0.5348571538925171, 0.594482421875, 0.209228515625, -0.71142578125
384, 1288687600, -6.337213516235352, 1.8627638816833496, 7.06568717956543, 0.4352942109107971, -1.3143285512924194, -0.6571322679519653, 0.59228515625, 0.210205078125, -0.71142578125
385, 1288704267, -6.337180137634277, 1.8772907257080078, 7.05197286605835, -0.05623267963528633, -1.4603335857391357, -1.1129359006881714, 0.594970703125, 0.208740234375, -0.71240234375
386, 1288720934, -6.332154273986816, 1.8492058515548706, 7.068314075469971, -0.37909358739852905, -1.5985527038574219, -1.3885669708251953, 0.594970703125, 0.208740234375, -0.713623046875
387, 1288737601, -6.325106143951416, 1.8762379884719849, 7.081351280212402, -0.6016679406166077, -1.6075937747955322, -1.5676125288009644, 0.595458984375, 0.210693359375, -0.712890625
388, 1288754268, -6.33391809463501, 1.8252973556518555, 7.102009296417236, -0.9429572224617004, -1.443275809288025, -1.9539800882339478, 0.596435546875, 0.210205078125, -0.71240234375
389, 1288770935, -6.321722030639648, 1.7617422342300415, 7.10819673538208, -0.7330739498138428, -1.2651137113571167, -1.6683216094970703, 0.593994140625, 0.209716796875, -0.7119140625
390, 1288787602, -6.32017183303833, 1.7645652294158936, 7.108372688293457, -0.13787317276000977, -0.9593877196311951, -1.1771981716156006, 0.596923828125, 0.211669921875, -0.7119140625
391, 1288804269, -6.320043563842773, 1.8399103879928589, 7.07384729385376, 0.21730457246303558, -0.42326268553733826, -0.9196624755859375, 0.595947265625, 0.208740234375, -0.71337890625
392, 1288820936, -6.322566032409668, 1.818780541419983, 7.108014106750488, 0.37638500332832336, -0.15162718296051025, -0.8594980835914612, 0.593994140625, 0.210693359375, -0.713623046875
393, 1288837603, -6.336528778076172, 1.8019943237304688, 7.064443111419678, 0.32545414566993713, -0.3307495713233948, -0.8177750110626221, 0.597412109375, 0.209228515625, -0.713623046875
394, 1288854270, -6.340064525604248, 1.8352071046829224, 7.069958686828613, 0.3086778223514557, -0.5480732917785645, -0.8858535885810852, 0.595458984375, 0.209716796875, -0.715576171875
395, 1288870937, -6.335655212402344, 1.8592700958251953, 7.046161651611328, -0.14734986424446106, -0.9197008013725281, -1.0801516771316528, 0.596923828125, 0.208740234375, -0.71240234375
396, 1288887604, -6.317528247833252, 1.864269733428955, 7.053160667419434, -0.36366191506385803, -1.1045477390289307, -1.3178503513336182, 0.595458984375, 0.208251953125, -0.714599609375
397, 1288904271, -6.336034297943115, 1.8275831937789917, 7.076480865478516, -0.6373463869094849, -1.3381098508834839, -1.451548457145691, 0.594970703125, 0.207763671875, -0.713623046875
398, 1288920938, -6.316898822784424, 1.8354021310806274, 7.069308280944824, -0.45910748839378357, -1.315263032913208, -1.4252055883407593, 0.594970703125, 0.207763671875, -0.716064453125
399, 1288937605, -6.31956672668457, 1.833499550819397, 7.077214241027832, -0.31388360261917114, -0.9711951613426208, -1.3764392137527466, 0.594970703125, 0.210693359375, -0.71240234375
400, 1288954272, -6.3140869140625, 1.826209545135498, 7.0857343673706055, -0.19525842368602753, -0.6948213577270508, -1.4150503873825073, 0.595947265625, 0.209228515625, -0.716064453125
401, 1288970939, -6.326878070831299, 1.835179328918457, 7.082233428955078, -0.012191644869744778, -0.31200110912323, -1.3619680404663086, 0.594482421875, 0.211669921875, -0.713134765625
402, 1288987606, -6.322337627410889, 1.8182408809661865, 7.089829921722412, -0.14370006322860718, -0.46928870677948, -1.340927243232727, 0.594970703125, 0.207275390625, -0.71142578125
403, 1289004273, -6.3232574462890625, 1.8580572605133057, 7.05983829498291, -0.128819078207016, -0.5605467557907104, -1.4005025625228882, 0.594482421875, 0.210693359375, -0.713134765625
404, 1289020940, -6.330430507659912, 1.8133732080459595, 7.071528434753418, -0.24821268022060394, -0.6559540629386902, -1.4771740436553955, 0.595458984375, 0.210693359375, -0.71240234375
405, 1289037607, -6.325046539306641, 1.8237569332122803, 7.081297397613525, -0.16864681243896484, -0.5730457901954651, -1.378040075302124, 0.596435546875, 0.207763671875, -0.714111328125
406, 1289054274, -6.320643901824951, 1.8224862813949585, 7.073108196258545, -0.1379115879535675, -0.44190874695777893, -1.4032045602798462, 0.595947265625, 0.209716796875, -0.712890625
407, 1289070941, -6.334656715393066, 1.826155424118042, 7.094721794128418, -0.26168495416641235, -0.5424129962921143, -1.4947316646575928, 0.594482421875, 0.208251953125, -0.713134765625
408, 1289087608, -6.329694747924805, 1.8333184719085693, 7.049182891845703, -0.3671964406967163, -0.611375093460083, -1.5886917114257812, 0.593994140625, 0.210205078125, -0.712890625
409, 1289104275, -6.327844142913818, 1.8438615798950195, 7.078943729400635, -0.4149641990661621, -0.5837006568908691, -1.6090795993804932, 0.594482421875, 0.209716796875, -0.71142578125
410, 1289120942, -6.333754062652588, 1.8246296644210815, 7.079896926879883, -0.34438833594322205, -0.5537209510803223, -1.615431308746338, 0.595947265625, 0.209228515625, -0.714111328125
411, 1289137609, -6.330638408660889, 1.8219391107559204, 7.076080322265625, -0.384024053812027, -0.5966734886169434, -1.5916372537612915, 0.595947265625, 0.209228515625, -0.714599609375
412, 1289154276, -6.335970401763916, 1.8241077661514282, 7.0767741203308105, -0.3859449028968811, -0.5544252991676331, -1.612921118736267, 0.595947265625, 0.211181640625, -0.712890625
413, 1289170943, -6.344111919403076, 1.8242491483688354, 7.066250801086426, -0.4481325149536133, -0.7122506499290466, -1.6266494989395142, 0.595458984375, 0.210205078125, -0.712890625
414, 1289187610, -6.343616008758545, 1.8158842325210571, 7.076579570770264, -0.4245049059391022, -0.5743520259857178, -1.6679375171661377, 0.595947265625, 0.210205078125, -0.71142578125
415, 1289204277, -6.337793350219727, 1.8256118297576904, 7.054561614990234, -0.4561237692832947, -0.636437177658081, -1.571736216545105, 0.59326171875, 0.210205078125, -0.713134765625
416, 1289220944, -6.350498676300049, 1.8492825031280518, 7.0649800300598145, -0.5226527452468872, -0.694385826587677, -1.7281016111373901, 0.595458984375, 0.210205078125, -0.7119140625
417, 1289237611, -6.334076404571533, 1.8066526651382446, 7.062896728515625, -0.5850324034690857, -0.8081830739974976, -1.7687102556228638, 0.594482421875, 0.208740234375, -0.71240234375
418, 1289254278, -6.33900260925293, 1.805590033531189, 7.070873737335205, -0.6686450839042664, -0.8656323552131653, -1.769402027130127, 0.59423828125, 0.210205078125, -0.715576171875
419, 1289270945, -6.340159893035889, 1.8132410049438477, 7.070570468902588, -0.6580925583839417, -0.9121577143669128, -1.6522237062454224, 0.596435546875, 0.209228515625, -0.714599609375
420, 1289287612, -6.3349809646606445, 1.8137671947479248, 7.066140651702881, -0.746891975402832, -1.028516411781311, -1.8370453119277954, 0.59375, 0.211669921875, -0.712646484375
421, 1289304279, -6.339011192321777, 1.8139548301696777, 7.073832035064697, -1.0229328870773315, -1.2860522270202637, -1.9456560611724854, 0.594482421875, 0.209228515625, -0.71240234375
422, 1289320946, -6.34172248840332, 1.8119410276412964, 7.07665491104126, -1.2211239337921143, -1.5579437017440796, -2.0998570919036865, 0.594482421875, 0.210693359375, -0.713134765625
423, 1289337613, -6.338564872741699, 1.8198628425598145, 7.065194606781006, -1.6489328145980835, -2.064063310623169, -2.3204081058502197, 0.597900390625, 0.211669921875, -0.714599609375
424, 1289354280, -6.339920997619629, 1.8117905855178833, 7.052306175231934, -2.2640604972839355, -3.0556724071502686, -2.665219783782959, 0.59375, 0.212646484375, -0.713623046875
425, 1289370947, -6.327195644378662, 1.8182306289672852, 7.0941081047058105, -3.21936297416687, -4.394371032714844, -3.1452527046203613, 0.59326171875, 0.2138671875, -0.713134765625
426, 1289387614, -6.32420539855957, 1.7920777797698975, 7.07086181640625, -3.7838799953460693, -5.320155620574951, -3.4892313480377197, 0.59228515625, 0.2158203125, -0.715087890625
427, 1289404281, -6.318881034851074, 1.7915146350860596, 7.1025824546813965, -4.577284812927246, -6.035019397735596, -3.8546483516693115, 0.59228515625, 0.21533203125, -0.714111328125
428, 1289420948, -6.286628723144531, 1.7596348524093628, 7.148932933807373, -4.528326034545898, -5.88951301574707, -3.930666446685791, 0.589599609375, 0.2177734375, -0.72021484375
429, 1289437615, -6.2902960777282715, 1.724286437034607, 7.167258262634277, -4.217195987701416, -5.2907395362854, -3.8225550651550293, 0.591064453125, 0.216796875, -0.7177734375
430, 1289454282, -6.2869720458984375, 1.7076603174209595, 7.161885738372803, -3.9780495166778564, -4.877337455749512, -3.7187464237213135, 0.589111328125, 0.219482421875, -0.72119140625
431, 1289470949, -6.273197650909424, 1.6979894638061523, 7.157308101654053, -3.6247737407684326, -4.444661617279053, -3.5420572757720947, 0.589599609375, 0.220947265625, -0.71923828125
432, 1289487616, -6.259615898132324, 1.6810394525527954, 7.157169818878174, -3.434497356414795, -4.026700973510742, -3.4209349155426025, 0.588623046875, 0.220458984375, -0.720703125
433, 1289504283, -6.235158920288086, 1.567692518234253, 7.178588390350342, -2.4091949462890625, -2.6654629707336426, -2.8293585777282715, 0.590087890625, 0.222900390625, -0.720703125
434, 1289520950, -6.247612476348877, 1.6025137901306152, 7.190802097320557, -0.9831563234329224, -1.3430147171020508, -1.8094221353530884, 0.587890625, 0.221923828125, -0.720947265625
435, 1289537617, -6.260878562927246, 1.628004789352417, 7.180513858795166, 0.2159726768732071, -0.0920008197426796, -1.0919333696365356, 0.589111328125, 0.221923828125, -0.721435546875
436, 1289554284, -6.270592212677002, 1.6370607614517212, 7.18152379989624, 1.0031278133392334, 0.6318333148956299, -0.4521537721157074, 0.589599609375, 0.219482421875, -0.721435546875
437, 1289570951, -6.259788513183594, 1.6994643211364746, 7.14534330368042, 1.033453345298767, 0.7049704194068909, -0.4071522653102875, 0.589599609375, 0.221435546875, -0.722900390625
438, 1289587618, -6.26861572265625, 1.6773014068603516, 7.164536476135254, 0.9859033226966858, 0.6515678763389587, -0.41550204157829285, 0.589599609375, 0.222412109375, -0.722900390625
439, 1289604285, -6.282776355743408, 1.7263295650482178, 7.127001762390137, 1.1175780296325684, 0.6792808175086975, -0.3835501968860626, 0.591064453125, 0.218994140625, -0.720703125
440, 1289620952, -6.282087326049805, 1.7332440614700317, 7.152491092681885, 1.0529956817626953, 0.5730265378952026, -0.5142005681991577, 0.590087890625, 0.221923828125, -0.720703125
441, 1289637619, -6.291040420532227, 1.7389737367630005, 7.155506134033203, 0.7548382878303528, 0.3312170207500458, -0.6456832885742188, 0.590576171875, 0.219482421875, -0.722412109375
442, 1289654286, -6.2924113273620605, 1.7284778356552124, 7.14656925201416, 0.3539867103099823, -0.0939345732331276, -0.8073762655258179, 0.590576171875, 0.21826171875, -0.7197265625
443, 1289670953, -6.287967205047607, 1.7316782474517822, 7.135580062866211, 0.26164010167121887, -0.40375855565071106, -1.0160173177719116, 0.591064453125, 0.218994140625, -0.7197265625
444, 1289687620, -6.290103435516357, 1.7327511310577393, 7.132631301879883, -0.011103106662631035, -0.6772894859313965, -1.0222926139831543, 0.592041015625, 0.218505859375, -0.71875
445, 1289704287, -6.280148029327393, 1.7136313915252686, 7.14567756652832, 0.13052873313426971, -0.5587922930717468, -1.0894874334335327, 0.589599609375, 0.219482421875, -0.72021484375
446, 1289720954, -6.288341045379639, 1.7261430025100708, 7.1521406173706055, 0.17480026185512543, -0.36468639969825745, -0.9593364596366882, 0.591064453125, 0.219970703125, -0.71923828125
447, 1289737621, -6.284101963043213, 1.727960228919983, 7.139464855194092, 0.09953736513853073, -0.5176966786384583, -1.127932071685791, 0.589599609375, 0.21923828125, -0.71875
448, 1289754288, -6.277526378631592, 1.7162084579467773, 7.148687839508057, 0.0160655677318573, -0.5529781579971313, -1.1513932943344116, 0.593505859375, 0.219970703125, -0.720703125
449, 1289770955, -6.28678035736084, 1.7532033920288086, 7.143507957458496, -0.19903627038002014, -0.7964012622833252, -1.2763961553573608, 0.590576171875, 0.219482421875, -0.72021484375
450, 1289787622, -6.272386074066162, 1.7361321449279785, 7.114619731903076, -0.2970432937145233, -0.8328737616539001, -1.3693830966949463, 0.589111328125, 0.219482421875, -0.72119140625
451, 1289804289, -6.274138450622559, 1.7297229766845703, 7.12971305847168, -0.40144065022468567, -0.8736876845359802, -1.4807469844818115, 0.592041015625, 0.21826171875, -0.72119140625
452, 1289820956, -6.293045997619629, 1.710450291633606, 7.146583080291748, -0.30164074897766113, -0.9858328104019165, -1.384942650794983, 0.591064453125, 0.218994140625, -0.72119140625
453, 1289837623, -6.275850772857666, 1.7014367580413818, 7.155806064605713, -0.30891475081443787, -1.0203715562820435, -1.3749024868011475, 0.590576171875, 0.21875, -0.72021484375
454, 1289854290, -6.289210319519043, 1.7120361328125, 7.131190776824951, -0.3512525260448456, -0.9362210035324097, -1.3792693614959717, 0.593017578125, 0.21826171875, -0.72119140625
455, 1289870957, -6.293648719787598, 1.7221463918685913, 7.155162811279297, -0.3181353509426117, -0.9013365507125854, -1.3271220922470093, 0.591064453125, 0.218994140625, -0.71923828125
456, 1289887624, -6.283288955688477, 1.7226511240005493, 7.151910781860352, -0.3055979609489441, -0.9456977844238281, -1.3489314317703247, 0.590087890625, 0.21875, -0.72021484375
457, 1289904291, -6.2790117263793945, 1.7068945169448853, 7.143719673156738, -0.34502866864204407, -0.956685483455658, -1.299268126487732, 0.588623046875, 0.219482421875, -0.7197265625
458, 1289920958, -6.274138450622559, 1.7015562057495117, 7.1424455642700195, -0.26625683903694153, -0.8789637684822083, -1.2565077543258667, 0.590576171875, 0.21875, -0.72021484375
459, 1289937625, -6.2699713706970215, 1.7084635496139526, 7.169314384460449, -0.1532023698091507, -0.7391440868377686, -1.2374904155731201, 0.5927734375, 0.21728515625, -0.71923828125
460, 1289954292, -6.2629804611206055, 1.7226195335388184, 7.137690544128418, -0.04927883669734001, -0.47517964243888855, -1.189389705657959, 0.590576171875, 0.219482421875, -0.72119140625
461, 1289970959, -6.260823726654053, 1.738211750984192, 7.135103225708008, -0.060778938233852386, -0.5396211743354797, -1.1339895725250244, 0.590576171875, 0.21826171875, -0.72021484375
462, 1289987626, -6.263373851776123, 1.7285817861557007, 7.134909629821777, -0.05411963909864426, -0.5886439085006714, -1.1581038236618042, 0.589599609375, 0.219970703125, -0.71826171875
463, 1290004293, -6.269679069519043, 1.726159691810608, 7.126240253448486, -0.04984232038259506, -0.5523890256881714, -1.2489264011383057, 0.589599609375, 0.21875, -0.71923828125
464, 1290020960, -6.2675371170043945, 1.7177855968475342, 7.123973369598389, -0.046730369329452515, -0.565528392791748, -1.2319196462631226, 0.590087890625, 0.21923828125, -0.71875
465, 1290037627, -6.267791271209717, 1.7268321514129639, 7.180210113525391, -0.15864507853984833, -0.6287789940834045, -1.3002159595489502, 0.592041015625, 0.21875, -0.72021484375
466, 1290054294, -6.293717384338379, 1.7306404113769531, 7.168746471405029, -0.18643486499786377, -0.7016854882240295, -1.3473433256149292, 0.592529296875, 0.2177734375, -0.71923828125
467, 1290070961, -6.28659725189209, 1.7283309698104858, 7.1399407386779785, -0.3426339030265808, -0.792828381061554, -1.4965758323669434, 0.591552734375, 0.218994140625, -0.71875
468, 1290087628, -6.272021770477295, 1.7081351280212402, 7.141027927398682, -0.4077926278114319, -0.6891993880271912, -1.4808367490768433, 0.590087890625, 0.21923828125, -0.720703125
469, 1290104295, -6.266932487487793, 1.6976008415222168, 7.1374640464782715, -0.334847629070282, -0.6867148876190186, -1.4298288822174072, 0.591552734375, 0.21826171875, -0.72216796875
470, 1290120962, -6.289465427398682, 1.709868311882019, 7.152101039886475, -0.26014819741249084, -0.6883285045623779, -1.3396083116531372, 0.591064453125, 0.221435546875, -0.7197265625
471, 1290137629, -6.278311252593994, 1.7262346744537354, 7.154283046722412, -0.03925146162509918, -0.6894682049751282, -1.2510906457901, 0.592041015625, 0.21875, -0.722412109375
472, 1290154296, -6.296510696411133, 1.704545021057129, 7.164957046508789, 0.06128479167819023, -0.45832645893096924, -1.1536728143692017, 0.59326171875, 0.21728515625, -0.71826171875
473, 1290170963, -6.275019645690918, 1.7022119760513306, 7.139157295227051, 0.1262257844209671, -0.2929324209690094, -1.091562032699585, 0.590576171875, 0.219482421875, -0.71923828125
474, 1290187630, -6.273201942443848, 1.7197319269180298, 7.147552490234375, 0.22345158457756042, -0.26991942524909973, -1.0293742418289185, 0.589111328125, 0.21875, -0.72119140625
475, 1290204297, -6.279107093811035, 1.729251742362976, 7.141308307647705, 0.1942402869462967, -0.32958415150642395, -1.0439480543136597, 0.590576171875, 0.21875, -0.71826171875
476, 1290220964, -6.288254737854004, 1.7188920974731445, 7.1318464279174805, 0.10284138470888138, -0.5428483486175537, -1.1336820125579834, 0.591552734375, 0.219970703125, -0.72021484375
477, 1290237631, -6.29848575592041, 1.718979835510254, 7.142658710479736, 0.06928876042366028, -0.6670315861701965, -1.0635161399841309, 0.591064453125, 0.2177734375, -0.7197265625
478, 1290254298, -6.289588928222656, 1.738864541053772, 7.147935390472412, 0.077766552567482, -0.593740701675415, -0.9922870993614197, 0.593505859375, 0.218994140625, -0.720703125
479, 1290270965, -6.291913032531738, 1.7415658235549927, 7.127151966094971, 0.07406552135944366, -0.5645935535430908, -1.0679086446762085, 0.589111328125, 0.21826171875, -0.71923828125
480, 1290287632, -6.2867045402526855, 1.7409965991973877, 7.1256327629089355, -0.07820837944746017, -0.6287661790847778, -1.1827815771102905, 0.590576171875, 0.21728515625, -0.71826171875
481, 1290304299, -6.282810211181641, 1.7279818058013916, 7.135659217834473, -0.2283628135919571, -0.7612990736961365, -1.2825944423675537, 0.592041015625, 0.219482421875, -0.716064453125
482, 1290320966, -6.296526908874512, 1.7339577674865723, 7.160494327545166, -0.3990202248096466, -0.8116407990455627, -1.3600088357925415, 0.591552734375, 0.2177734375, -0.71923828125
483, 1290337633, -6.280981063842773, 1.7357711791992188, 7.138144493103027, -0.349165141582489, -0.9496676921844482, -1.459987998008728, 0.591064453125, 0.2177734375, -0.7177734375
484, 1290354300, -6.2850236892700195, 1.7334198951721191, 7.139350891113281, -0.5274295210838318, -0.9919029474258423, -1.5155929327011108, 0.590576171875, 0.21875, -0.72119140625
485, 1290370967, -6.278480052947998, 1.7344828844070435, 7.139217853546143, -0.5225374102592468, -1.0556913614273071, -1.4797990322113037, 0.592041015625, 0.219970703125, -0.71923828125
486, 1290387634, -6.291853427886963, 1.7108269929885864, 7.123239994049072, -0.5920759439468384, -1.1408665180206299, -1.49492347240448, 0.590087890625, 0.21923828125, -0.720703125
487, 1290404301, -6.298933029174805, 1.7324929237365723, 7.10822868347168, -0.7543580532073975, -1.297949194908142, -1.6937038898468018, 0.592529296875, 0.220458984375, -0.7197265625
488, 1290420968, -6.289834499359131, 1.7430895566940308, 7.133711814880371, -1.0143780708312988, -1.5724916458129883, -1.7901482582092285, 0.592529296875, 0.2177734375, -0.72119140625
489, 1290437635, -6.2793474197387695, 1.75123131275177, 7.147494792938232, -1.2915587425231934, -1.7856919765472412, -1.9660693407058716, 0.591552734375, 0.219482421875, -0.7197265625
490, 1290454302, -6.282861232757568, 1.7209563255310059, 7.167531490325928, -1.4894295930862427, -2.156883716583252, -2.17098331451416, 0.589599609375, 0.21923828125, -0.7197265625
491, 1290470969, -6.277007102966309, 1.7166516780853271, 7.152447700500488, -1.52500581741333, -2.380995035171509, -2.2887637615203857, 0.590576171875, 0.220947265625, -0.720703125
492, 1290487636, -6.283778190612793, 1.718529462814331, 7.156451225280762, -1.5659477710723877, -2.5143604278564453, -2.2471046447753906, 0.591064453125, 0.219970703125, -0.71875
493, 1290504303, -6.273970603942871, 1.7108358144760132, 7.151756763458252, -1.5622724294662476, -2.528972625732422, -2.2682738304138184, 0.588623046875, 0.220947265625, -0.7197265625
494, 1290520970, -6.272573471069336, 1.6831707954406738, 7.144020080566406, -1.5406681299209595, -2.487889528274536, -2.148188352584839, 0.592041015625, 0.221435546875, -0.72119140625
495, 1290537637, -6.250572204589844, 1.6805864572525024, 7.1982927322387695, -1.4306868314743042, -2.2843708992004395, -2.0773050785064697, 0.58935546875, 0.221923828125, -0.723388671875
496, 1290554304, -6.261510372161865, 1.6708804368972778, 7.172027111053467, -1.1444008350372314, -1.9427999258041382, -1.9991092681884766, 0.589111328125, 0.221435546875, -0.720703125
497, 1290570971, -6.261695384979248, 1.6744978427886963, 7.183743953704834, -1.0028011798858643, -1.8041201829910278, -1.7753443717956543, 0.590087890625, 0.219482421875, -0.723388671875
498, 1290587638, -6.256902694702148, 1.696770191192627, 7.165788650512695, -0.8131520748138428, -1.634922742843628, -1.7292927503585815, 0.590576171875, 0.222900390625, -0.722412109375
499, 1290604305, -6.242949962615967, 1.6844254732131958, 7.176854133605957, -0.8735083937644958, -1.477071762084961, -1.7630374431610107, 0.5888671875, 0.222412109375, -0.722412109375
500, 1290620972, -6.246737957000732, 1.6728646755218506, 7.176234722137451, -0.755280077457428, -1.4812593460083008, -1.7383980751037598, 0.58837890625, 0.223876953125, -0.723876953125
501, 1290637639, -6.249337196350098, 1.685535192489624, 7.164106845855713, -0.6482189893722534, -1.322883129119873, -1.7094941139221191, 0.58837890625, 0.221923828125, -0.723876953125
502, 1290654306, -6.247036933898926, 1.6729891300201416, 7.191720485687256, -0.5229600667953491, -1.180527687072754, -1.5377222299575806, 0.58740234375, 0.224853515625, -0.722412109375
503, 1290670973, -6.237116813659668, 1.661180019378662, 7.190946102142334, -0.3382028639316559, -0.9448139071464539, -1.5780366659164429, 0.58935546875, 0.222900390625, -0.723388671875
504, 1290687640, -6.248536586761475, 1.6791778802871704, 7.179713726043701, -0.43304675817489624, -0.8437592387199402, -1.5228415727615356, 0.590576171875, 0.223388671875, -0.724365234375
505, 1290704307, -6.250017166137695, 1.6656378507614136, 7.182436466217041, -0.4051416218280792, -0.8732520341873169, -1.592751145362854, 0.590087890625, 0.222900390625, -0.721435546875
506, 1290720974, -6.251465797424316, 1.6691442728042603, 7.1776251792907715, -0.45783981680870056, -0.8994667530059814, -1.477903962135315, 0.58935546875, 0.22607421875, -0.722412109375
507, 1290737641, -6.250802993774414, 1.6683225631713867, 7.189047813415527, -0.3493444323539734, -0.860369086265564, -1.5092157125473022, 0.5888671875, 0.223876953125, -0.724853515625
508, 1290754308, -6.255669116973877, 1.6705360412597656, 7.191626071929932, -0.33756256103515625, -0.7532182335853577, -1.503363013267517, 0.58837890625, 0.222412109375, -0.722412109375
509, 1290770975, -6.24612283706665, 1.6579761505126953, 7.176932334899902, -0.32420554757118225, -0.7742207050323486, -1.4754323959350586, 0.5859375, 0.223388671875, -0.721923828125
510, 1290787642, -6.255003929138184, 1.6701842546463013, 7.198520660400391, -0.33471956849098206, -0.8683858513832092, -1.4489617347717285, 0.587890625, 0.221435546875, -0.724365234375
511, 1290804309, -6.2567338943481445, 1.6637476682662964, 7.164210796356201, -0.3402519226074219, -0.8379579186439514, -1.413167953491211, 0.5888671875, 0.222412109375, -0.721435546875
512, 1290820976, -6.263973712921143, 1.6631666421890259, 7.203271865844727, -0.3754565417766571, -0.9012851715087891, -1.4684911966323853, 0.58984375, 0.222900390625, -0.724853515625
513, 1290837643, -6.251774787902832, 1.6701946258544922, 7.178055286407471, -0.38827574253082275, -0.95626300573349, -1.409991979598999, 0.5869140625, 0.224365234375, -0.723876953125
514, 1290854310, -6.259418487548828, 1.6605654954910278, 7.176003456115723, -0.3505098521709442, -0.9170626997947693, -1.3948421478271484, 0.58935546875, 0.22509765625, -0.724853515625
515, 1290870977, -6.256708145141602, 1.6742500066757202, 7.1945481300354, -0.44499507546424866, -0.8318108916282654, -1.317619800567627, 0.587890625, 0.2255859375, -0.723388671875
516, 1290887644, -6.255618095397949, 1.679224967956543, 7.1658854484558105, -0.4000447690486908, -0.8923977613449097, -1.391794204711914, 0.58740234375, 0.224365234375, -0.724853515625
517, 1290904311, -6.244330406188965, 1.67195463180542, 7.182229995727539, -0.41592466831207275, -0.961423933506012, -1.4675309658050537, 0.58642578125, 0.223876953125, -0.72607421875
518, 1290920978, -6.252392292022705, 1.671953558921814, 7.201803684234619, -0.4621042311191559, -0.9754980802536011, -1.4624594449996948, 0.59130859375, 0.2275390625, -0.722412109375
519, 1290937645, -6.2546706199646, 1.6643593311309814, 7.190047740936279, -0.44732582569122314, -0.9786741137504578, -1.459987998008728, 0.5888671875, 0.222412109375, -0.723876953125
520, 1290954312, -6.246928691864014, 1.664983868598938, 7.188826560974121, -0.43466031551361084, -1.0128029584884644, -1.4588865041732788, 0.58837890625, 0.224365234375, -0.724853515625
521, 1290970979, -6.246647357940674, 1.6660759449005127, 7.200822353363037, -0.4665480852127075, -1.1013202667236328, -1.5125706195831299, 0.58935546875, 0.223876953125, -0.725341796875
522, 1290987646, -6.247040271759033, 1.6539753675460815, 7.187946319580078, -0.43466025590896606, -1.0792421102523804, -1.4671976566314697, 0.587890625, 0.223388671875, -0.724853515625
523, 1291004313, -6.241677284240723, 1.6665302515029907, 7.168089866638184, -0.3774927854537964, -0.9736284017562866, -1.398850440979004, 0.58837890625, 0.222900390625, -0.722412109375
524, 1291020980, -6.257233142852783, 1.6637704372406006, 7.19426965713501, -0.43670937418937683, -0.9886247515678406, -1.4200706481933594, 0.5888671875, 0.222900390625, -0.723876953125
525, 1291037647, -6.249833106994629, 1.6555898189544678, 7.18101692199707, -0.41141676902770996, -1.059891939163208, -1.3705867528915405, 0.58984375, 0.223876953125, -0.725830078125
526, 1291054314, -6.235048770904541, 1.6559382677078247, 7.194720268249512, -0.32940492033958435, -1.095019817352295, -1.3771692514419556, 0.58935546875, 0.224365234375, -0.721923828125
527, 1291070981, -6.248032093048096, 1.6681115627288818, 7.186581611633301, -0.2999887466430664, -1.116162896156311, -1.3729431629180908, 0.58740234375, 0.224853515625, -0.725341796875
528, 1291087648, -6.240805625915527, 1.6680920124053955, 7.191407203674316, -0.39967334270477295, -1.0827511548995972, -1.342963457107544, 0.58740234375, 0.222900390625, -0.723388671875
529, 1291104315, -6.250100135803223, 1.6491667032241821, 7.1886749267578125, -0.3560676872730255, -1.1129741668701172, -1.4027304649353027, 0.58740234375, 0.224853515625, -0.724853515625
530, 1291120982, -6.248800754547119, 1.6524252891540527, 7.178751468658447, -0.3757767677307129, -1.0202178955078125, -1.3389551639556885, 0.58837890625, 0.224365234375, -0.725830078125
531, 1291137649, -6.238471984863281, 1.6652681827545166, 7.2052321434021, -0.323744535446167, -1.0037105083465576, -1.335497498512268, 0.58935546875, 0.223876953125, -0.726318359375
532, 1291154316, -6.232172012329102, 1.6573212146759033, 7.19534969329834, -0.2808944582939148, -0.963934063911438, -1.3120617866516113, 0.58984375, 0.224609375, -0.725830078125
533, 1291170983, -6.251290321350098, 1.6471965312957764, 7.186107158660889, -0.2870415449142456, -0.9980116486549377, -1.32521390914917, 0.587890625, 0.223876953125, -0.724853515625
534, 1291187650, -6.2499542236328125, 1.660383701324463, 7.1850080490112305, -0.30239632725715637, -1.038723111152649, -1.2815057039260864, 0.5869140625, 0.223876953125, -0.72607421875
535, 1291204317, -6.228734493255615, 1.6628377437591553, 7.182226181030273, -0.3007699251174927, -0.9809535145759583, -1.2378616333007812, 0.5888671875, 0.223388671875, -0.724365234375
536, 1291220984, -6.230402946472168, 1.6562505960464478, 7.202713966369629, -0.2536553740501404, -0.9898156523704529, -1.3041731119155884, 0.58740234375, 0.224853515625, -0.724365234375
537, 1291237651, -6.245407581329346, 1.6516424417495728, 7.213308334350586, -0.24411462247371674, -0.9932733178138733, -1.3280953168869019, 0.58740234375, 0.223388671875, -0.724853515625
538, 1291254318, -6.229435920715332, 1.6490635871887207, 7.210451602935791, -0.1427907943725586, -1.0728518962860107, -1.242932915687561, 0.58740234375, 0.225341796875, -0.724853515625
539, 1291270985, -6.229404449462891, 1.6594752073287964, 7.199136257171631, -0.24289798736572266, -1.0666536092758179, -1.2014660835266113, 0.58935546875, 0.224853515625, -0.725830078125
540, 1291287652, -6.237401008605957, 1.656307578086853, 7.206532001495361, -0.20221228897571564, -1.2154380083084106, -1.1925145387649536, 0.5888671875, 0.224365234375, -0.724365234375
541, 1291304319, -6.240822792053223, 1.6725295782089233, 7.20289945602417, -0.24415303766727448, -1.108748197555542, -1.1734458208084106, 0.58544921875, 0.223876953125, -0.7255859375
542, 1291320986, -6.240400314331055, 1.6594908237457275, 7.184638977050781, -0.10072194784879684, -0.9924665093421936, -1.0689204931259155, 0.5869140625, 0.224365234375, -0.725341796875
543, 1291337653, -6.2255144119262695, 1.6552165746688843, 7.19412899017334, -0.032950740307569504, -0.8681169152259827, -1.0985158681869507, 0.58837890625, 0.224853515625, -0.724853515625
544, 1291354320, -6.2362060546875, 1.6448756456375122, 7.198884010314941, 0.14400099217891693, -0.4034256041049957, -0.8973536491394043, 0.5859375, 0.223388671875, -0.724853515625
545, 1291370987, -6.227074146270752, 1.6606587171554565, 7.199808597564697, 0.35434529185295105, -0.29166460037231445, -0.9114662408828735, 0.587890625, 0.22607421875, -0.724853515625
546, 1291387654, -6.2354607582092285, 1.6728157997131348, 7.19199800491333, 0.36297672986984253, -0.3086458146572113, -0.8787972927093506, 0.58984375, 0.224365234375, -0.722412109375
547, 1291404321, -6.252010345458984, 1.6624938249588013, 7.190866470336914, 0.26997706294059753, -0.32949453592300415, -0.9857047200202942, 0.58837890625, 0.223388671875, -0.724365234375
548, 1291420988, -6.246197700500488, 1.6618343591690063, 7.176994800567627, 0.20376823842525482, -0.4081255793571472, -0.9702346920967102, 0.587890625, 0.222412109375, -0.725341796875
549, 1291437655, -6.2361159324646, 1.6726319789886475, 7.196110725402832, 0.050604283809661865, -0.43719595670700073, -0.9317259788513184, 0.58740234375, 0.223388671875, -0.723876953125
550, 1291454322, -6.239335060119629, 1.679246425628662, 7.196436405181885, 0.1549760401248932, -0.45046329498291016, -0.9584529399871826, 0.587890625, 0.222900390625, -0.722900390625
551, 1291470989, -6.241104602813721, 1.6815359592437744, 7.193120002746582, 0.13823814690113068, -0.4795210063457489, -0.9000431895256042, 0.58837890625, 0.22509765625, -0.724365234375
552, 1291487656, -6.260795593261719, 1.6614103317260742, 7.19424295425415, 0.19083380699157715, -0.39662545919418335, -0.9653937816619873, 0.5869140625, 0.221923828125, -0.724853515625
553, 1291504323, -6.243223667144775, 1.650228500366211, 7.202474117279053, 0.24436435103416443, -0.4067680835723877, -0.8426578044891357, 0.5859375, 0.223876953125, -0.724365234375
554, 1291520990, -6.253977298736572, 1.6831823587417603, 7.193426609039307, 0.2773919403553009, -0.5028029680252075, -0.870498776435852, 0.58837890625, 0.222900390625, -0.722900390625
555, 1291537657, -6.239687919616699, 1.6846284866333008, 7.187877178192139, 0.20091240108013153, -0.584071934223175, -0.8548365831375122, 0.5869140625, 0.221435546875, -0.723388671875
556, 1291554324, -6.249180316925049, 1.6945794820785522, 7.191675662994385, 0.10468551516532898, -0.7020184993743896, -0.963498592376709, 0.58740234375, 0.224853515625, -0.723388671875
557, 1291570991, -6.2476582527160645, 1.6811052560806274, 7.194011211395264, 0.07622980326414108, -0.7444074749946594, -0.9979604482650757, 0.587890625, 0.223388671875, -0.722900390625
558, 1291587658, -6.243074893951416, 1.6800647974014282, 7.169381141662598, 0.01842193491756916, -0.7243655920028687, -0.9711438417434692, 0.5888671875, 0.221923828125, -0.723388671875
559, 1291604325, -6.239321231842041, 1.6942906379699707, 7.1827263832092285, -0.007683809380978346, -0.8489713668823242, -0.9706443548202515, 0.5869140625, 0.221435546875, -0.723876953125
560, 1291620992, -6.2300896644592285, 1.6933921575546265, 7.201483249664307, -0.061521708965301514, -0.9777392148971558, -1.0125981569290161, 0.58837890625, 0.220458984375, -0.725830078125
561, 1291637659, -6.225382328033447, 1.7027508020401, 7.179048538208008, -0.10480716079473495, -1.044575572013855, -1.0959032773971558, 0.58642578125, 0.223876953125, -0.723388671875
562, 1291654326, -6.243949890136719, 1.6824365854263306, 7.200360298156738, -0.1692102998495102, -0.9987799525260925, -1.1033567190170288, 0.58935546875, 0.220947265625, -0.725341796875
563, 1291670993, -6.2457427978515625, 1.692047357559204, 7.185276031494141, -0.11290078610181808, -0.9616672992706299, -1.2156044244766235, 0.58837890625, 0.222412109375, -0.7265625
564, 1291687660, -6.221376895904541, 1.6933674812316895, 7.185565948486328, -0.1411771923303604, -0.963421642780304, -1.155401587486267, 0.58935546875, 0.224365234375, -0.724365234375
565, 1291704327, -6.237484455108643, 1.7015684843063354, 7.204174518585205, -0.2429364174604416, -0.8549005389213562, -1.3003437519073486, 0.58837890625, 0.222412109375, -0.724853515625
566, 1291720994, -6.2462077140808105, 1.7031654119491577, 7.2004780769348145, -0.35747644305229187, -0.9212632775306702, -1.381485104560852, 0.58984375, 0.223388671875, -0.725830078125
567, 1291737661, -6.241039752960205, 1.6844048500061035, 7.2115349769592285, -0.4364660382270813, -0.9709134101867676, -1.4144741296768188, 0.58935546875, 0.221923828125, -0.7275390625
568, 1291754328, -6.237266540527344, 1.6850560903549194, 7.163002014160156, -0.4920070767402649, -1.1519182920455933, -1.6025736331939697, 0.58740234375, 0.221923828125, -0.725830078125
569, 1291770995, -6.2315449714660645, 1.691839575767517, 7.191204071044922, -0.5980821847915649, -1.2738476991653442, -1.6304532289505005, 0.58837890625, 0.221923828125, -0.721923828125
570, 1291787662, -6.222067832946777, 1.6854300498962402, 7.198699951171875, -0.5912563800811768, -1.2438294887542725, -1.7437382936477661, 0.58740234375, 0.223388671875, -0.724365234375
571, 1291804329, -6.239121913909912, 1.6683870553970337, 7.201663017272949, -0.6533415913581848, -1.2897276878356934, -1.6634681224822998, 0.58837890625, 0.220458984375, -0.726318359375
572, 1291820996, -6.214786529541016, 1.6812245845794678, 7.202512264251709, -0.6093005537986755, -1.2435094118118286, -1.600934624671936, 0.58740234375, 0.220458984375, -0.725830078125
573, 1291837663, -6.234622955322266, 1.694763422012329, 7.17783260345459, -0.5176710486412048, -1.1743037700653076, -1.6008321046829224, 0.58642578125, 0.220947265625, -0.726318359375
574, 1291854330, -6.235854148864746, 1.6762412786483765, 7.19597864151001, -0.47050532698631287, -1.1889158487319946, -1.6063259840011597, 0.58740234375, 0.224365234375, -0.724853515625
575, 1291870997, -6.237583160400391, 1.6694129705429077, 7.2027153968811035, -0.5204499959945679, -1.0651297569274902, -1.5963754653930664, 0.58837890625, 0.222412109375, -0.724365234375
576, 1291887664, -6.239198684692383, 1.6667860746383667, 7.200995445251465, -0.45618781447410583, -1.0754516124725342, -1.5483005046844482, 0.587890625, 0.222900390625, -0.725830078125
577, 1291904331, -6.225229740142822, 1.6650818586349487, 7.1978583335876465, -0.365928590297699, -0.8685010075569153, -1.4691442251205444, 0.5859375, 0.221923828125, -0.724365234375
578, 1291920998, -6.224393367767334, 1.6545501947402954, 7.20553731918335, -0.16670025885105133, -0.7605178356170654, -1.3845072984695435, 0.587890625, 0.221435546875, -0.726318359375
579, 1291937665, -6.2229509353637695, 1.6667375564575195, 7.224620342254639, -0.10114455223083496, -0.6223885416984558, -1.3234336376190186, 0.59033203125, 0.223876953125, -0.726318359375
580, 1291954332, -6.214283466339111, 1.6510990858078003, 7.208399772644043, 0.07292576134204865, -0.47334834933280945, -1.3119593858718872, 0.58837890625, 0.222412109375, -0.724853515625
581, 1291970999, -6.227734565734863, 1.6516050100326538, 7.213846683502197, 0.11507146805524826, -0.429921954870224, -1.1342968940734863, 0.58740234375, 0.222412109375, -0.724853515625
582, 1291987666, -6.240592956542969, 1.675662636756897, 7.208127498626709, 0.2936815917491913, -0.2821110785007477, -1.0058362483978271, 0.587890625, 0.223388671875, -0.725341796875
583, 1292004333, -6.232708930969238, 1.6702783107757568, 7.180515766143799, 0.36432138085365295, -0.21811774373054504, -0.9205844402313232, 0.58642578125, 0.223876953125, -0.725830078125
584, 1292021000, -6.241608142852783, 1.672963261604309, 7.208684921264648, 0.35371774435043335, -0.1386287361383438, -0.8348075151443481, 0.587890625, 0.2197265625, -0.723388671875
585, 1292037667, -6.238891124725342, 1.6850779056549072, 7.171327114105225, 0.42297452688217163, -0.23240962624549866, -0.813011109828949, 0.58740234375, 0.220947265625, -0.725341796875
586, 1292054334, -6.242654323577881, 1.6802146434783936, 7.176242351531982, 0.5035648941993713, -0.26533472537994385, -0.7554721236228943, 0.58984375, 0.222412109375, -0.724853515625
587, 1292071001, -6.237796783447266, 1.6918550729751587, 7.2001471519470215, 0.2984839975833893, -0.29993751645088196, -0.8659653067588806, 0.58837890625, 0.219970703125, -0.723388671875
588, 1292087668, -6.243411064147949, 1.6864421367645264, 7.197588920593262, 0.40952786803245544, -0.3847411870956421, -0.82147616147995, 0.58740234375, 0.221923828125, -0.723388671875
589, 1292104335, -6.2408366203308105, 1.7072409391403198, 7.174319744110107, 0.2883157432079315, -0.482556015253067, -0.9354141354560852, 0.5888671875, 0.222900390625, -0.7265625
590, 1292121002, -6.255913257598877, 1.6943379640579224, 7.167975425720215, 0.19677595794200897, -0.5657461285591125, -1.0254813432693481, 0.58642578125, 0.2197265625, -0.724365234375
591, 1292137669, -6.2436394691467285, 1.71070396900177, 7.181840896606445, 0.10326401144266129, -0.6364244222640991, -1.2591716051101685, 0.58837890625, 0.220458984375, -0.724853515625
592, 1292154336, -6.250419616699219, 1.6799297332763672, 7.193049907684326, 0.015796633437275887, -0.6610766053199768, -1.22263503074646, 0.58935546875, 0.222900390625, -0.7265625
593, 1292171003, -6.2373270988464355, 1.700326919555664, 7.177239894866943, -0.06688757240772247, -0.8605995774269104, -1.2376056909561157, 0.58837890625, 0.222412109375, -0.723388671875
594, 1292187670, -6.242062091827393, 1.698922872543335, 7.191040515899658, 0.041345302015542984, -0.8922056555747986, -1.2534728050231934, 0.589111328125, 0.219970703125, -0.724365234375
595, 1292204337, -6.2379045486450195, 1.70137357711792, 7.189807415008545, -0.04516799747943878, -1.0634520053863525, -1.2741550207138062, 0.58935546875, 0.223876953125, -0.723388671875
596, 1292221004, -6.233974933624268, 1.7022887468338013, 7.173547267913818, 0.04409866780042648, -0.7422047853469849, -1.3130348920822144, 0.58740234375, 0.220458984375, -0.723876953125
597, 1292237671, -6.247073650360107, 1.7074379920959473, 7.17350435256958, 0.2854471504688263, -0.6702203750610352, -1.4648032188415527, 0.588623046875, 0.21923828125, -0.724365234375
598, 1292254338, -6.244134426116943, 1.6940480470657349, 7.196209907531738, 0.17063820362091064, -0.7549983263015747, -1.5094331502914429, 0.5888671875, 0.221435546875, -0.725830078125
599, 1292271005, -6.234623432159424, 1.6983102560043335, 7.209014892578125, 0.5030014514923096, -0.42980673909187317, -1.557124137878418, 0.5888671875, 0.221923828125, -0.722900390625
600, 1292287672, -6.250315189361572, 1.666568636894226, 7.197055339813232, 0.8123515844345093, -0.31632962822914124, -1.4999563694000244, 0.5888671875, 0.220458984375, -0.724853515625
601, 1292304339, -6.244436264038086, 1.7028954029083252, 7.193243503570557, 1.0237460136413574, -0.16543243825435638, -1.346677303314209, 0.5888671875, 0.2197265625, -0.725341796875
602, 1292321006, -6.233100414276123, 1.6921190023422241, 7.188160419464111, 1.294190526008606, 0.12585441768169403, -1.374876856803894, 0.58935546875, 0.221435546875, -0.724365234375
603, 1292337673, -6.254965305328369, 1.6757413148880005, 7.204979419708252, 2.6824498176574707, 1.3037952184677124, -1.218139886856079, 0.5869140625, 0.220458984375, -0.725830078125
604, 1292354340, -6.238609790802002, 1.6872529983520508, 7.173150539398193, 2.9436867237091064, 1.5606393814086914, -1.0069376230239868, 0.590576171875, 0.21875, -0.7216796875
605, 1292371007, -6.263772010803223, 1.7097742557525635, 7.189433574676514, 2.68414044380188, 1.7056968212127686, -0.9846674203872681, 0.592041015625, 0.21728515625, -0.7216796875
606, 1292387674, -6.269672870635986, 1.7217901945114136, 7.16378927230835, 2.338881254196167, 1.5800154209136963, -0.9193294644355774, 0.589599609375, 0.219482421875, -0.720703125
607, 1292404341, -6.28065299987793, 1.6940665245056152, 7.1328606605529785, 2.310732841491699, 1.5870587825775146, -0.9144886136054993, 0.590576171875, 0.218994140625, -0.72021484375
608, 1292421008, -6.2587504386901855, 1.7700995206832886, 7.156141757965088, 1.8340678215026855, 1.192444086074829, -0.8180952668190002, 0.591552734375, 0.216796875, -0.722412109375
609, 1292437675, -6.328926086425781, 1.6781460046768188, 7.237178325653076, 2.452268600463867, 2.0936014652252197, -0.8562582731246948, 0.591064453125, 0.216796875, -0.720703125
610, 1292454342, -6.382718563079834, 1.6816439628601074, 7.2131476402282715, 3.9777233600616455, 3.3875811100006104, -0.6366933584213257, 0.591064453125, 0.2158203125, -0.7197265625
611, 1292471009, -6.375352382659912, 1.6995269060134888, 7.1282219886779785, 4.68955135345459, 3.5165278911590576, -0.3249867856502533, 0.59423828125, 0.21337890625, -0.7197265625
612, 1292487676, -6.359138488769531, 1.7737103700637817, 7.086726665496826, 5.598495006561279, 2.088043689727783, 0.5576461553573608, 0.59228515625, 0.2158203125, -0.716552734375
613, 1292504343, -6.309420108795166, 1.890723466873169, 7.02611780166626, 4.766376495361328, -0.15955433249473572, 0.5380908846855164, 0.5927734375, 0.212646484375, -0.71826171875
614, 1292521010, -6.219908237457275, 1.9104052782058716, 7.026186943054199, 3.388566493988037, -1.4676460027694702, -0.025343766435980797, 0.5947265625, 0.212158203125, -0.718017578125
615, 1292537677, -6.225600242614746, 1.8898539543151855, 7.039867877960205, 2.023461103439331, -1.700811505317688, -0.5956617593765259, 0.59375, 0.211181640625, -0.718017578125
616, 1292554344, -6.26027250289917, 1.844653606414795, 7.079549789428711, 1.0643932819366455, -1.608964204788208, -0.977944016456604, 0.59228515625, 0.208740234375, -0.717529296875
617, 1292571011, -6.24493932723999, 1.8582693338394165, 7.0315704345703125, 0.35586926341056824, -1.7201746702194214, -1.3140980005264282, 0.59228515625, 0.208740234375, -0.718017578125
618, 1292587678, -6.247702121734619, 1.7911217212677002, 7.049492835998535, 0.01976659707725048, -1.6852513551712036, -1.1208627223968506, 0.59423828125, 0.210205078125, -0.71923828125
619, 1292604345, -6.234920024871826, 1.7911287546157837, 7.099027156829834, -0.29071691632270813, -1.5001739263534546, -1.1172513961791992, 0.59033203125, 0.210693359375, -0.7197265625
620, 1292621012, -6.274014472961426, 1.8635969161987305, 7.055111408233643, -0.9791351556777954, -1.805195927619934, -1.4785572290420532, 0.59228515625, 0.208251953125, -0.720703125
621, 1292637679, -6.287899971008301, 1.9305301904678345, 6.965018272399902, -2.144141674041748, -3.954882860183716, -1.4740239381790161, 0.58984375, 0.209716796875, -0.72021484375
622, 1292654346, -6.266682147979736, 1.6844722032546997, 7.082507133483887, -1.9400854110717773, -5.687544345855713, -0.3714098036289215, 0.591796875, 0.208740234375, -0.72216796875
623, 1292671013, -6.248292446136475, 1.6982746124267578, 7.076241493225098, -0.43622270226478577, -5.605621814727783, 1.5169891119003296, 0.5908203125, 0.209228515625, -0.72314453125
624, 1292687680, -6.300788402557373, 1.6794754266738892, 7.090541839599609, 2.459376573562622, -5.173855781555176, 4.253571510314941, 0.59033203125, 0.2080078125, -0.7236328125
625, 1292704347, -6.256711006164551, 1.6838749647140503, 7.228452682495117, 4.16600227355957, -4.7039008140563965, 6.226069927215576, 0.5888671875, 0.20556640625, -0.724853515625
626, 1292721014, -6.26210880279541, 1.8625617027282715, 7.156414031982422, 2.9836819171905518, -5.780531883239746, 6.280152320861816, 0.587646484375, 0.203369140625, -0.728271484375
627, 1292737681, -6.231095314025879, 1.9307674169540405, 7.155839920043945, 1.360207438468933, -7.3707475662231445, 5.492753028869629, 0.587890625, 0.202880859375, -0.726806640625
628, 1292754348, -6.147387504577637, 1.8612630367279053, 7.230767250061035, 0.5072404146194458, -8.434417724609375, 4.574615001678467, 0.5869140625, 0.199951171875, -0.730224609375
629, 1292771015, -6.149894714355469, 1.9141401052474976, 7.235746383666992, 0.6641694903373718, -7.64592981338501, 3.8511581420898438, 0.586181640625, 0.19970703125, -0.73193359375
630, 1292787682, -6.070706844329834, 1.8120895624160767, 7.332285404205322, 2.3792600631713867, -5.055973529815674, 4.213360786437988, 0.583251953125, 0.197265625, -0.73193359375
631, 1292804349, -6.133811950683594, 1.9730539321899414, 7.274216651916504, 3.7443015575408936, -2.524554491043091, 4.09091854095459, 0.58642578125, 0.1962890625, -0.73095703125
632, 1292821016, -6.111645221710205, 2.0899674892425537, 7.258416175842285, 3.8820464611053467, -0.9688005447387695, 3.186854124069214, 0.5859375, 0.19580078125, -0.73095703125
633, 1292837683, -6.05374813079834, 2.0813488960266113, 7.288170337677002, 3.8593409061431885, 0.4907841682434082, 2.251349925994873, 0.58642578125, 0.193603515625, -0.7314453125
634, 1292854350, -6.0815653800964355, 2.0666158199310303, 7.271782398223877, 3.774165391921997, 2.6782238483428955, 1.4675627946853638, 0.590576171875, 0.189697265625, -0.728759765625
635, 1292871017, -6.105517387390137, 2.129760503768921, 7.20932149887085, 3.0219340324401855, 4.275125026702881, 0.34997835755348206, 0.592041015625, 0.1875, -0.72607421875
636, 1292887684, -6.179816246032715, 2.149137496948242, 7.119069576263428, 1.7542716264724731, 4.268081188201904, -1.0598536729812622, 0.595458984375, 0.18115234375, -0.718017578125
637, 1292904351, -6.158575057983398, 2.008486032485962, 7.182655334472656, 1.4614031314849854, 4.022839546203613, -1.356435775756836, 0.59814453125, 0.1708984375, -0.714111328125
638, 1292921018, -6.125871181488037, 1.9950612783432007, 7.181365966796875, 0.9121001362800598, 4.029447555541992, -1.5723891258239746, 0.59130859375, 0.16162109375, -0.710693359375
639, 1292937685, -6.206296920776367, 1.887223720550537, 7.144450664520264, 0.982189416885376, 4.004949569702148, -1.2958489656448364, 0.5849609375, 0.1533203125, -0.713134765625
640, 1292954352, -6.144996643066406, 1.9800034761428833, 7.149316310882568, 1.1787670850753784, 3.6163411140441895, -0.9814403653144836, 0.5771484375, 0.15576171875, -0.71923828125
641, 1292971019, -6.203039646148682, 2.0260772705078125, 7.098854064941406, 0.7167779207229614, 3.738718271255493, -1.3675005435943604, 0.573486328125, 0.162841796875, -0.719482421875
642, 1292987686, -6.265022277832031, 2.023648738861084, 7.047140598297119, 0.5107364654541016, 3.2926087379455566, -1.7764842510223389, 0.574462890625, 0.16943359375, -0.722412109375
643, 1293004353, -6.261434555053711, 2.0655477046966553, 7.069841384887695, -2.1488544940948486, 1.5887879133224487, -3.6540744304656982, 0.57568359375, 0.172607421875, -0.72265625
644, 1293021020, -6.246788501739502, 2.179006338119507, 7.037047386169434, -5.740779399871826, -0.7837487459182739, -6.602736949920654, 0.578369140625, 0.17626953125, -0.72265625
645, 1293037687, -6.259575366973877, 2.126274585723877, 7.108969688415527, -9.289566040039062, -3.5990090370178223, -9.32551383972168, 0.57861328125, 0.182373046875, -0.72265625
646, 1293054354, -6.223521709442139, 2.2217085361480713, 7.134305477142334, -12.337063789367676, -7.582188129425049, -11.74721622467041, 0.5810546875, 0.1865234375, -0.72314453125
647, 1293071021, -6.110630989074707, 2.206441640853882, 7.110030174255371, -14.36599349975586, -9.033895492553711, -13.447174072265625, 0.579345703125, 0.192138671875, -0.726806640625
648, 1293087688, -6.091114521026611, 1.8112115859985352, 7.117448806762695, -12.642378807067871, -5.643355369567871, -12.830684661865234, 0.577880859375, 0.19775390625, -0.727783203125
649, 1293104355, -6.095061302185059, 1.541825771331787, 7.213018417358398, -8.764927864074707, 0.5611682534217834, -10.952228546142578, 0.57568359375, 0.202392578125, -0.725830078125
650, 1293121022, -6.031880855560303, 1.6674702167510986, 7.193873882293701, -5.589296340942383, 6.252594947814941, -9.553631782531738, 0.57763671875, 0.20703125, -0.723876953125
651, 1293137689, -6.005978107452393, 1.8138811588287354, 7.219117164611816, -3.964362144470215, 12.37351131439209, -9.722038269042969, 0.581298828125, 0.20654296875, -0.72216796875
652, 1293154356, -6.052414417266846, 1.8469815254211426, 7.2601494789123535, -3.7063825130462646, 19.59122085571289, -11.220163345336914, 0.582763671875, 0.2099609375, -0.7177734375
653, 1293171023, -6.1152238845825195, 1.740096092224121, 7.359357833862305, -3.3355534076690674, 28.225427627563477, -13.438506126403809, 0.587890625, 0.213623046875, -0.711669921875
