sep=,
DeviceTag:,A,,,,,,,,,,,,,,,,,
FirmwareVersion:,2.2.1,,,,,,,,,,,,,,,,,
AppVersion:,2023.6.1,,,,,,,,,,,,,,,,,
SyncStatus:,Synced,,,,,,,,,,,,,,,,,
OutputRate:,60Hz,,,,,,,,,,,,,,,,,
FilterProfile:,General,,,,,,,,,,,,,,,,,
Measurement Mode:,Inertial Mode - Rate quantities (with mag),,,,,,,,,,,,,,,,,
StartTime:,2023-12-07 13:00:24.863 +0200,,,,,,,,,,,,,,,,,
 2023,,,,,,,,,,,,,,,,,,,

PacketCounter,SampleTimeFine,Acc_X,Acc_Y,Acc_Z,Gyr_X,Gyr_Y,Gyr_Z,Mag_X,Mag_Y,Mag_Z
1, 2063553097, -6.824801921844482, -0.9165489077568054, 7.082273006439209, -2.4268927574157715, -1.3851475715637207, -2.2064828872680664, 1.122802734375, -0.392578125, 0.06005859375
2, 2063569764, -6.819040775299072, -0.9107488989830017, 7.0778350830078125, -2.365051031112671, -1.4203137159347534, -2.170919418334961, 1.12109375, -0.392822265625, 0.06201171875
3, 2063586431, -6.824066162109375, -0.9156771302223206, 7.097181797027588, -2.375718593597412, -1.4929641485214233, -2.1156344413757324, 1.121337890625, -0.392578125, 0.057861328125
4, 2063603098, -6.839784622192383, -0.9229927659034729, 7.102116107940674, -2.3059496879577637, -1.6140738725662231, -2.137443780899048, 1.122314453125, -0.39208984375, 0.058349609375
5, 2063619765, -6.81483793258667, -0.9085267186164856, 7.100369453430176, -2.364436388015747, -1.399490475654602, -2.201552391052246, 1.11962890625, -0.3916015625, 0.060791015625
6, 2063636432, -6.837619304656982, -0.9288685321807861, 7.078442573547363, -2.355318307876587, -1.457362413406372, -2.1859543323516846, 1.122314453125, -0.394287109375, 0.060546875
7, 2063653099, -6.824363708496094, -0.9047145843505859, 7.092463970184326, -2.3548829555511475, -1.5684449672698975, -2.1730072498321533, 1.121826171875, -0.39208984375, 0.060546875
8, 2063669766, -6.821949481964111, -0.9142767190933228, 7.085696697235107, -2.321624517440796, -1.5611194372177124, -2.195610284805298, 1.12060546875, -0.3916015625, 0.06103515625
9, 2063686433, -6.810243606567383, -0.9090388417243958, 7.107222080230713, -2.349107027053833, -1.490889549255371, -2.192574977874756, 1.121826171875, -0.3916015625, 0.059814453125
10, 2063703100, -6.832687854766846, -0.9155904054641724, 7.086557388305664, -2.372260808944702, -1.435450792312622, -2.205548048019409, 1.121826171875, -0.39111328125, 0.059326171875
11, 2063719767, -6.827241897583008, -0.913777232170105, 7.105589389801025, -2.3369152545928955, -1.4319289922714233, -2.0869100093841553, 1.121826171875, -0.3916015625, 0.058837890625
12, 2063736434, -6.8223700523376465, -0.9173917174339294, 7.119316577911377, -2.263099431991577, -1.5184231996536255, -2.0489773750305176, 1.12158203125, -0.39013671875, 0.060302734375
13, 2063753101, -6.820855140686035, -0.9020159840583801, 7.082448959350586, -2.2477192878723145, -1.5206003189086914, -2.1216535568237305, 1.122802734375, -0.393798828125, 0.060546875
14, 2063769768, -6.8334736824035645, -0.9060511589050293, 7.087764263153076, -2.2708346843719482, -1.4858182668685913, -2.112240791320801, 1.1201171875, -0.392822265625, 0.058837890625
15, 2063786435, -6.835806369781494, -0.9132078886032104, 7.1096696853637695, -2.3286170959472656, -1.5768460035324097, -2.1904749870300293, 1.12158203125, -0.39111328125, 0.058837890625
16, 2063803102, -6.834251403808594, -0.9085609912872314, 7.0826873779296875, -2.356701374053955, -1.48220694065094, -2.184391736984253, 1.121337890625, -0.392578125, 0.060546875
17, 2063819769, -6.8285908699035645, -0.9184800386428833, 7.079335689544678, -2.3123271465301514, -1.5719025135040283, -2.158663749694824, 1.121826171875, -0.392822265625, 0.06103515625
18, 2063836436, -6.829576015472412, -0.9096326231956482, 7.1100850105285645, -2.391406536102295, -1.5728504657745361, -2.1451663970947266, 1.121826171875, -0.392822265625, 0.0615234375
19, 2063853103, -6.836427211761475, -0.900214433670044, 7.096288204193115, -2.303567886352539, -1.622270107269287, -2.209172248840332, 1.120849609375, -0.393310546875, 0.06005859375
20, 2063869770, -6.8281073570251465, -0.9065308570861816, 7.1005353927612305, -2.3076529502868652, -1.664082646369934, -2.111229181289673, 1.12109375, -0.3916015625, 0.059326171875
21, 2063886437, -6.8211517333984375, -0.922370970249176, 7.110875606536865, -2.3579049110412598, -1.5513739585876465, -2.1171715259552, 1.1201171875, -0.392822265625, 0.060302734375
22, 2063903104, -6.828558444976807, -0.9049292802810669, 7.094513416290283, -2.371838331222534, -1.5694948434829712, -2.197979211807251, 1.122802734375, -0.394287109375, 0.058349609375
23, 2063919771, -6.823842525482178, -0.909288227558136, 7.090339183807373, -2.436408281326294, -1.5294753313064575, -2.225308418273926, 1.123291015625, -0.39208984375, 0.058837890625
24, 2063936438, -6.83585786819458, -0.906654417514801, 7.091306209564209, -2.3957607746124268, -1.5108164548873901, -2.182227849960327, 1.123291015625, -0.3916015625, 0.06005859375
25, 2063953105, -6.835470199584961, -0.9015490412712097, 7.0757832527160645, -2.44277286529541, -1.6439640522003174, -2.1666550636291504, 1.12060546875, -0.392822265625, 0.058349609375
26, 2063969772, -6.819454193115234, -0.9008971452713013, 7.111896991729736, -2.3029661178588867, -1.6176981925964355, -2.2128989696502686, 1.12060546875, -0.393310546875, 0.06103515625
27, 2063986439, -6.825759410858154, -0.9121459126472473, 7.0897955894470215, -2.331613779067993, -1.67368745803833, -2.1826374530792236, 1.122314453125, -0.392822265625, 0.06103515625
28, 2064003106, -6.828548908233643, -0.905488908290863, 7.095851898193359, -2.3358654975891113, -1.6399428844451904, -2.2044084072113037, 1.122314453125, -0.39013671875, 0.060546875
29, 2064019773, -6.8341169357299805, -0.9029973745346069, 7.114320755004883, -2.3847601413726807, -1.6097455024719238, -2.183802843093872, 1.12109375, -0.392822265625, 0.057373046875
30, 2064036440, -6.823887825012207, -0.8968912363052368, 7.100623607635498, -2.3691489696502686, -1.6304916143417358, -2.2942447662353516, 1.12109375, -0.392578125, 0.059326171875
31, 2064053107, -6.838743686676025, -0.9083107113838196, 7.123082637786865, -2.4002044200897217, -1.7018616199493408, -2.155167579650879, 1.12060546875, -0.393798828125, 0.060302734375
32, 2064069774, -6.825368881225586, -0.8883599638938904, 7.092155456542969, -2.335904121398926, -1.6439640522003174, -2.2418413162231445, 1.11962890625, -0.392822265625, 0.0615234375
33, 2064086441, -6.830151081085205, -0.9133220314979553, 7.082990646362305, -2.366612195968628, -1.5628187656402588, -2.253052234649658, 1.121337890625, -0.393310546875, 0.0615234375
34, 2064103108, -6.821145057678223, -0.9087276458740234, 7.095901966094971, -2.2862792015075684, -1.632041335105896, -2.1894121170043945, 1.121826171875, -0.39111328125, 0.056884765625
35, 2064119775, -6.823875427246094, -0.9052881598472595, 7.097024440765381, -2.2669928073883057, -1.5219321250915527, -2.1915762424468994, 1.123291015625, -0.392822265625, 0.0595703125
36, 2064136442, -6.832613468170166, -0.9099515676498413, 7.071235179901123, -2.3721327781677246, -1.4538792371749878, -2.209760904312134, 1.12109375, -0.393310546875, 0.057861328125
37, 2064153109, -6.824382781982422, -0.9079530239105225, 7.08321475982666, -2.3360447883605957, -1.4735370874404907, -2.2671852111816406, 1.1201171875, -0.393798828125, 0.060546875
38, 2064169776, -6.831242561340332, -0.8894286155700684, 7.11655330657959, -2.34306263923645, -1.4272805452346802, -2.360697031021118, 1.12109375, -0.392578125, 0.060546875
39, 2064186443, -6.825489521026611, -0.9178429245948792, 7.0975422859191895, -2.3601205348968506, -1.4698998928070068, -2.297548532485962, 1.12060546875, -0.392822265625, 0.0615234375
40, 2064203110, -6.8278045654296875, -0.9077901244163513, 7.078465938568115, -2.3703529834747314, -1.4899420738220215, -2.2961530685424805, 1.121337890625, -0.393798828125, 0.06005859375
41, 2064219777, -6.820714473724365, -0.9131828546524048, 7.084444046020508, -2.4784255027770996, -1.4757269620895386, -2.3058855533599854, 1.121826171875, -0.393798828125, 0.059326171875
42, 2064236444, -6.818142414093018, -0.9106675982475281, 7.092872142791748, -2.407529830932617, -1.5149016380310059, -2.3697381019592285, 1.122314453125, -0.39208984375, 0.06103515625
43, 2064253111, -6.819006443023682, -0.9236340522766113, 7.0866899490356445, -2.39836049079895, -1.5164382457733154, -2.339169502258301, 1.124755859375, -0.392578125, 0.0615234375
44, 2064269778, -6.8224053382873535, -0.9061704874038696, 7.09571647644043, -2.3162333965301514, -1.5720179080963135, -2.2969212532043457, 1.11962890625, -0.392822265625, 0.059326171875
45, 2064286445, -6.831443786621094, -0.9101244211196899, 7.103524208068848, -2.36857271194458, -1.5398738384246826, -2.3230462074279785, 1.120849609375, -0.393310546875, 0.06005859375
46, 2064303112, -6.824314594268799, -0.8992245197296143, 7.092527389526367, -2.4264063835144043, -1.546238899230957, -2.381174325942993, 1.121337890625, -0.392822265625, 0.059326171875
47, 2064319779, -6.8256072998046875, -0.914406955242157, 7.11199426651001, -2.436267375946045, -1.6113975048065186, -2.335660457611084, 1.123291015625, -0.3916015625, 0.0595703125
48, 2064336446, -6.8226165771484375, -0.907728910446167, 7.097833156585693, -2.4115896224975586, -1.6308631896972656, -2.289442539215088, 1.12109375, -0.392822265625, 0.060546875
49, 2064353113, -6.82581090927124, -0.9286306500434875, 7.100569725036621, -2.449406385421753, -1.6396608352661133, -2.284025192260742, 1.121337890625, -0.392822265625, 0.060546875
50, 2064369780, -6.810512542724609, -0.9143860936164856, 7.086643695831299, -2.4435412883758545, -1.6144582033157349, -2.244748115539551, 1.11962890625, -0.392578125, 0.06201171875
51, 2064386447, -6.825589656829834, -0.921127200126648, 7.085268974304199, -2.3755393028259277, -1.5781264305114746, -2.1930744647979736, 1.1201171875, -0.39208984375, 0.06103515625
52, 2064403114, -6.8275146484375, -0.9069308042526245, 7.1176652908325195, -2.3918802738189697, -1.6583454608917236, -2.2435569763183594, 1.12109375, -0.39208984375, 0.059326171875
53, 2064419781, -6.82779598236084, -0.9128744006156921, 7.1056294441223145, -2.32651686668396, -1.5590579509735107, -2.227203845977783, 1.123779296875, -0.392578125, 0.057861328125
54, 2064436448, -6.8290300369262695, -0.9077766537666321, 7.109851360321045, -2.3026325702667236, -1.58242928981781, -2.1477785110473633, 1.123779296875, -0.393310546875, 0.058349609375
55, 2064453115, -6.822932720184326, -0.899681568145752, 7.089980125427246, -2.4466021060943604, -1.5958889722824097, -2.196686267852783, 1.122314453125, -0.393310546875, 0.059326171875
56, 2064469782, -6.8096604347229, -0.8996263742446899, 7.089649200439453, -2.477414131164551, -1.6284042596817017, -2.290262460708618, 1.1181640625, -0.392822265625, 0.060791015625
57, 2064486449, -6.822162628173828, -0.9027919173240662, 7.090744972229004, -2.456808567047119, -1.5322672128677368, -2.368252754211426, 1.12158203125, -0.3916015625, 0.058837890625
58, 2064503116, -6.823077201843262, -0.9137920141220093, 7.090541839599609, -2.440006732940674, -1.5054761171340942, -2.349977970123291, 1.122314453125, -0.3916015625, 0.058837890625
59, 2064519783, -6.808099746704102, -0.90885329246521, 7.0986762046813965, -2.431004047393799, -1.5051560401916504, -2.280478000640869, 1.122314453125, -0.392822265625, 0.055908203125
60, 2064536450, -6.821804523468018, -0.9116259813308716, 7.10371732711792, -2.481422185897827, -1.3994394540786743, -2.2913503646850586, 1.122314453125, -0.39208984375, 0.059326171875
61, 2064553117, -6.822449684143066, -0.9068599939346313, 7.10203218460083, -2.484560012817383, -1.4333122968673706, -2.334136724472046, 1.1201171875, -0.39208984375, 0.059326171875
62, 2064569784, -6.813509941101074, -0.9229068756103516, 7.0994086265563965, -2.473034381866455, -1.5144662857055664, -2.354895830154419, 1.12060546875, -0.393310546875, 0.060302734375
63, 2064586451, -6.819398880004883, -0.9106069803237915, 7.120724201202393, -2.5662903785705566, -1.4153450727462769, -2.3091259002685547, 1.121826171875, -0.392822265625, 0.059814453125
64, 2064603118, -6.8199896812438965, -0.9023757576942444, 7.106169700622559, -2.5222103595733643, -1.3803707361221313, -2.325146198272705, 1.121826171875, -0.39208984375, 0.058837890625
65, 2064619785, -6.822761058807373, -0.9158360362052917, 7.107449054718018, -2.4897336959838867, -1.4364755153656006, -2.290492534637451, 1.122314453125, -0.392578125, 0.059814453125
66, 2064636452, -6.821425914764404, -0.9019737243652344, 7.097891330718994, -2.5043587684631348, -1.3806142807006836, -2.2436728477478027, 1.1201171875, -0.39111328125, 0.059814453125
67, 2064653119, -6.831834316253662, -0.9114367961883545, 7.094127178192139, -2.4367663860321045, -1.4213638305664062, -2.239408016204834, 1.122314453125, -0.392578125, 0.058349609375
68, 2064669786, -6.804114818572998, -0.9231019020080566, 7.109738349914551, -2.421386241912842, -1.446784496307373, -2.1579723358154297, 1.121826171875, -0.393310546875, 0.059326171875
69, 2064686453, -6.831575393676758, -0.917018711566925, 7.088598251342773, -2.4161570072174072, -1.4692611694335938, -2.159878730773926, 1.121337890625, -0.392822265625, 0.060546875
70, 2064703120, -6.831448078155518, -0.9062418341636658, 7.1283416748046875, -2.4029452800750732, -1.4735499620437622, -2.172827959060669, 1.123291015625, -0.39013671875, 0.059326171875
71, 2064719787, -6.82470178604126, -0.9312222003936768, 7.100191116333008, -2.4212582111358643, -1.5597238540649414, -2.1909232139587402, 1.122802734375, -0.392578125, 0.056884765625
72, 2064736454, -6.831910133361816, -0.908070981502533, 7.098250389099121, -2.3283097743988037, -1.493194818496704, -2.243288278579712, 1.12060546875, -0.39013671875, 0.058349609375
73, 2064753121, -6.821437358856201, -0.9053887128829956, 7.095242977142334, -2.406825542449951, -1.6163792610168457, -2.09643816947937, 1.122802734375, -0.392578125, 0.060546875
74, 2064769788, -6.827972412109375, -0.9052491784095764, 7.120748996734619, -2.322495698928833, -1.7215704917907715, -2.200451135635376, 1.12158203125, -0.390625, 0.060546875
75, 2064786455, -6.819188117980957, -0.899990439414978, 7.098657131195068, -2.421424627304077, -1.6985828876495361, -2.1986582279205322, 1.121337890625, -0.392822265625, 0.0615234375
76, 2064803122, -6.824665069580078, -0.8991581201553345, 7.0926384925842285, -2.407606601715088, -1.6532484292984009, -2.3171935081481934, 1.12109375, -0.3916015625, 0.059814453125
77, 2064819789, -6.830098628997803, -0.9029567241668701, 7.091383457183838, -2.3795864582061768, -1.5377097129821777, -2.2808752059936523, 1.122314453125, -0.392578125, 0.058349609375
78, 2064836456, -6.837314128875732, -0.9022218585014343, 7.114582538604736, -2.4075942039489746, -1.6156620979309082, -2.399474620819092, 1.122314453125, -0.39208984375, 0.056396484375
79, 2064853123, -6.826622486114502, -0.9183483719825745, 7.128566741943359, -2.5017335414886475, -1.5010452270507812, -2.382992744445801, 1.1201171875, -0.392822265625, 0.059814453125
80, 2064869790, -6.835637092590332, -0.9135639071464539, 7.0917229652404785, -2.5618338584899902, -1.473447561264038, -2.430953025817871, 1.12060546875, -0.39208984375, 0.059814453125
81, 2064886457, -6.815962314605713, -0.9284331798553467, 7.074571132659912, -2.5240931510925293, -1.4748305082321167, -2.413177251815796, 1.121337890625, -0.392578125, 0.059326171875
82, 2064903124, -6.8115925788879395, -0.9056960344314575, 7.078134536743164, -2.4275715351104736, -1.5090489387512207, -2.431413412094116, 1.121826171875, -0.39111328125, 0.057861328125
83, 2064919791, -6.840266704559326, -0.9109117388725281, 7.120269775390625, -2.5143094062805176, -1.6168018579483032, -2.379817008972168, 1.124267578125, -0.392578125, 0.0595703125
84, 2064936458, -6.824429035186768, -0.9136145710945129, 7.1109442710876465, -2.515218734741211, -1.5613503456115723, -2.328092098236084, 1.122314453125, -0.392578125, 0.059814453125
85, 2064953125, -6.825802326202393, -0.9129732251167297, 7.10874605178833, -2.5357728004455566, -1.4426610469818115, -2.4079909324645996, 1.12109375, -0.392578125, 0.060546875
86, 2064969792, -6.824699878692627, -0.9021182656288147, 7.1070876121521, -2.612764358520508, -1.3729690313339233, -2.516012668609619, 1.123291015625, -0.392578125, 0.0615234375
87, 2064986459, -6.826292991638184, -0.9161874651908875, 7.090047359466553, -2.60573410987854, -1.3909491300582886, -2.491616725921631, 1.12109375, -0.392578125, 0.059814453125
88, 2065003126, -6.830599784851074, -0.9276099801063538, 7.107715606689453, -2.5427651405334473, -1.445657730102539, -2.393685817718506, 1.122802734375, -0.3916015625, 0.058349609375
89, 2065019793, -6.811499118804932, -0.9132758975028992, 7.10759973526001, -2.488862991333008, -1.6008706092834473, -2.3760135173797607, 1.122314453125, -0.392578125, 0.06005859375
90, 2065036460, -6.827793121337891, -0.9077804684638977, 7.10234260559082, -2.414470672607422, -1.5871422290802002, -2.389357566833496, 1.121826171875, -0.3916015625, 0.056396484375
91, 2065053127, -6.832674503326416, -0.8980188965797424, 7.114107608795166, -2.4298129081726074, -1.392690658569336, -2.339937925338745, 1.1201171875, -0.39208984375, 0.059326171875
92, 2065069794, -6.8148369789123535, -0.9088279604911804, 7.106044769287109, -2.553163528442383, -1.3454608917236328, -2.3407702445983887, 1.12060546875, -0.39111328125, 0.0615234375
93, 2065086461, -6.838115692138672, -0.918324887752533, 7.104104042053223, -2.436382293701172, -1.3915636539459229, -2.3758082389831543, 1.12158203125, -0.3916015625, 0.06201171875
94, 2065103128, -6.82052755355835, -0.9141309261322021, 7.10719108581543, -2.4458208084106445, -1.4263968467712402, -2.305309772491455, 1.12109375, -0.393310546875, 0.058349609375
95, 2065119795, -6.826635360717773, -0.9167781472206116, 7.090315341949463, -2.4022021293640137, -1.5096124410629272, -2.303145170211792, 1.122802734375, -0.390625, 0.056884765625
96, 2065136462, -6.8203816413879395, -0.9228927493095398, 7.1153717041015625, -2.4233202934265137, -1.4943602085113525, -2.2233617305755615, 1.122802734375, -0.39111328125, 0.060546875
97, 2065153129, -6.830149173736572, -0.9145128726959229, 7.0927252769470215, -2.4007420539855957, -1.5144660472869873, -2.267428159713745, 1.122314453125, -0.39111328125, 0.058837890625
98, 2065169796, -6.815155029296875, -0.8910776376724243, 7.08372688293457, -2.456296682357788, -1.5286556482315063, -2.321765899658203, 1.12109375, -0.392578125, 0.059814453125
99, 2065186463, -6.827489376068115, -0.9299042224884033, 7.083174228668213, -2.4845473766326904, -1.6768378019332886, -2.270565986633301, 1.12109375, -0.392578125, 0.057861328125
100, 2065203130, -6.830915451049805, -0.9206126928329468, 7.087327003479004, -2.452275276184082, -1.5531798601150513, -2.2618062496185303, 1.122314453125, -0.3916015625, 0.06005859375
101, 2065219797, -6.8347015380859375, -0.9140466451644897, 7.097082614898682, -2.419901132583618, -1.5959786176681519, -2.352372884750366, 1.121826171875, -0.3916015625, 0.059326171875
102, 2065236464, -6.826073169708252, -0.9081061482429504, 7.101895809173584, -2.403162717819214, -1.4494355916976929, -2.3739519119262695, 1.121826171875, -0.393310546875, 0.060546875
103, 2065253131, -6.826545715332031, -0.9248582124710083, 7.107421875, -2.4345383644104004, -1.4893016815185547, -2.2562739849090576, 1.11962890625, -0.39208984375, 0.059326171875
104, 2065269798, -6.826679229736328, -0.9344688057899475, 7.114896774291992, -2.415367364883423, -1.5185257196426392, -2.1927289962768555, 1.123291015625, -0.39208984375, 0.06005859375
105, 2065286465, -6.820314407348633, -0.9172315001487732, 7.090457916259766, -2.376126766204834, -1.4555720090866089, -2.1135740280151367, 1.12158203125, -0.3896484375, 0.060546875
106, 2065303132, -6.839242458343506, -0.9284483194351196, 7.108675479888916, -2.385861396789551, -1.5429216623306274, -2.2003228664398193, 1.12109375, -0.390625, 0.060546875
107, 2065319799, -6.807579040527344, -0.9238671660423279, 7.086067199707031, -2.2051894664764404, -1.7445707321166992, -2.2063422203063965, 1.122802734375, -0.39208984375, 0.058349609375
108, 2065336466, -6.8351969718933105, -0.919073224067688, 7.088123321533203, -2.3570215702056885, -1.7428547143936157, -2.247821807861328, 1.12158203125, -0.3916015625, 0.058349609375
109, 2065353133, -6.8191609382629395, -0.9162307977676392, 7.122152328491211, -2.2996108531951904, -1.6609067916870117, -2.3148884773254395, 1.120361328125, -0.394775390625, 0.060546875
110, 2065369800, -6.826012134552002, -0.9061414003372192, 7.103813648223877, -2.5059468746185303, -1.5290913581848145, -2.4474217891693115, 1.12109375, -0.3916015625, 0.060302734375
111, 2065386467, -6.819247245788574, -0.9048263430595398, 7.105165958404541, -2.5235681533813477, -1.4889814853668213, -2.426841974258423, 1.12060546875, -0.393798828125, 0.06201171875
112, 2065403134, -6.832260608673096, -0.9135656356811523, 7.097633361816406, -2.511197328567505, -1.5342649221420288, -2.428468704223633, 1.12060546875, -0.393310546875, 0.058837890625
113, 2065419801, -6.818609237670898, -0.9236109256744385, 7.103428363800049, -2.433603525161743, -1.4318652153015137, -2.427072286605835, 1.122314453125, -0.39013671875, 0.057861328125
114, 2065436468, -6.824270725250244, -0.9266561269760132, 7.080658912658691, -2.4280200004577637, -1.5102144479751587, -2.278762102127075, 1.1201171875, -0.39111328125, 0.058837890625
115, 2065453135, -6.832221984863281, -0.9224344491958618, 7.101072788238525, -2.371300458908081, -1.4949876070022583, -2.3070380687713623, 1.121826171875, -0.393310546875, 0.057861328125
116, 2065469802, -6.827994346618652, -0.9228801131248474, 7.1069536209106445, -2.4135355949401855, -1.6549131870269775, -2.3045663833618164, 1.11865234375, -0.392333984375, 0.059326171875
117, 2065486469, -6.816709995269775, -0.9136518239974976, 7.089128494262695, -2.3566887378692627, -1.5838383436203003, -2.270463705062866, 1.122314453125, -0.392578125, 0.06103515625
118, 2065503136, -6.830015659332275, -0.9120310544967651, 7.095048427581787, -2.4371254444122314, -1.4821302890777588, -2.401984930038452, 1.12158203125, -0.39208984375, 0.058837890625
119, 2065519803, -6.8263258934021, -0.9139302372932434, 7.114294052124023, -2.536067247390747, -1.5262351036071777, -2.463557481765747, 1.122314453125, -0.392578125, 0.057373046875
120, 2065536470, -6.819580078125, -0.9212560057640076, 7.089781761169434, -2.5174596309661865, -1.4607820510864258, -2.3445098400115967, 1.122802734375, -0.39111328125, 0.059326171875
121, 2065553137, -6.818846225738525, -0.9326297044754028, 7.106444358825684, -2.5019125938415527, -1.5026203393936157, -2.2957687377929688, 1.121337890625, -0.392822265625, 0.058837890625
122, 2065569804, -6.820202827453613, -0.9262898564338684, 7.096166610717773, -2.4731881618499756, -1.5677021741867065, -2.3953638076782227, 1.12109375, -0.39111328125, 0.058837890625
123, 2065586471, -6.831470012664795, -0.9253994822502136, 7.0945820808410645, -2.3661906719207764, -1.542883276939392, -2.2558000087738037, 1.12109375, -0.39208984375, 0.060302734375
124, 2065603138, -6.8193769454956055, -0.9245956540107727, 7.108907699584961, -2.4038543701171875, -1.5577900409698486, -2.3143765926361084, 1.12060546875, -0.3896484375, 0.060302734375
125, 2065619805, -6.817436218261719, -0.9309642910957336, 7.117202281951904, -2.4607272148132324, -1.5256074666976929, -2.3667798042297363, 1.1220703125, -0.39013671875, 0.059814453125
126, 2065636472, -6.830378532409668, -0.9178957939147949, 7.099400520324707, -2.483586549758911, -1.479722261428833, -2.408118486404419, 1.1201171875, -0.392578125, 0.059814453125
127, 2065653139, -6.829736709594727, -0.9226125478744507, 7.120913505554199, -2.4934475421905518, -1.3179653882980347, -2.2548906803131104, 1.12109375, -0.3916015625, 0.06103515625
128, 2065669806, -6.8200297355651855, -0.9206683039665222, 7.119034290313721, -2.5214040279388428, -1.5041826963424683, -2.33284330368042, 1.1201171875, -0.390625, 0.060791015625
129, 2065686473, -6.812976360321045, -0.9157612323760986, 7.0977654457092285, -2.472752571105957, -1.4933613538742065, -2.3081014156341553, 1.1201171875, -0.393310546875, 0.060302734375
130, 2065703140, -6.833578586578369, -0.9174907803535461, 7.113300323486328, -2.436331272125244, -1.533445119857788, -2.188720464706421, 1.12109375, -0.392822265625, 0.059326171875
131, 2065719807, -6.827042579650879, -0.9161744117736816, 7.106790065765381, -2.4614317417144775, -1.5806878805160522, -2.2681071758270264, 1.12158203125, -0.3916015625, 0.060302734375
132, 2065736474, -6.826639175415039, -0.9246692657470703, 7.124366760253906, -2.3924949169158936, -1.5982580184936523, -2.410590410232544, 1.12109375, -0.3916015625, 0.060546875
133, 2065753141, -6.815571308135986, -0.9370278120040894, 7.08557653427124, -2.458460807800293, -1.509702205657959, -2.2480270862579346, 1.12109375, -0.39013671875, 0.059326171875
134, 2065769808, -6.823111534118652, -0.9267880916595459, 7.097008228302002, -2.360671281814575, -1.56096613407135, -2.217637300491333, 1.1201171875, -0.392822265625, 0.060302734375
135, 2065786475, -6.823662281036377, -0.9251700043678284, 7.105751991271973, -2.3982322216033936, -1.5174369812011719, -2.2628049850463867, 1.121337890625, -0.392822265625, 0.060546875
136, 2065803142, -6.821281909942627, -0.9338821768760681, 7.099350452423096, -2.311239004135132, -1.538477897644043, -2.225180149078369, 1.12060546875, -0.39013671875, 0.059814453125
137, 2065819809, -6.828819751739502, -0.9184086918830872, 7.083390235900879, -2.389613389968872, -1.4875215291976929, -2.1709706783294678, 1.12109375, -0.39111328125, 0.058837890625
138, 2065836476, -6.823422431945801, -0.91341233253479, 7.1061224937438965, -2.4789252281188965, -1.452995777130127, -2.2426352500915527, 1.121826171875, -0.39111328125, 0.058837890625
139, 2065853143, -6.833364009857178, -0.938899576663971, 7.106820583343506, -2.426342248916626, -1.4343113899230957, -2.202090263366699, 1.1201171875, -0.392578125, 0.060302734375
140, 2065869810, -6.817594051361084, -0.9313007593154907, 7.092870235443115, -2.4223976135253906, -1.5246727466583252, -2.2159595489501953, 1.1201171875, -0.3916015625, 0.060791015625
141, 2065886477, -6.826872825622559, -0.9190149307250977, 7.102535724639893, -2.3325493335723877, -1.644915223121643, -2.203392267227173, 1.12060546875, -0.39111328125, 0.060302734375
142, 2065903144, -6.835939407348633, -0.9219918251037598, 7.103308200836182, -2.329193353652954, -1.597246527671814, -2.20666241645813, 1.123779296875, -0.39111328125, 0.059326171875
143, 2065919811, -6.823217391967773, -0.9185730218887329, 7.102298736572266, -2.2942447662353516, -1.608849048614502, -2.219494104385376, 1.121826171875, -0.39111328125, 0.058837890625
144, 2065936478, -6.835973739624023, -0.90320885181427, 7.0793137550354, -2.240445613861084, -1.6277382373809814, -2.272653341293335, 1.122314453125, -0.39208984375, 0.060546875
145, 2065953145, -6.817063331604004, -0.8965678811073303, 7.100663185119629, -2.285677433013916, -1.5858615636825562, -2.2212486267089844, 1.121337890625, -0.392578125, 0.059326171875
146, 2065969812, -6.834338188171387, -0.9314025640487671, 7.113719940185547, -2.315298080444336, -1.60720956325531, -2.147970676422119, 1.121826171875, -0.39208984375, 0.06005859375
147, 2065986479, -6.816678524017334, -0.9203783273696899, 7.108208179473877, -2.3858871459960938, -1.541513204574585, -2.194035291671753, 1.121337890625, -0.392578125, 0.059814453125
148, 2066003146, -6.812063217163086, -0.9144381880760193, 7.100000858306885, -2.3651793003082275, -1.629287838935852, -2.1636838912963867, 1.122314453125, -0.39208984375, 0.060546875
149, 2066019813, -6.825582981109619, -0.9095492959022522, 7.081773281097412, -2.2943472862243652, -1.5868477821350098, -2.138007640838623, 1.1201171875, -0.3896484375, 0.0615234375
150, 2066036480, -6.833402633666992, -0.9157421588897705, 7.094213962554932, -2.3222010135650635, -1.6971230506896973, -2.1298623085021973, 1.12060546875, -0.3916015625, 0.057861328125
151, 2066053147, -6.827845573425293, -0.912052571773529, 7.1068525314331055, -2.2519071102142334, -1.5269137620925903, -2.1462929248809814, 1.119140625, -0.39111328125, 0.061279296875
152, 2066069814, -6.828453063964844, -0.9182758331298828, 7.116323471069336, -2.3579304218292236, -1.5118407011032104, -2.165348529815674, 1.121826171875, -0.39208984375, 0.06298828125
153, 2066086481, -6.826481342315674, -0.9242539405822754, 7.122158527374268, -2.3783183097839355, -1.4559026956558228, -2.165463924407959, 1.12109375, -0.3916015625, 0.059326171875
154, 2066103148, -6.82350492477417, -0.9196687936782837, 7.100881576538086, -2.3564326763153076, -1.6027148962020874, -2.160200834274292, 1.122802734375, -0.39208984375, 0.059326171875
155, 2066119815, -6.821935176849365, -0.9092752933502197, 7.114110946655273, -2.2655587196350098, -1.6818068027496338, -2.1543097496032715, 1.122314453125, -0.392822265625, 0.058349609375
156, 2066136482, -6.818905830383301, -0.9111648201942444, 7.117274284362793, -2.3272593021392822, -1.6210788488388062, -2.130387544631958, 1.122802734375, -0.392822265625, 0.056396484375
157, 2066153149, -6.828457355499268, -0.9119468927383423, 7.092832565307617, -2.3012115955352783, -1.5673949718475342, -2.162454843521118, 1.121826171875, -0.39111328125, 0.060302734375
158, 2066169816, -6.809617519378662, -0.9062107801437378, 7.093379974365234, -2.4146502017974854, -1.6026251316070557, -2.245593547821045, 1.12060546875, -0.392578125, 0.0625
159, 2066186483, -6.827517986297607, -0.9291989207267761, 7.088470935821533, -2.3683295249938965, -1.549696445465088, -2.226857900619507, 1.120849609375, -0.393310546875, 0.06005859375
160, 2066203150, -6.81634521484375, -0.9264945983886719, 7.105885028839111, -2.3743484020233154, -1.5540376901626587, -2.2355403900146484, 1.1201171875, -0.393798828125, 0.059814453125
161, 2066219817, -6.813812732696533, -0.9066356420516968, 7.104811668395996, -2.310880184173584, -1.554537057876587, -2.217726707458496, 1.122314453125, -0.392578125, 0.05517578125
162, 2066236484, -6.812911033630371, -0.9291306138038635, 7.10412073135376, -2.3044002056121826, -1.578613042831421, -2.183213949203491, 1.12158203125, -0.39208984375, 0.059814453125
163, 2066253151, -6.827737808227539, -0.9159143567085266, 7.117422580718994, -2.2764055728912354, -1.618274450302124, -2.2800557613372803, 1.122314453125, -0.392578125, 0.058349609375
164, 2066269818, -6.8336968421936035, -0.9245408177375793, 7.119808197021484, -2.2872016429901123, -1.6332194805145264, -2.2326207160949707, 1.1201171875, -0.392578125, 0.060546875
165, 2066286485, -6.814791202545166, -0.904015839099884, 7.108749866485596, -2.3380424976348877, -1.7222365140914917, -2.277609348297119, 1.12109375, -0.39111328125, 0.058349609375
166, 2066303152, -6.820714473724365, -0.9258074164390564, 7.100065231323242, -2.25850248336792, -1.6957401037216187, -2.175786256790161, 1.11962890625, -0.39111328125, 0.058837890625
167, 2066319819, -6.820353984832764, -0.915878415107727, 7.123110771179199, -2.231839418411255, -1.796654224395752, -2.2273061275482178, 1.12109375, -0.3916015625, 0.058349609375
168, 2066336486, -6.818310737609863, -0.9027664661407471, 7.125848293304443, -2.2099406719207764, -1.8251609802246094, -2.1689860820770264, 1.122314453125, -0.39111328125, 0.06005859375
169, 2066353153, -6.813297748565674, -0.89628005027771, 7.116549968719482, -2.27982497215271, -1.6452957391738892, -2.1808831691741943, 1.122314453125, -0.392822265625, 0.059326171875
170, 2066369820, -6.817601680755615, -0.9103130102157593, 7.12498664855957, -2.371467351913452, -1.6037778854370117, -2.217125415802002, 1.12109375, -0.39111328125, 0.058837890625
171, 2066386487, -6.815515518188477, -0.9042222499847412, 7.135631561279297, -2.392085552215576, -1.4818483591079712, -2.212207317352295, 1.12109375, -0.390625, 0.060302734375
172, 2066403154, -6.8113322257995605, -0.9054619669914246, 7.0999755859375, -2.5016183853149414, -1.4577341079711914, -2.2633047103881836, 1.12109375, -0.392578125, 0.058349609375
173, 2066419821, -6.817652702331543, -0.9152218103408813, 7.114132404327393, -2.4510843753814697, -1.4448894262313843, -2.3254024982452393, 1.11962890625, -0.394287109375, 0.057861328125
174, 2066436488, -6.827114105224609, -0.9268797039985657, 7.10457706451416, -2.430645227432251, -1.567445993423462, -2.349760055541992, 1.121826171875, -0.392822265625, 0.057861328125
175, 2066453155, -6.8296380043029785, -0.9066807627677917, 7.120087623596191, -2.4686286449432373, -1.5278102159500122, -2.3804056644439697, 1.121826171875, -0.39208984375, 0.059326171875
176, 2066469822, -6.812356948852539, -0.9195332527160645, 7.107682704925537, -2.4237172603607178, -1.5256333351135254, -2.320024013519287, 1.12158203125, -0.39208984375, 0.059814453125
177, 2066486489, -6.808627128601074, -0.9180576801300049, 7.101580619812012, -2.4018917083740234, -1.6083042621612549, -2.365293502807617, 1.12158203125, -0.39208984375, 0.058349609375
178, 2066503156, -6.816415786743164, -0.9094624519348145, 7.104014873504639, -2.3789844512939453, -1.5473401546478271, -2.3350586891174316, 1.1220703125, -0.390625, 0.056884765625
179, 2066519823, -6.818200588226318, -0.9125420451164246, 7.104878902435303, -2.397656202316284, -1.4794663190841675, -2.3446249961853027, 1.122314453125, -0.390625, 0.055908203125
180, 2066536490, -6.823418617248535, -0.9207369089126587, 7.099123477935791, -2.4692821502685547, -1.4334659576416016, -2.2914531230926514, 1.121826171875, -0.39208984375, 0.059326171875
181, 2066553157, -6.81660795211792, -0.9217795729637146, 7.106349945068359, -2.4446680545806885, -1.448129415512085, -2.2943344116210938, 1.11962890625, -0.3916015625, 0.058837890625
182, 2066569824, -6.818443298339844, -0.919095516204834, 7.106814384460449, -2.4486894607543945, -1.5563174486160278, -2.254903793334961, 1.12109375, -0.390625, 0.060546875
183, 2066586491, -6.819941997528076, -0.9245187044143677, 7.111608505249023, -2.413036346435547, -1.582326889038086, -2.299098253250122, 1.119140625, -0.393310546875, 0.059814453125
184, 2066603158, -6.80911111831665, -0.9232538938522339, 7.1088643074035645, -2.392930507659912, -1.6652354001998901, -2.334674596786499, 1.1201171875, -0.392822265625, 0.059814453125
185, 2066619825, -6.804304122924805, -0.9310266971588135, 7.115333557128906, -2.312340259552002, -1.5389902591705322, -2.213923215866089, 1.121337890625, -0.392822265625, 0.056884765625
186, 2066636492, -6.827179908752441, -0.9144281148910522, 7.104889869689941, -2.365115165710449, -1.5087162256240845, -2.277660608291626, 1.12109375, -0.39208984375, 0.059814453125
187, 2066653159, -6.8158698081970215, -0.9123769402503967, 7.0885114669799805, -2.3154008388519287, -1.4741902351379395, -2.2957048416137695, 1.119140625, -0.392822265625, 0.058349609375
188, 2066669826, -6.8115315437316895, -0.9129601120948792, 7.103547096252441, -2.3929944038391113, -1.4572088718414307, -2.1798455715179443, 1.12158203125, -0.390625, 0.056396484375
189, 2066686493, -6.8268938064575195, -0.8836185336112976, 7.100029945373535, -2.3944671154022217, -1.4890966415405273, -2.2779037952423096, 1.11962890625, -0.393310546875, 0.060302734375
190, 2066703160, -6.816955089569092, -0.9145843386650085, 7.1125617027282715, -2.50630521774292, -1.4400484561920166, -2.275918960571289, 1.12109375, -0.393310546875, 0.058349609375
191, 2066719827, -6.838573455810547, -0.9204232096672058, 7.113415241241455, -2.4448862075805664, -1.5040161609649658, -2.223093032836914, 1.122314453125, -0.3916015625, 0.057373046875
192, 2066736494, -6.807391166687012, -0.9101839661598206, 7.118163108825684, -2.3896520137786865, -1.5354686975479126, -2.1308486461639404, 1.12060546875, -0.39111328125, 0.056884765625
193, 2066753161, -6.811654090881348, -0.9093651175498962, 7.112112522125244, -2.443528413772583, -1.4624851942062378, -2.1928701400756836, 1.12109375, -0.39208984375, 0.058837890625
194, 2066769828, -6.826686859130859, -0.9041264653205872, 7.117885112762451, -2.511735200881958, -1.394688367843628, -2.2621264457702637, 1.12109375, -0.3916015625, 0.058837890625
195, 2066786495, -6.812753200531006, -0.9145527482032776, 7.108238220214844, -2.432835102081299, -1.4831289052963257, -2.2834105491638184, 1.12109375, -0.393310546875, 0.058837890625
196, 2066803162, -6.813508033752441, -0.9468709230422974, 7.085112571716309, -2.4145987033843994, -1.4033068418502808, -2.1828677654266357, 1.12158203125, -0.39111328125, 0.057861328125
197, 2066819829, -6.816788196563721, -0.9218502640724182, 7.108046531677246, -2.37026309967041, -1.580994963645935, -2.0909950733184814, 1.12060546875, -0.3916015625, 0.057373046875
198, 2066836496, -6.806598663330078, -0.9153957366943359, 7.098600387573242, -2.3991668224334717, -1.5465716123580933, -2.2459263801574707, 1.121826171875, -0.39208984375, 0.057861328125
199, 2066853163, -6.797427654266357, -0.9060894250869751, 7.12891149520874, -2.4124984741210938, -1.4559667110443115, -2.225116014480591, 1.12109375, -0.392578125, 0.057373046875
200, 2066869830, -6.826570987701416, -0.919173002243042, 7.103586196899414, -2.474353551864624, -1.3102562427520752, -2.3238019943237305, 1.11962890625, -0.390625, 0.059814453125
201, 2066886497, -6.816521167755127, -0.9118375182151794, 7.113832950592041, -2.5044610500335693, -1.339505910873413, -2.3271443843841553, 1.12109375, -0.392578125, 0.058349609375
202, 2066903164, -6.802754878997803, -0.938575804233551, 7.109212398529053, -2.45365834236145, -1.398094892501831, -2.1951494216918945, 1.12158203125, -0.3916015625, 0.057373046875
203, 2066919831, -6.803152084350586, -0.9146270155906677, 7.106322288513184, -2.487799644470215, -1.3562947511672974, -2.1294524669647217, 1.122802734375, -0.390625, 0.058349609375
204, 2066936498, -6.816228866577148, -0.916051983833313, 7.137966632843018, -2.545748233795166, -1.2274117469787598, -2.219557762145996, 1.12158203125, -0.39208984375, 0.058837890625
205, 2066953165, -6.826802730560303, -0.9122108817100525, 7.109555721282959, -2.538986921310425, -1.1177382469177246, -2.2336068153381348, 1.12109375, -0.3916015625, 0.058837890625
206, 2066969832, -6.806857109069824, -0.8971720933914185, 7.105449676513672, -2.6246485710144043, -1.0893208980560303, -2.309817314147949, 1.12060546875, -0.392578125, 0.06103515625
207, 2066986499, -6.8192901611328125, -0.914657711982727, 7.075899600982666, -2.708338499069214, -1.2280651330947876, -2.4320411682128906, 1.1201171875, -0.393798828125, 0.059326171875
208, 2067003166, -6.832574367523193, -0.9315776228904724, 7.108201503753662, -2.8262078762054443, -1.8616976737976074, -2.5434179306030273, 1.122314453125, -0.392822265625, 0.057861328125
209, 2067019833, -6.822929382324219, -0.9238856434822083, 7.094437599182129, -2.4457180500030518, -1.5078580379486084, -2.26216459274292, 1.122314453125, -0.39111328125, 0.059326171875
210, 2067036500, -6.823792934417725, -0.9162061214447021, 7.0979509353637695, -2.40078067779541, -1.515669822692871, -2.189821720123291, 1.12158203125, -0.39208984375, 0.059814453125
211, 2067053167, -6.823495864868164, -0.9243685007095337, 7.130598545074463, -2.4221031665802, -1.5113542079925537, -2.2256155014038086, 1.122802734375, -0.390625, 0.058837890625
212, 2067069834, -6.825752258300781, -0.9117339849472046, 7.092531681060791, -2.403790235519409, -1.5344696044921875, -2.1447432041168213, 1.1201171875, -0.39208984375, 0.059326171875
213, 2067086501, -6.824387073516846, -0.9063161611557007, 7.111328601837158, -2.3337018489837646, -1.458978295326233, -2.163195848464966, 1.1201171875, -0.39111328125, 0.059326171875
214, 2067103168, -6.82823371887207, -0.9048249125480652, 7.104041576385498, -2.2809901237487793, -1.4566198587417603, -2.2487308979034424, 1.11962890625, -0.393310546875, 0.058837890625
215, 2067119835, -6.814205169677734, -0.9080284833908081, 7.081998825073242, -2.264982223510742, -1.5916755199432373, -2.1916913986206055, 1.12109375, -0.392578125, 0.056396484375
216, 2067136502, -6.823017597198486, -0.9104695916175842, 7.081201076507568, -2.292003870010376, -1.6985831260681152, -2.1694982051849365, 1.122314453125, -0.392578125, 0.059814453125
217, 2067153169, -6.812677383422852, -0.912228524684906, 7.0996317863464355, -2.241405725479126, -1.6268419027328491, -2.1331920623779297, 1.121826171875, -0.392822265625, 0.059326171875
218, 2067169836, -6.8213701248168945, -0.9108690023422241, 7.109748363494873, -2.267927646636963, -1.611807107925415, -2.1295294761657715, 1.1181640625, -0.3916015625, 0.061279296875
219, 2067186503, -6.814487934112549, -0.9087313413619995, 7.122307777404785, -2.34379243850708, -1.475035309791565, -2.1799352169036865, 1.120849609375, -0.395263671875, 0.06005859375
220, 2067203170, -6.82321310043335, -0.9223336577415466, 7.079724311828613, -2.4190680980682373, -1.4474760293960571, -2.222003936767578, 1.122802734375, -0.3916015625, 0.0615234375
221, 2067219837, -6.826390266418457, -0.9169895052909851, 7.109393119812012, -2.366485595703125, -1.7010035514831543, -2.2148070335388184, 1.12158203125, -0.3916015625, 0.059326171875
222, 2067236504, -6.828492641448975, -0.9300928115844727, 7.101221561431885, -2.1611225605010986, -1.9172388315200806, -2.1895272731781006, 1.121826171875, -0.392822265625, 0.059814453125
223, 2067253171, -6.835725784301758, -0.9214746356010437, 7.100409030914307, -2.0630006790161133, -2.0491697788238525, -2.0847585201263428, 1.12109375, -0.3916015625, 0.058837890625
224, 2067269838, -6.816429138183594, -0.9093784093856812, 7.1066765785217285, -2.063973903656006, -2.089970588684082, -2.116544008255005, 1.11962890625, -0.393310546875, 0.059326171875
225, 2067286505, -6.813639163970947, -0.8866016268730164, 7.100265979766846, -2.2024874687194824, -1.9387407302856445, -2.1635689735412598, 1.121337890625, -0.394775390625, 0.059814453125
226, 2067303172, -6.822103023529053, -0.8814812898635864, 7.117917060852051, -2.2675180435180664, -1.8043251037597656, -2.382122039794922, 1.120849609375, -0.394287109375, 0.058837890625
227, 2067319839, -6.819868087768555, -0.9114804267883301, 7.088833332061768, -2.3406295776367188, -1.6543242931365967, -2.409911870956421, 1.121826171875, -0.392822265625, 0.057861328125
228, 2067336506, -6.837419509887695, -0.9040845036506653, 7.109774112701416, -2.348006010055542, -1.5485823154449463, -2.4201316833496094, 1.121826171875, -0.393798828125, 0.059326171875
229, 2067353173, -6.807704448699951, -0.9169989824295044, 7.115178108215332, -2.387155294418335, -1.4933229684829712, -2.4500086307525635, 1.1201171875, -0.393310546875, 0.056884765625
230, 2067369840, -6.817678928375244, -0.9120160341262817, 7.126710891723633, -2.4660167694091797, -1.5457011461257935, -2.4595751762390137, 1.12060546875, -0.39111328125, 0.058349609375
231, 2067386507, -6.8112311363220215, -0.9237657189369202, 7.092388153076172, -2.471318244934082, -1.4111188650131226, -2.481499433517456, 1.119140625, -0.392822265625, 0.059814453125
232, 2067403174, -6.812896251678467, -0.922366738319397, 7.089372158050537, -2.572155475616455, -1.3464471101760864, -2.547708511352539, 1.121826171875, -0.392578125, 0.059326171875
233, 2067419841, -6.807295322418213, -0.9229440093040466, 7.099701881408691, -2.523632526397705, -1.3032256364822388, -2.5560455322265625, 1.12060546875, -0.3916015625, 0.058837890625
234, 2067436508, -6.817414283752441, -0.9069040417671204, 7.111073017120361, -2.599881172180176, -1.379756212234497, -2.4400198459625244, 1.122314453125, -0.392822265625, 0.057373046875
235, 2067453175, -6.80239200592041, -0.9186285734176636, 7.118039608001709, -2.588484048843384, -1.3851094245910645, -2.502847909927368, 1.119140625, -0.3916015625, 0.06103515625
236, 2067469842, -6.812066078186035, -0.9135375618934631, 7.1160054206848145, -2.6474316120147705, -1.3933823108673096, -2.507829427719116, 1.11962890625, -0.390625, 0.058837890625
237, 2067486509, -6.802694797515869, -0.9252293109893799, 7.1168107986450195, -2.652336359024048, -1.4153069257736206, -2.51138973236084, 1.12109375, -0.3916015625, 0.059326171875
238, 2067503176, -6.8159637451171875, -0.915301501750946, 7.115217685699463, -2.5468883514404297, -1.410568118095398, -2.3885250091552734, 1.122314453125, -0.3916015625, 0.057861328125
239, 2067519843, -6.795253753662109, -0.9383619427680969, 7.110711574554443, -2.6001760959625244, -1.302303433418274, -2.4008963108062744, 1.12109375, -0.39111328125, 0.056884765625
240, 2067536510, -6.825878143310547, -0.9077218174934387, 7.107448577880859, -2.7007570266723633, -1.2495157718658447, -2.497699737548828, 1.12158203125, -0.3916015625, 0.059326171875
241, 2067553177, -6.825124740600586, -0.8971548676490784, 7.103696346282959, -2.7237446308135986, -1.281506061553955, -2.656165361404419, 1.11865234375, -0.392578125, 0.059814453125
242, 2067569844, -6.8342061042785645, -0.9155606627464294, 7.112059593200684, -2.8480422496795654, -1.17219078540802, -2.743375778198242, 1.11767578125, -0.39208984375, 0.0615234375
243, 2067586511, -6.828440189361572, -0.9044613838195801, 7.118988513946533, -2.833827495574951, -1.2349931001663208, -2.8470308780670166, 1.12109375, -0.390625, 0.060546875
244, 2067603178, -6.827244281768799, -0.9169859290122986, 7.1170196533203125, -2.814835786819458, -1.3387246131896973, -2.936662435531616, 1.12109375, -0.3896484375, 0.058349609375
245, 2067619845, -6.825897216796875, -0.9528734087944031, 7.114979267120361, -2.8102896213531494, -1.3620578050613403, -2.973672866821289, 1.122314453125, -0.3916015625, 0.056884765625
246, 2067636512, -6.822931289672852, -0.9319866299629211, 7.110537528991699, -2.907400369644165, -1.3689604997634888, -2.9304516315460205, 1.1220703125, -0.390625, 0.057373046875
247, 2067653179, -6.825730323791504, -0.9534136056900024, 7.089415073394775, -2.853344678878784, -1.4273062944412231, -2.911703109741211, 1.121826171875, -0.39111328125, 0.058349609375
248, 2067669846, -6.811214447021484, -0.9284082651138306, 7.111978054046631, -2.7444262504577637, -1.441495418548584, -2.811966896057129, 1.11962890625, -0.38916015625, 0.061279296875
249, 2067686513, -6.821258544921875, -0.9352731704711914, 7.122598171234131, -2.8760693073272705, -1.3917361497879028, -2.8505094051361084, 1.12109375, -0.39111328125, 0.0615234375
250, 2067703180, -6.81721830368042, -0.9496885538101196, 7.1244730949401855, -3.003293991088867, -1.3306695222854614, -3.0073792934417725, 1.12060546875, -0.39111328125, 0.058837890625
251, 2067719847, -6.820940017700195, -0.9515390992164612, 7.079501628875732, -2.815232992172241, -1.562746286392212, -2.751291036605835, 1.1201171875, -0.38916015625, 0.058837890625
252, 2067736514, -6.819990158081055, -0.9553617238998413, 7.088640213012695, -2.656447172164917, -1.5893194675445557, -2.5921847820281982, 1.123046875, -0.387451171875, 0.058349609375
253, 2067753181, -6.826497554779053, -0.9425345659255981, 7.101255893707275, -2.631666898727417, -1.6244728565216064, -2.60823130607605, 1.1220703125, -0.3896484375, 0.059814453125
254, 2067769848, -6.827162265777588, -0.9383072853088379, 7.108219146728516, -2.769782543182373, -1.4908767938613892, -2.735628128051758, 1.12109375, -0.390625, 0.060546875
255, 2067786515, -6.800067901611328, -0.9386115670204163, 7.098021984100342, -2.779118537902832, -1.5001869201660156, -2.6939821243286133, 1.12158203125, -0.38818359375, 0.06201171875
256, 2067803182, -6.834864139556885, -0.9525604844093323, 7.115818023681641, -2.6920101642608643, -1.517411708831787, -2.6150567531585693, 1.12109375, -0.388671875, 0.060791015625
257, 2067819849, -6.815412998199463, -0.9566686153411865, 7.094169616699219, -2.621422052383423, -1.6144968271255493, -2.515078067779541, 1.123779296875, -0.38818359375, 0.058349609375
258, 2067836516, -6.809595584869385, -0.9458567500114441, 7.100931644439697, -2.577918767929077, -1.6317470073699951, -2.463096857070923, 1.11962890625, -0.388671875, 0.060302734375
259, 2067853183, -6.801212310791016, -0.9445449113845825, 7.096513748168945, -2.480065107345581, -1.6365364789962769, -2.440967559814453, 1.1201171875, -0.38818359375, 0.060791015625
260, 2067869850, -6.807700157165527, -0.9587189555168152, 7.12067174911499, -2.46645188331604, -1.675608515739441, -2.340924024581909, 1.1220703125, -0.390625, 0.059814453125
261, 2067886517, -6.8158278465271, -0.9615724682807922, 7.114311695098877, -2.3762567043304443, -1.8457664251327515, -2.2229135036468506, 1.12109375, -0.388671875, 0.060302734375
262, 2067903184, -6.818629264831543, -0.9509651064872742, 7.088048458099365, -2.2401633262634277, -1.746017575263977, -2.1044929027557373, 1.12060546875, -0.38818359375, 0.058349609375
263, 2067919851, -6.820440769195557, -0.9619096517562866, 7.114618301391602, -2.203883171081543, -1.7284729480743408, -2.12546968460083, 1.1220703125, -0.3876953125, 0.056884765625
264, 2067936518, -6.809906482696533, -0.9620789885520935, 7.115992546081543, -2.2592320442199707, -1.6635318994522095, -2.0410375595092773, 1.12158203125, -0.38916015625, 0.057861328125
265, 2067953185, -6.794439792633057, -0.9560877084732056, 7.128877639770508, -2.1777708530426025, -1.6646461486816406, -2.1348695755004883, 1.12109375, -0.388671875, 0.059814453125
266, 2067969852, -6.798941612243652, -0.968241810798645, 7.118916034698486, -2.2175092697143555, -1.6981861591339111, -2.0942351818084717, 1.12109375, -0.3876953125, 0.060302734375
267, 2067986519, -6.806371212005615, -0.9418545365333557, 7.110199451446533, -2.164990186691284, -1.6380218267440796, -2.108258008956909, 1.12060546875, -0.39013671875, 0.057861328125
268, 2068003186, -6.811209678649902, -0.9607053399085999, 7.114181041717529, -2.2730371952056885, -1.5713773965835571, -2.2216451168060303, 1.1220703125, -0.387451171875, 0.057373046875
269, 2068019853, -6.809266090393066, -0.9441437721252441, 7.107202529907227, -2.3819167613983154, -1.5328559875488281, -2.279069185256958, 1.12255859375, -0.388671875, 0.056884765625
270, 2068036520, -6.804616928100586, -0.9367378354072571, 7.1066155433654785, -2.390906810760498, -1.5501190423965454, -2.2773659229278564, 1.12158203125, -0.388671875, 0.058349609375
271, 2068053187, -6.817480564117432, -0.9424446821212769, 7.106671333312988, -2.4901180267333984, -1.5033247470855713, -2.2828214168548584, 1.12158203125, -0.38818359375, 0.059814453125
272, 2068069854, -6.818482398986816, -0.9384603500366211, 7.129623889923096, -2.6034672260284424, -1.4063680171966553, -2.4257919788360596, 1.12109375, -0.388671875, 0.057861328125
273, 2068086521, -6.815774917602539, -0.9352739453315735, 7.127174377441406, -2.86757230758667, -1.1931419372558594, -2.7308387756347656, 1.1201171875, -0.38916015625, 0.058837890625
274, 2068103188, -6.8280816078186035, -0.9573644995689392, 7.115725040435791, -3.34945011138916, -0.914360761642456, -2.992319345474243, 1.12109375, -0.38818359375, 0.0615234375
275, 2068119855, -6.818909168243408, -0.9573751091957092, 7.101688861846924, -3.3236641883850098, -0.8796618580818176, -3.0899484157562256, 1.12109375, -0.38818359375, 0.05517578125
276, 2068136522, -6.8198418617248535, -0.9636398553848267, 7.106793403625488, -3.120920181274414, -1.0062333345413208, -2.935445547103882, 1.12158203125, -0.38916015625, 0.059326171875
277, 2068153189, -6.806427955627441, -0.9863444566726685, 7.083348274230957, -2.8642687797546387, -1.2235443592071533, -2.5824007987976074, 1.1220703125, -0.386474609375, 0.06103515625
278, 2068169856, -6.824213027954102, -0.9737662672996521, 7.082546710968018, -2.6391329765319824, -1.3627110719680786, -2.398834705352783, 1.12109375, -0.388671875, 0.059814453125
279, 2068186523, -6.832856178283691, -0.9625520706176758, 7.0762481689453125, -2.4474985599517822, -1.501570224761963, -2.3216891288757324, 1.11865234375, -0.3876953125, 0.057861328125
280, 2068203190, -6.821796894073486, -0.9666355848312378, 7.087319374084473, -2.3944931030273438, -1.5234307050704956, -2.2815282344818115, 1.12158203125, -0.3876953125, 0.060791015625
281, 2068219857, -6.818775177001953, -0.9544477462768555, 7.104278564453125, -2.420015811920166, -1.3726868629455566, -2.185493230819702, 1.12158203125, -0.386962890625, 0.058837890625
282, 2068236524, -6.814627170562744, -0.9567121267318726, 7.1115288734436035, -2.437201976776123, -1.305543303489685, -2.2145636081695557, 1.12158203125, -0.386962890625, 0.057861328125
283, 2068253191, -6.8193206787109375, -0.9740881323814392, 7.0845160484313965, -2.2900569438934326, -1.2505784034729004, -2.1305794715881348, 1.12158203125, -0.38818359375, 0.057861328125
284, 2068269858, -6.8245768547058105, -0.963320791721344, 7.070571422576904, -2.3710827827453613, -1.5202417373657227, -2.019766092300415, 1.12158203125, -0.386474609375, 0.06103515625
285, 2068286525, -6.82054328918457, -0.9514748454093933, 7.1244354248046875, -2.319411039352417, -1.5760084390640259, -1.9892574548721313, 1.1181640625, -0.39013671875, 0.0625
286, 2068303192, -6.815519332885742, -0.9538599848747253, 7.112131595611572, -2.2800168991088867, -1.6055704355239868, -2.013798475265503, 1.12060546875, -0.38818359375, 0.058837890625
287, 2068319859, -6.8156023025512695, -0.9458447098731995, 7.091034889221191, -2.4260478019714355, -1.5110467672348022, -2.0623984336853027, 1.1220703125, -0.387451171875, 0.058349609375
288, 2068336526, -6.827808856964111, -0.9427732825279236, 7.107525825500488, -2.5324809551239014, -1.4367953538894653, -2.3046817779541016, 1.1201171875, -0.386962890625, 0.056884765625
289, 2068353193, -6.814984321594238, -0.9852603673934937, 7.0858283042907715, -2.5127339363098145, -1.395828127861023, -2.3322925567626953, 1.12109375, -0.3896484375, 0.058349609375
290, 2068369860, -6.820940017700195, -0.9492188692092896, 7.10313081741333, -2.585256338119507, -1.5183976888656616, -2.2774300575256348, 1.1201171875, -0.387451171875, 0.06201171875
291, 2068386527, -6.818194389343262, -0.9673349857330322, 7.107499599456787, -2.5366945266723633, -1.4610379934310913, -2.332087516784668, 1.12060546875, -0.388671875, 0.059326171875
292, 2068403194, -6.81390905380249, -0.9828141331672668, 7.081387042999268, -2.471574306488037, -1.5501958131790161, -2.2826547622680664, 1.12158203125, -0.3876953125, 0.0615234375
293, 2068419861, -6.814237117767334, -0.9694211483001709, 7.08522367477417, -2.3721461296081543, -1.7102241516113281, -2.0826070308685303, 1.12060546875, -0.388671875, 0.059326171875
294, 2068436528, -6.816989898681641, -0.9530553817749023, 7.080214023590088, -2.226217269897461, -1.664133906364441, -2.101163148880005, 1.123291015625, -0.387451171875, 0.059814453125
295, 2068453195, -6.821468830108643, -0.9396051168441772, 7.1315202713012695, -2.1934971809387207, -1.5469173192977905, -2.040973424911499, 1.1220703125, -0.38916015625, 0.06103515625
296, 2068469862, -6.819781303405762, -0.9556961059570312, 7.12626838684082, -2.3532309532165527, -1.2299729585647583, -2.090085983276367, 1.12060546875, -0.386962890625, 0.059814453125
297, 2068486529, -6.815404891967773, -0.9562981128692627, 7.1216254234313965, -2.209505081176758, -1.0402213335037231, -1.8684464693069458, 1.12158203125, -0.38818359375, 0.060791015625
298, 2068503196, -6.810769081115723, -0.9867563843727112, 7.088973045349121, -1.7823877334594727, -1.2534599304199219, -1.4302386045455933, 1.12158203125, -0.388671875, 0.060302734375
299, 2068519863, -6.814568042755127, -0.9436357617378235, 7.085502624511719, -1.7135279178619385, -1.1713200807571411, -1.2025929689407349, 1.1220703125, -0.3876953125, 0.060791015625
300, 2068536530, -6.827295303344727, -0.8966066241264343, 7.11784029006958, -1.879562258720398, -0.8317211866378784, -1.3417084217071533, 1.12158203125, -0.388671875, 0.058837890625
301, 2068553197, -6.810842990875244, -0.9704367518424988, 7.122170925140381, -2.050706386566162, -0.5027901530265808, -1.3897963762283325, 1.1201171875, -0.39013671875, 0.059814453125
302, 2068569864, -6.829413890838623, -0.9383412599563599, 7.089913368225098, -2.16746187210083, -0.4143110513687134, -1.4225422143936157, 1.1220703125, -0.3896484375, 0.0634765625
303, 2068586531, -6.831669330596924, -0.9703372716903687, 7.07371711730957, -1.901012897491455, -0.7976946830749512, -1.2046676874160767, 1.1201171875, -0.388671875, 0.0615234375
304, 2068603198, -6.852718830108643, -0.9683966636657715, 7.075658321380615, -1.386479377746582, -1.2357100248336792, -0.720459520816803, 1.122314453125, -0.3916015625, 0.058837890625
305, 2068619865, -6.854617595672607, -0.9461990594863892, 7.082276821136475, -1.3562692403793335, -1.520037055015564, -0.5176198482513428, 1.122802734375, -0.3896484375, 0.06005859375
306, 2068636532, -6.835704803466797, -0.9237732887268066, 7.098711967468262, -1.4982789754867554, -1.7127468585968018, -0.7955304980278015, 1.123291015625, -0.3916015625, 0.0595703125
307, 2068653199, -6.841917037963867, -0.9391142725944519, 7.059055805206299, -1.6055961847305298, -1.9212725162506104, -1.0181560516357422, 1.121337890625, -0.39208984375, 0.060302734375
308, 2068669866, -6.854522228240967, -0.9313315153121948, 7.067119121551514, -1.7204177379608154, -2.469409942626953, -1.2479147911071777, 1.121826171875, -0.392578125, 0.060546875
309, 2068686533, -6.847379207611084, -1.0004018545150757, 7.035790920257568, -1.6089385747909546, -2.899190902709961, -1.1469494104385376, 1.1201171875, -0.392822265625, 0.060302734375
310, 2068703200, -6.834167957305908, -0.9862193465232849, 7.087281703948975, -1.3830984830856323, -3.133521556854248, -0.66389399766922, 1.12109375, -0.39111328125, 0.058837890625
311, 2068719867, -6.804445743560791, -0.9166341423988342, 7.114587783813477, -1.2970528602600098, -3.3323404788970947, -0.2857224643230438, 1.121826171875, -0.392822265625, 0.057373046875
312, 2068736534, -6.790153503417969, -0.8088599443435669, 7.165974140167236, -1.3739804029464722, -3.1022229194641113, -0.47832995653152466, 1.123291015625, -0.392822265625, 0.055908203125
313, 2068753201, -6.794488906860352, -0.9041572213172913, 7.08065128326416, -1.4252313375473022, -3.183414936065674, -0.48137781023979187, 1.121337890625, -0.394775390625, 0.06005859375
314, 2068769868, -6.783100605010986, -0.7088672518730164, 7.129195213317871, -1.850082278251648, -5.4450554847717285, -1.7030397653579712, 1.1201171875, -0.395263671875, 0.059326171875
315, 2068786535, -6.7310333251953125, -0.1902623176574707, 7.316671371459961, -4.443906784057617, -6.292349815368652, -5.647089004516602, 1.11962890625, -0.394287109375, 0.057861328125
316, 2068803202, -6.69550895690918, -0.20099233090877533, 7.317915439605713, -10.357695579528809, -4.793959140777588, -11.777934074401855, 1.11962890625, -0.39111328125, 0.056884765625
317, 2068819869, -6.677984714508057, -0.6780740022659302, 7.2655744552612305, -15.361075401306152, -1.453254222869873, -15.45145034790039, 1.12158203125, -0.386962890625, 0.05419921875
318, 2068836536, -6.786257743835449, -1.3395280838012695, 7.061864852905273, -18.022680282592773, 4.389801502227783, -15.040909767150879, 1.117919921875, -0.38134765625, 0.0576171875
319, 2068853203, -6.773989677429199, -2.1375186443328857, 6.796546459197998, -11.927586555480957, 3.287309169769287, -7.589739799499512, 1.118896484375, -0.37890625, 0.05859375
320, 2068869870, -6.753789901733398, -2.013056516647339, 6.728461742401123, -1.1309545040130615, -2.858595371246338, 2.4995501041412354, 1.118408203125, -0.37744140625, 0.061279296875
321, 2068886537, -6.786383152008057, -1.2280136346817017, 7.0665717124938965, 4.568053722381592, -6.924800395965576, 6.723950386047363, 1.118408203125, -0.380859375, 0.059814453125
322, 2068903204, -6.852002143859863, -0.656853973865509, 7.334019184112549, 4.590341091156006, -5.888681411743164, 5.545694828033447, 1.114990234375, -0.384033203125, 0.056640625
323, 2068919871, -6.850052356719971, -0.7540073394775391, 7.1965179443359375, 0.7625476121902466, -3.1681370735168457, 1.3321611881256104, 1.117919921875, -0.383056640625, 0.059814453125
324, 2068936538, -6.819504737854004, -1.2601484060287476, 7.034119129180908, 1.246230959892273, -4.230949401855469, 0.965067446231842, 1.118408203125, -0.382080078125, 0.058837890625
325, 2068953205, -6.850254535675049, -1.3668168783187866, 7.014158248901367, 4.911844253540039, -6.510121822357178, 4.380393981933594, 1.114990234375, -0.383056640625, 0.05908203125
326, 2068969872, -6.814449787139893, -0.9890899658203125, 7.164874076843262, 7.2810750007629395, -8.785968780517578, 6.1460723876953125, 1.114990234375, -0.383056640625, 0.05810546875
327, 2068986539, -6.686935901641846, -1.2166155576705933, 7.225445747375488, 8.866619110107422, -9.47782039642334, 7.679033279418945, 1.11181640625, -0.38720703125, 0.05810546875
328, 2069003206, -6.685338497161865, -1.143248200416565, 7.225839138031006, 10.840055465698242, -10.319342613220215, 9.509742736816406, 1.112548828125, -0.393798828125, 0.050048828125
329, 2069019873, -6.770313262939453, -1.2641980648040771, 7.144272804260254, 12.469887733459473, -11.90971851348877, 11.417140007019043, 1.112548828125, -0.395751953125, 0.04833984375
330, 2069036540, -6.812436103820801, -1.4568885564804077, 7.162712574005127, 14.635416984558105, -15.05636978149414, 14.64467716217041, 1.108154296875, -0.403564453125, 0.0458984375
331, 2069053207, -6.811621189117432, -0.992148756980896, 7.207512378692627, 14.888261795043945, -15.954691886901855, 17.438215255737305, 1.106689453125, -0.40966796875, 0.0439453125
332, 2069069874, -6.740489482879639, -0.3199492394924164, 7.224635124206543, 12.914087295532227, -15.222405433654785, 16.236764907836914, 1.1025390625, -0.413818359375, 0.041259765625
333, 2069086541, -6.5029473304748535, 0.9726042747497559, 7.503599643707275, 7.015318870544434, -12.945541381835938, 8.553811073303223, 1.103271484375, -0.42041015625, 0.038330078125
334, 2069103208, -6.4088969230651855, -0.7542978525161743, 7.43535041809082, 3.2913997173309326, -7.257246017456055, 5.721059799194336, 1.104248046875, -0.42236328125, 0.03564453125
335, 2069119875, -6.491113662719727, -1.3122974634170532, 7.3717041015625, 4.227051734924316, -1.8451653718948364, 11.122814178466797, 1.10400390625, -0.427490234375, 0.03564453125
336, 2069136542, -6.606244087219238, -0.7898147106170654, 7.509151458740234, 5.452123641967773, 2.8886353969573975, 16.5341739654541, 1.099853515625, -0.43115234375, 0.039794921875
337, 2069153209, -6.64072847366333, 0.10007750242948532, 7.489585876464844, 5.034265995025635, 7.164157390594482, 18.635087966918945, 1.10546875, -0.437255859375, 0.041015625
338, 2069169876, -6.577753067016602, 1.0181787014007568, 7.381402015686035, 0.38675859570503235, 11.384748458862305, 13.427721977233887, 1.104736328125, -0.44140625, 0.046630859375
339, 2069186543, -6.609227180480957, 1.5679174661636353, 7.286101818084717, -6.493579864501953, 12.812089920043945, 1.7171214818954468, 1.108154296875, -0.44287109375, 0.05029296875
340, 2069203210, -6.74770975112915, 0.9416952729225159, 7.2061662673950195, -11.26388931274414, 12.02226448059082, -10.900278091430664, 1.10986328125, -0.439453125, 0.052978515625
341, 2069219877, -6.778557777404785, 0.19707827270030975, 7.140995979309082, -13.056035041809082, 8.84549617767334, -17.004968643188477, 1.110595703125, -0.437255859375, 0.052978515625
342, 2069236544, -6.79437255859375, -0.39723503589630127, 7.113810062408447, -13.478492736816406, 5.968161106109619, -18.930112838745117, 1.112548828125, -0.43115234375, 0.053466796875
343, 2069253211, -6.828357696533203, -0.4424035847187042, 7.272069454193115, -12.958535194396973, 2.85640287399292, -17.91921043395996, 1.113525390625, -0.425537109375, 0.056884765625
344, 2069269878, -6.946969032287598, -1.0037471055984497, 7.164944648742676, -11.77695369720459, 0.36361759901046753, -17.011903762817383, 1.113037109375, -0.41943359375, 0.056884765625
345, 2069286545, -6.96450662612915, -1.0948991775512695, 7.059961318969727, -7.7612833976745605, -6.468276023864746, -14.24898624420166, 1.111572265625, -0.4189453125, 0.056884765625
346, 2069303212, -6.742732524871826, -0.9664161205291748, 7.214308261871338, -5.686959743499756, -10.458212852478027, -12.441520690917969, 1.1103515625, -0.414306640625, 0.050537109375
347, 2069319879, -6.628622055053711, -0.6645073294639587, 7.440647602081299, -4.418794631958008, -8.10322093963623, -10.217845916748047, 1.11181640625, -0.412109375, 0.049072265625
348, 2069336546, -6.627347946166992, -0.565177857875824, 7.42538595199585, -5.423529624938965, -2.7045485973358154, -9.552900314331055, 1.109130859375, -0.41015625, 0.0458984375
349, 2069353213, -6.64356803894043, -0.8356948494911194, 7.328186511993408, -5.741716384887695, 0.7530584931373596, -9.003033638000488, 1.11083984375, -0.4091796875, 0.049560546875
350, 2069369880, -6.672513961791992, -0.6828598976135254, 7.204136371612549, -5.05361795425415, 2.1636271476745605, -8.058218955993652, 1.109130859375, -0.406982421875, 0.052490234375
351, 2069386547, -6.754484176635742, -0.8393744230270386, 7.114147663116455, -5.779775619506836, 1.5022428035736084, -7.806650161743164, 1.11181640625, -0.406005859375, 0.051025390625
352, 2069403214, -6.701083660125732, -0.7873340845108032, 7.22775411605835, -6.921027183532715, 1.6516929864883423, -6.947753429412842, 1.11376953125, -0.404541015625, 0.05224609375
353, 2069419881, -6.822610855102539, -0.7300357222557068, 7.167455673217773, -7.930181980133057, 3.2084591388702393, -7.338592052459717, 1.1142578125, -0.406005859375, 0.049560546875
354, 2069436548, -6.755825519561768, -1.3509998321533203, 7.053064346313477, -6.078727722167969, -0.3566441237926483, -6.473905563354492, 1.11474609375, -0.405029296875, 0.052734375
355, 2069453215, -6.694454669952393, -1.1436069011688232, 7.078003883361816, -2.630526542663574, -3.856670618057251, -2.8645241260528564, 1.11376953125, -0.403076171875, 0.051025390625
356, 2069469882, -6.753496170043945, -0.9203688502311707, 7.168491363525391, -1.664018988609314, -4.543693542480469, -1.706971287727356, 1.11279296875, -0.406982421875, 0.049560546875
357, 2069486549, -6.710497856140137, -0.5465985536575317, 7.248465538024902, -1.5015825033187866, -5.063570499420166, -1.6571705341339111, 1.11328125, -0.40771484375, 0.049560546875
358, 2069503216, -6.719089031219482, -0.7396075129508972, 7.288662910461426, -2.64271879196167, -3.8884947299957275, -3.19193172454834, 1.11181640625, -0.40771484375, 0.048095703125
359, 2069519883, -6.732149600982666, -0.7284592390060425, 7.212865352630615, -3.429860830307007, -3.2409160137176514, -3.8419559001922607, 1.11083984375, -0.40771484375, 0.046875
360, 2069536550, -6.735846996307373, -0.6629571318626404, 7.317702293395996, -4.264297008514404, -2.2324929237365723, -3.648350238800049, 1.11328125, -0.40869140625, 0.0439453125
361, 2069553217, -6.805996894836426, -0.8305445313453674, 7.257758617401123, -5.225298881530762, 0.07347644120454788, -3.385935068130493, 1.11328125, -0.406005859375, 0.046630859375
362, 2069569884, -6.814603328704834, -0.8380447030067444, 7.191909313201904, -4.722789764404297, -0.7485439777374268, -2.927659749984741, 1.11328125, -0.406494140625, 0.048095703125
363, 2069586551, -6.769225120544434, -0.6557361483573914, 7.330819606781006, -5.359943866729736, -0.8771582245826721, -4.003931045532227, 1.11279296875, -0.405029296875, 0.047119140625
364, 2069603218, -6.663544654846191, -0.5002814531326294, 7.354833602905273, -6.163492202758789, 0.7899021506309509, -5.035700798034668, 1.11474609375, -0.402587890625, 0.047119140625
365, 2069619885, -6.68356990814209, -0.4554876983165741, 7.292867660522461, -6.897170543670654, 3.6519434452056885, -5.813252925872803, 1.11572265625, -0.402587890625, 0.048095703125
366, 2069636552, -6.778616428375244, -0.7477754950523376, 7.1662373542785645, -7.390918731689453, 5.473673343658447, -6.2954888343811035, 1.1142578125, -0.4013671875, 0.049072265625
367, 2069653219, -6.708673000335693, -0.8617672324180603, 7.136626243591309, -6.661890983581543, 5.101251125335693, -5.886543273925781, 1.11669921875, -0.39990234375, 0.05224609375
368, 2069669886, -6.70151424407959, -0.9880138635635376, 7.0783891677856445, -5.237093448638916, 3.509587049484253, -4.863737106323242, 1.11669921875, -0.39990234375, 0.0537109375
369, 2069686553, -6.694447994232178, -1.1749687194824219, 7.098271369934082, -3.1066412925720215, 1.1399893760681152, -3.1448044776916504, 1.1181640625, -0.3984375, 0.05419921875
370, 2069703220, -6.726466655731201, -1.0190671682357788, 7.110096454620361, -1.7349275350570679, -1.0854406356811523, -1.7956936359405518, 1.1171875, -0.39892578125, 0.055908203125
371, 2069719887, -6.703675270080566, -0.8919828534126282, 7.163724899291992, -1.6430931091308594, -1.732046127319336, -1.5981043577194214, 1.1171875, -0.39990234375, 0.05419921875
372, 2069736554, -6.792309284210205, -0.781757116317749, 7.16851806640625, -1.91252601146698, -1.3675005435943604, -1.925012230873108, 1.118896484375, -0.39990234375, 0.0517578125
373, 2069753221, -6.813987731933594, -0.7562988996505737, 7.192539215087891, -2.660019874572754, -0.5309513211250305, -2.6794986724853516, 1.120849609375, -0.39990234375, 0.05419921875
374, 2069769888, -6.835602283477783, -0.7839210629463196, 7.194360733032227, -2.9774506092071533, 0.3883845806121826, -3.1525518894195557, 1.11669921875, -0.3984375, 0.0556640625
375, 2069786555, -6.794667720794678, -0.889075517654419, 7.202588081359863, -2.980485677719116, 0.9118056297302246, -2.9171197414398193, 1.119140625, -0.39892578125, 0.055908203125
376, 2069803222, -6.777804851531982, -0.9025607705116272, 7.149257659912109, -2.677154779434204, 0.759282112121582, -2.4767608642578125, 1.120361328125, -0.39794921875, 0.055419921875
377, 2069819889, -6.725317001342773, -0.925994873046875, 7.151889801025391, -2.5088791847229004, 0.608653724193573, -2.082683801651001, 1.120361328125, -0.3994140625, 0.0537109375
378, 2069836556, -6.671685695648193, -0.9579482078552246, 7.156740665435791, -2.1284279823303223, 0.5489633679389954, -1.6394944190979004, 1.120361328125, -0.39990234375, 0.055419921875
379, 2069853223, -6.740886688232422, -0.8799355626106262, 7.1088762283325195, -1.8382105827331543, 1.4716607332229614, -1.098016381263733, 1.120361328125, -0.396728515625, 0.057861328125
380, 2069869890, -6.7405805587768555, -0.8033812046051025, 7.094475269317627, -1.5621570348739624, 1.6631669998168945, -1.115753173828125, 1.119384765625, -0.400390625, 0.057861328125
381, 2069886557, -6.76759672164917, -0.906786322593689, 7.100013732910156, -1.3749409914016724, 1.7340118885040283, -1.0671019554138184, 1.118408203125, -0.40234375, 0.058349609375
382, 2069903224, -6.804708003997803, -0.9410682916641235, 7.0764851570129395, -1.3880290985107422, 1.4608780145645142, -0.8541707396507263, 1.121337890625, -0.4013671875, 0.058349609375
383, 2069919891, -6.794712543487549, -0.902649998664856, 7.109408378601074, -1.303443193435669, 1.0961787700653076, -0.6209927201271057, 1.123291015625, -0.400390625, 0.05810546875
384, 2069936558, -6.858170509338379, -0.8321657180786133, 7.0912041664123535, -1.452150583267212, 0.6661543250083923, -0.6334276795387268, 1.1240234375, -0.40087890625, 0.05908203125
385, 2069953225, -6.883957386016846, -0.8066656589508057, 7.062384605407715, -1.6922435760498047, -0.397176057100296, -1.0402723550796509, 1.123291015625, -0.40234375, 0.060546875
386, 2069969892, -6.8362555503845215, -0.868429958820343, 7.112035751342773, -1.7249386310577393, -1.1109893321990967, -1.1860729455947876, 1.122802734375, -0.4033203125, 0.05908203125
387, 2069986559, -6.8387322425842285, -0.8261882662773132, 7.074045658111572, -1.5596855878829956, -1.4734346866607666, -1.0605835914611816, 1.12451171875, -0.40283203125, 0.05908203125
388, 2070003226, -6.820440769195557, -0.8322685360908508, 7.07065486907959, -1.2428945302963257, -1.9214645624160767, -0.9357728362083435, 1.122314453125, -0.4033203125, 0.05810546875
389, 2070019893, -6.830594062805176, -0.8290989398956299, 7.127155780792236, -0.9935678839683533, -2.0301907062530518, -0.7452784180641174, 1.12451171875, -0.4033203125, 0.05859375
390, 2070036560, -6.844625473022461, -0.8295001983642578, 7.125854969024658, -1.1076469421386719, -1.7789942026138306, -0.5624293088912964, 1.122802734375, -0.403564453125, 0.057373046875
391, 2070053227, -6.837604522705078, -0.7494639754295349, 7.120006084442139, -1.1290078163146973, -1.4141666889190674, -0.6340295076370239, 1.12353515625, -0.406494140625, 0.0595703125
392, 2070069894, -6.784713268280029, -0.8361808657646179, 7.122198581695557, -1.293966293334961, -1.1060715913772583, -0.6606411337852478, 1.1220703125, -0.406005859375, 0.0595703125
393, 2070086561, -6.8536529541015625, -0.7515265345573425, 7.121766090393066, -1.470323920249939, -0.09814196825027466, -0.5605515241622925, 1.12353515625, -0.406494140625, 0.06005859375
394, 2070103228, -6.8659257888793945, -0.7179521918296814, 7.079936981201172, -2.0070877075195312, 0.14877775311470032, -1.2244919538497925, 1.123046875, -0.405517578125, 0.05859375
395, 2070119895, -6.822582721710205, -0.809174656867981, 7.129288673400879, -2.317385673522949, 0.40886190533638, -1.7213141918182373, 1.12451171875, -0.405517578125, 0.060546875
396, 2070136562, -6.828919410705566, -0.8504320383071899, 7.1095123291015625, -2.1999897956848145, 1.0764952898025513, -1.314584493637085, 1.1259765625, -0.406494140625, 0.0595703125
397, 2070153229, -6.871500015258789, -0.7768516540527344, 7.080289840698242, -2.0367603302001953, 1.3108772039413452, -1.0877329111099243, 1.12548828125, -0.407470703125, 0.06005859375
398, 2070169896, -6.870718479156494, -0.7880088686943054, 7.041801929473877, -2.1131374835968018, 0.8013892769813538, -1.2657283544540405, 1.125, -0.408447265625, 0.061767578125
399, 2070186563, -6.83994197845459, -0.8241349458694458, 7.077406883239746, -2.159163475036621, 0.26237010955810547, -1.1495492458343506, 1.125, -0.407958984375, 0.063720703125
400, 2070203230, -6.8554205894470215, -0.7348292469978333, 7.066547393798828, -2.1613659858703613, 0.645203173160553, -0.9908400774002075, 1.12646484375, -0.408447265625, 0.062255859375
401, 2070219897, -6.880610942840576, -0.735602855682373, 7.070686340332031, -2.382711172103882, 0.9720851182937622, -1.3409913778305054, 1.1259765625, -0.408935546875, 0.064208984375
402, 2070236564, -6.876430988311768, -0.7897014021873474, 7.0544562339782715, -2.560027599334717, 0.9974032640457153, -1.682715892791748, 1.12548828125, -0.41015625, 0.065185546875
403, 2070253231, -6.9144816398620605, -0.8085305690765381, 7.000363826751709, -2.433091163635254, 0.47726064920425415, -1.7369766235351562, 1.126708984375, -0.407958984375, 0.061767578125
404, 2070269898, -6.879515171051025, -0.8114503026008606, 7.032369613647461, -2.292707920074463, -0.3361922800540924, -1.7690308094024658, 1.126708984375, -0.40966796875, 0.06494140625
405, 2070286565, -6.897728443145752, -0.7497440576553345, 7.040848255157471, -2.1070542335510254, -0.6980869770050049, -1.5563557147979736, 1.12646484375, -0.408447265625, 0.065185546875
406, 2070303232, -6.94558572769165, -0.7318353056907654, 7.035499572753906, -1.9825639724731445, -1.1964716911315918, -1.787894606590271, 1.127685546875, -0.408935546875, 0.063720703125
407, 2070319899, -6.916134357452393, -0.7892736792564392, 7.045930862426758, -1.957220196723938, -2.21401309967041, -1.9912720918655396, 1.127197265625, -0.40966796875, 0.063232421875
408, 2070336566, -6.859322547912598, -0.8637673854827881, 7.063621997833252, -1.804350733757019, -2.6057207584381104, -1.4944369792938232, 1.126220703125, -0.408935546875, 0.063232421875
409, 2070353233, -6.865605354309082, -0.7681580185890198, 7.100793838500977, -1.7258734703063965, -1.9625859260559082, -1.01667058467865, 1.127197265625, -0.40966796875, 0.0654296875
410, 2070369900, -6.9212727546691895, -0.6868026256561279, 7.068028926849365, -1.9472438097000122, -1.4642781019210815, -1.229332685470581, 1.1259765625, -0.4091796875, 0.065185546875
411, 2070386567, -6.928591251373291, -0.6776968836784363, 7.033202171325684, -2.1292731761932373, -1.7554047107696533, -1.8955446481704712, 1.126708984375, -0.41162109375, 0.064208984375
412, 2070403234, -6.90129280090332, -0.733376145362854, 7.081489086151123, -2.2336325645446777, -2.243006944656372, -2.368739604949951, 1.12548828125, -0.4091796875, 0.065185546875
413, 2070419901, -6.875306606292725, -0.760490357875824, 7.05584192276001, -2.3453805446624756, -2.333022356033325, -2.485840320587158, 1.127197265625, -0.41015625, 0.062255859375
414, 2070436568, -6.883030414581299, -0.7265238761901855, 7.066631317138672, -2.473828077316284, -2.1446409225463867, -2.705059766769409, 1.12548828125, -0.40869140625, 0.061767578125
415, 2070453235, -6.873956680297852, -0.7816795110702515, 7.060381889343262, -2.583745002746582, -2.0840542316436768, -3.007763385772705, 1.1259765625, -0.408935546875, 0.062255859375
416, 2070469902, -6.881549835205078, -0.7676406502723694, 7.055728912353516, -2.5302655696868896, -2.2443125247955322, -2.869403600692749, 1.125, -0.41064453125, 0.065185546875
417, 2070486569, -6.867234230041504, -0.7913587689399719, 7.046443462371826, -2.4957656860351562, -2.4943184852600098, -2.884617567062378, 1.127197265625, -0.4091796875, 0.063232421875
418, 2070503236, -6.8716583251953125, -0.7248696684837341, 7.077805042266846, -2.6723008155822754, -2.471881866455078, -3.19905161857605, 1.1259765625, -0.405517578125, 0.062744140625
419, 2070519903, -6.864105224609375, -0.7178043723106384, 7.090652942657471, -3.234372138977051, -1.7140661478042603, -3.9493634700775146, 1.125, -0.407958984375, 0.061767578125
420, 2070536570, -6.879872798919678, -0.7132989168167114, 7.08048677444458, -4.05557918548584, -0.5912564992904663, -4.780239582061768, 1.12646484375, -0.408447265625, 0.062744140625
421, 2070553237, -6.894577503204346, -0.746487557888031, 7.078336715698242, -4.528287410736084, 0.19546973705291748, -5.447693824768066, 1.12744140625, -0.405517578125, 0.062255859375
422, 2070569904, -6.880749702453613, -0.8215130567550659, 7.0572428703308105, -4.545947074890137, 0.13270580768585205, -5.19064474105835, 1.125, -0.404541015625, 0.064208984375
423, 2070586571, -6.886245250701904, -0.8455595970153809, 7.029423713684082, -4.196949481964111, -0.463128924369812, -4.952741622924805, 1.1279296875, -0.4033203125, 0.062255859375
424, 2070603238, -6.894444942474365, -0.8014419078826904, 7.0539093017578125, -3.982172727584839, -0.947388231754303, -4.655850410461426, 1.125, -0.40283203125, 0.065673828125
425, 2070619905, -6.886362075805664, -0.8376844525337219, 7.030818939208984, -3.959839344024658, -1.4347338676452637, -4.6155242919921875, 1.12451171875, -0.4013671875, 0.062744140625
426, 2070636572, -6.907125949859619, -0.8872448205947876, 7.048768520355225, -3.578580856323242, -1.617442011833191, -4.084098815917969, 1.126953125, -0.40185546875, 0.063720703125
427, 2070653239, -6.883439540863037, -0.852725625038147, 7.060518264770508, -3.286890745162964, -1.8674349784851074, -3.5435938835144043, 1.12646484375, -0.40185546875, 0.064697265625
428, 2070669906, -6.890109062194824, -0.8345988988876343, 7.059637069702148, -2.9514412879943848, -1.7617824077606201, -3.0777502059936523, 1.1240234375, -0.40283203125, 0.064697265625
429, 2070686573, -6.887634754180908, -0.8431893587112427, 7.075071811676025, -2.9863643646240234, -1.4410121440887451, -2.910977602005005, 1.12353515625, -0.40185546875, 0.065185546875
430, 2070703240, -6.897974014282227, -0.8099475502967834, 7.063218116760254, -3.009108066558838, -1.2132480144500732, -2.983482599258423, 1.12548828125, -0.40087890625, 0.064697265625
431, 2070719907, -6.890655517578125, -0.852245569229126, 7.051239967346191, -3.028176784515381, -1.3525298833847046, -2.9107682704925537, 1.1259765625, -0.4013671875, 0.066162109375
432, 2070736574, -6.886519908905029, -0.863887369632721, 7.049217700958252, -2.933985948562622, -1.4153448343276978, -2.748114585876465, 1.12646484375, -0.3984375, 0.06201171875
433, 2070753241, -6.882424831390381, -0.8611131310462952, 7.044276237487793, -2.6991946697235107, -1.6384575366973877, -2.5428547859191895, 1.125, -0.398193359375, 0.065185546875
434, 2070769908, -6.880205154418945, -0.8927560448646545, 7.066286087036133, -2.438687801361084, -1.829848289489746, -2.2632789611816406, 1.1259765625, -0.403564453125, 0.065185546875
435, 2070786575, -6.880599498748779, -0.8326538801193237, 7.053867340087891, -2.4056344032287598, -1.7108131647109985, -2.2047924995422363, 1.122802734375, -0.400390625, 0.065185546875
436, 2070803242, -6.878276824951172, -0.8432616591453552, 7.0808515548706055, -2.4495601654052734, -1.694907546043396, -2.274369239807129, 1.12548828125, -0.39990234375, 0.064208984375
437, 2070819909, -6.8656840324401855, -0.8432672619819641, 7.082350730895996, -2.4643898010253906, -1.551233172416687, -2.2887253761291504, 1.12548828125, -0.400390625, 0.063720703125
438, 2070836576, -6.8828816413879395, -0.8464803099632263, 7.079242706298828, -2.477760076522827, -1.4407143592834473, -2.2740492820739746, 1.12548828125, -0.39892578125, 0.063232421875
439, 2070853243, -6.877474308013916, -0.8305799961090088, 7.061514854431152, -2.604388952255249, -1.256559133529663, -2.391496181488037, 1.123779296875, -0.39892578125, 0.0615234375
440, 2070869910, -6.893537998199463, -0.8363243341445923, 7.067998886108398, -2.703023672103882, -1.2126972675323486, -2.5012083053588867, 1.1259765625, -0.40185546875, 0.064208984375
441, 2070886577, -6.878377914428711, -0.8446239829063416, 7.051460266113281, -2.7243592739105225, -1.272784948348999, -2.664745569229126, 1.123779296875, -0.39990234375, 0.066650390625
442, 2070903244, -6.894800662994385, -0.8479824066162109, 7.046117305755615, -2.768310070037842, -1.4687472581863403, -2.6611080169677734, 1.125, -0.40185546875, 0.063232421875
443, 2070919911, -6.866002082824707, -0.8763113617897034, 7.052734851837158, -2.882735013961792, -1.329042911529541, -2.7365634441375732, 1.1259765625, -0.4013671875, 0.063720703125
444, 2070936578, -6.884649276733398, -0.8414411544799805, 7.0564680099487305, -2.9196553230285645, -1.168336033821106, -2.703740119934082, 1.1259765625, -0.3994140625, 0.063720703125
445, 2070953245, -6.900218963623047, -0.8083300590515137, 7.055880069732666, -3.0294189453125, -1.14226233959198, -2.8725154399871826, 1.12451171875, -0.39892578125, 0.064697265625
446, 2070969912, -6.8790507316589355, -0.8445782661437988, 7.048344612121582, -3.0717568397521973, -1.0949558019638062, -2.9664371013641357, 1.123779296875, -0.3994140625, 0.065185546875
447, 2070986579, -6.889263153076172, -0.865048885345459, 7.057331085205078, -3.032261848449707, -1.0883476734161377, -3.024859666824341, 1.123291015625, -0.39892578125, 0.06298828125
448, 2071003246, -6.8916802406311035, -0.8668193221092224, 7.059223175048828, -3.0159213542938232, -1.3115240335464478, -2.9517998695373535, 1.1259765625, -0.397705078125, 0.066162109375
449, 2071019913, -6.877948760986328, -0.8993826508522034, 7.057910919189453, -2.93271803855896, -1.3480987548828125, -2.8338146209716797, 1.12646484375, -0.398193359375, 0.065185546875
450, 2071036580, -6.883805274963379, -0.8796900510787964, 7.055998802185059, -2.890470027923584, -1.1492546796798706, -2.6852993965148926, 1.1259765625, -0.397216796875, 0.066162109375
451, 2071053247, -6.879598140716553, -0.8564928770065308, 7.077244281768799, -2.997607946395874, -1.0260062217712402, -2.8940682411193848, 1.124267578125, -0.397216796875, 0.066650390625
452, 2071069914, -6.896140098571777, -0.8714083433151245, 7.043917655944824, -3.0725250244140625, -1.0828920602798462, -3.048321008682251, 1.124267578125, -0.397705078125, 0.065673828125
453, 2071086581, -6.900420188903809, -0.8829700350761414, 7.0513386726379395, -3.050536870956421, -1.2570843696594238, -3.173336982727051, 1.124267578125, -0.397705078125, 0.065185546875
454, 2071103248, -6.906961917877197, -0.8912301659584045, 7.049928665161133, -2.8473384380340576, -1.5581613779067993, -3.065084457397461, 1.12548828125, -0.396728515625, 0.066162109375
455, 2071119915, -6.8875885009765625, -0.8933094143867493, 7.033000469207764, -2.740968704223633, -1.8949298858642578, -2.880340337753296, 1.124267578125, -0.396240234375, 0.064697265625
456, 2071136582, -6.897850513458252, -0.898348331451416, 7.040469646453857, -2.681547164916992, -1.8772954940795898, -2.820572853088379, 1.1259765625, -0.397705078125, 0.065673828125
457, 2071153249, -6.901072025299072, -0.8740488886833191, 7.060144424438477, -2.6047470569610596, -1.9126410484313965, -2.7025365829467773, 1.123779296875, -0.396240234375, 0.066162109375
458, 2071169916, -6.867015361785889, -0.8902409076690674, 7.066779136657715, -2.3738112449645996, -1.947807788848877, -2.568685293197632, 1.124267578125, -0.396728515625, 0.066162109375
459, 2071186583, -6.88991641998291, -0.8890144228935242, 7.0533366203308105, -2.329807996749878, -1.859097957611084, -2.350592851638794, 1.124267578125, -0.395263671875, 0.067626953125
460, 2071203250, -6.880353927612305, -0.8943671584129333, 7.050164699554443, -2.208544969558716, -1.9479995965957642, -2.2800683975219727, 1.125244140625, -0.395263671875, 0.066650390625
461, 2071219917, -6.884988784790039, -0.8938594460487366, 7.061324119567871, -2.036978244781494, -1.936409831047058, -2.0680720806121826, 1.124755859375, -0.396728515625, 0.063720703125
462, 2071236584, -6.8878912925720215, -0.8900486826896667, 7.075610160827637, -1.928956389427185, -1.9520076513290405, -1.955875277519226, 1.124755859375, -0.395751953125, 0.066162109375
463, 2071253251, -6.889494895935059, -0.8929889798164368, 7.028452396392822, -1.8018020391464233, -2.1284282207489014, -1.8526817560195923, 1.12548828125, -0.396728515625, 0.065185546875
464, 2071269918, -6.879759311676025, -0.9027056097984314, 7.05839204788208, -1.6764920949935913, -2.2120535373687744, -1.6514811515808105, 1.123291015625, -0.395751953125, 0.065673828125
465, 2071286585, -6.888843059539795, -0.8796122074127197, 7.056832790374756, -1.291327714920044, -2.486767292022705, -1.319333553314209, 1.12548828125, -0.396728515625, 0.064208984375
466, 2071303252, -6.872072696685791, -0.8875327110290527, 7.066037654876709, -1.2208164930343628, -2.709669828414917, -1.2389118671417236, 1.123779296875, -0.397705078125, 0.064697265625
467, 2071319919, -6.86578893661499, -0.8732334971427917, 7.059276580810547, -1.1347578763961792, -2.9014194011688232, -1.094673991203308, 1.124267578125, -0.397705078125, 0.065185546875
468, 2071336586, -6.860205173492432, -0.8809384107589722, 7.0453290939331055, -1.1399190425872803, -3.2288267612457275, -1.1620227098464966, 1.1240234375, -0.3994140625, 0.064208984375
469, 2071353253, -6.86198091506958, -0.8729687333106995, 7.089743614196777, -1.1254347562789917, -3.120548725128174, -1.1919125318527222, 1.12451171875, -0.3994140625, 0.0625
470, 2071369920, -6.866969108581543, -0.8398780226707458, 7.074639797210693, -1.2537161111831665, -3.1102142333984375, -1.3316043615341187, 1.124267578125, -0.39892578125, 0.063232421875
471, 2071386587, -6.862339496612549, -0.8213031888008118, 7.0693840980529785, -1.441495418548584, -3.0773401260375977, -1.5743484497070312, 1.122314453125, -0.400390625, 0.064697265625
472, 2071403254, -6.856196403503418, -0.8416883945465088, 7.084086894989014, -1.5491971969604492, -3.050396203994751, -1.7403960227966309, 1.122314453125, -0.39794921875, 0.06103515625
473, 2071419921, -6.8468780517578125, -0.8436487317085266, 7.07240629196167, -1.5733369588851929, -3.043198585510254, -1.7999967336654663, 1.123291015625, -0.3984375, 0.060546875
474, 2071436588, -6.851424217224121, -0.8302062153816223, 7.082157611846924, -1.6240631341934204, -3.0968191623687744, -1.8182458877563477, 1.122802734375, -0.40087890625, 0.06005859375
475, 2071453255, -6.862729549407959, -0.8211771249771118, 7.106487274169922, -1.7168707847595215, -3.011503219604492, -1.9543516635894775, 1.121826171875, -0.39990234375, 0.06103515625
476, 2071469922, -6.845667839050293, -0.8220221996307373, 7.086113452911377, -2.018242120742798, -2.7796950340270996, -2.239433526992798, 1.121826171875, -0.39990234375, 0.06103515625
477, 2071486589, -6.849428176879883, -0.8111117482185364, 7.086569786071777, -2.1944448947906494, -2.6496975421905518, -2.487582206726074, 1.120849609375, -0.3984375, 0.06103515625
478, 2071503256, -6.81948709487915, -0.833079993724823, 7.103159427642822, -2.429543972015381, -2.4616494178771973, -2.6113173961639404, 1.122802734375, -0.400390625, 0.06103515625
479, 2071519923, -6.828610420227051, -0.8412928581237793, 7.104036808013916, -2.5705032348632812, -2.236142158508301, -2.772958755493164, 1.122802734375, -0.400390625, 0.0595703125
480, 2071536590, -6.8169264793396, -0.8327632546424866, 7.106910228729248, -2.767183303833008, -1.8724037408828735, -2.9250600337982178, 1.122314453125, -0.39892578125, 0.056884765625
481, 2071553257, -6.823061943054199, -0.8226357698440552, 7.110918998718262, -3.099534034729004, -1.3079639673233032, -3.1063599586486816, 1.121826171875, -0.39990234375, 0.058349609375
482, 2071569924, -6.832801818847656, -0.8070483207702637, 7.126313209533691, -3.5419676303863525, -0.7519505023956299, -3.490703821182251, 1.120849609375, -0.39794921875, 0.060546875
483, 2071586591, -6.826452732086182, -0.8560425043106079, 7.108994483947754, -3.898714303970337, -0.3607677221298218, -3.877007484436035, 1.120361328125, -0.3984375, 0.058349609375
484, 2071603258, -6.845016002655029, -0.87462317943573, 7.09348726272583, -4.002292156219482, -0.4477100074291229, -3.856837511062622, 1.121826171875, -0.3984375, 0.06005859375
485, 2071619925, -6.833418369293213, -0.869721531867981, 7.111541271209717, -3.822324275970459, -0.40275973081588745, -3.6810574531555176, 1.121826171875, -0.39794921875, 0.058837890625
486, 2071636592, -6.8396897315979, -0.8513598442077637, 7.098248481750488, -3.864905595779419, -0.4041556715965271, -3.6514105796813965, 1.123291015625, -0.39794921875, 0.06005859375
487, 2071653259, -6.839998245239258, -0.8954812288284302, 7.106828689575195, -3.5828704833984375, -0.5394802689552307, -3.378814458847046, 1.122802734375, -0.396240234375, 0.060546875
488, 2071669926, -6.8452067375183105, -0.9038755893707275, 7.08403205871582, -3.2931790351867676, -0.6598088145256042, -3.1184489727020264, 1.122802734375, -0.397216796875, 0.0625
489, 2071686593, -6.859310626983643, -0.903846800327301, 7.082083225250244, -3.0919268131256104, -1.006207823753357, -2.7993531227111816, 1.123779296875, -0.396728515625, 0.064208984375
490, 2071703260, -6.849989414215088, -0.9102664589881897, 7.058081150054932, -2.7229504585266113, -1.2265284061431885, -2.53308367729187, 1.121337890625, -0.394775390625, 0.06005859375
491, 2071719927, -6.843527793884277, -0.9069691300392151, 7.081473350524902, -2.4525697231292725, -1.3460115194320679, -2.2493715286254883, 1.124755859375, -0.394287109375, 0.06005859375
492, 2071736594, -6.860591411590576, -0.8930420279502869, 7.09653377532959, -2.354959487915039, -1.3977874517440796, -2.192075490951538, 1.124267578125, -0.395263671875, 0.06201171875
493, 2071753261, -6.843684196472168, -0.8849015831947327, 7.092630386352539, -2.3853237628936768, -1.5098814964294434, -2.2873165607452393, 1.124267578125, -0.396728515625, 0.060546875
494, 2071769928, -6.854834079742432, -0.8941965103149414, 7.0691351890563965, -2.311635971069336, -1.5908944606781006, -2.2896857261657715, 1.120849609375, -0.395263671875, 0.06298828125
495, 2071786595, -6.8440093994140625, -0.8915355205535889, 7.104334354400635, -2.2478857040405273, -1.6071968078613281, -2.2355659008026123, 1.121337890625, -0.395263671875, 0.06005859375
496, 2071803262, -6.8536505699157715, -0.9135305881500244, 7.0614447593688965, -2.243403434753418, -1.7019253969192505, -2.1189897060394287, 1.121826171875, -0.396240234375, 0.0625
497, 2071819929, -6.847893714904785, -0.8959935307502747, 7.080289363861084, -1.9614461660385132, -1.7682750225067139, -1.9160478115081787, 1.124267578125, -0.394287109375, 0.060546875
498, 2071836596, -6.853776931762695, -0.8694771528244019, 7.079308032989502, -2.0488364696502686, -1.7194700241088867, -1.7604248523712158, 1.122314453125, -0.397216796875, 0.0615234375
499, 2071853263, -6.833545207977295, -0.8633017539978027, 7.088085174560547, -2.202371597290039, -1.4887508153915405, -1.9681438207626343, 1.124267578125, -0.3984375, 0.0595703125
500, 2071869930, -6.851953983306885, -0.8844162225723267, 7.077780246734619, -2.354933977127075, -1.4115285873413086, -2.05973482131958, 1.121826171875, -0.396240234375, 0.060546875
501, 2071886597, -6.843831539154053, -0.8689228892326355, 7.0926432609558105, -2.326146364212036, -1.557363510131836, -2.1379172801971436, 1.121337890625, -0.396728515625, 0.064208984375
502, 2071903264, -6.851785659790039, -0.886218786239624, 7.102251052856445, -2.3494014739990234, -1.5417307615280151, -2.1403253078460693, 1.124755859375, -0.394775390625, 0.063720703125
503, 2071919931, -6.861186504364014, -0.8464288115501404, 7.10499382019043, -2.43137526512146, -1.412988543510437, -2.222926139831543, 1.123291015625, -0.397705078125, 0.06005859375
504, 2071936598, -6.852150917053223, -0.894406259059906, 7.077938079833984, -2.496661901473999, -1.5210741758346558, -2.2025129795074463, 1.122802734375, -0.396728515625, 0.0615234375
505, 2071953265, -6.8522820472717285, -0.8813206553459167, 7.078151702880859, -2.2856647968292236, -1.690656065940857, -2.1471126079559326, 1.120849609375, -0.395751953125, 0.06005859375
506, 2071969932, -6.837742328643799, -0.8931061625480652, 7.0846381187438965, -2.2979838848114014, -1.6431186199188232, -2.097398281097412, 1.121337890625, -0.397705078125, 0.0625
507, 2071986599, -6.848491668701172, -0.8581127524375916, 7.101504802703857, -2.350234270095825, -1.5558052062988281, -2.178462505340576, 1.121337890625, -0.397216796875, 0.06298828125
508, 2072003266, -6.858756065368652, -0.8559567332267761, 7.078497409820557, -2.367727756500244, -1.5828137397766113, -2.2094156742095947, 1.122314453125, -0.395751953125, 0.0615234375
509, 2072019933, -6.861234188079834, -0.8598543405532837, 7.0693206787109375, -2.3189098834991455, -1.5567913055419922, -2.282270908355713, 1.123779296875, -0.397705078125, 0.06103515625
510, 2072036600, -6.8562469482421875, -0.8750079870223999, 7.088566303253174, -2.2995851039886475, -1.6281224489212036, -2.349248170852661, 1.12548828125, -0.396728515625, 0.0625
511, 2072053267, -6.850165367126465, -0.8764553070068359, 7.071698188781738, -2.3018133640289307, -1.7354907989501953, -2.347198963165283, 1.122802734375, -0.397216796875, 0.0615234375
512, 2072069934, -6.8424763679504395, -0.8897194266319275, 7.076618194580078, -2.364436388015747, -1.6356909275054932, -2.2991623878479004, 1.123291015625, -0.3994140625, 0.0625
513, 2072086601, -6.85662317276001, -0.8625000715255737, 7.104500770568848, -2.4305686950683594, -1.5520273447036743, -2.3433828353881836, 1.122802734375, -0.396240234375, 0.06201171875
514, 2072103268, -6.852510929107666, -0.8687011003494263, 7.079898357391357, -2.5847058296203613, -1.3920631408691406, -2.5400755405426025, 1.121826171875, -0.396240234375, 0.06103515625
515, 2072119935, -6.857387542724609, -0.8947619199752808, 7.088707447052002, -2.6855690479278564, -1.2941330671310425, -2.6388001441955566, 1.122802734375, -0.395263671875, 0.06201171875
516, 2072136602, -6.839120864868164, -0.8968347907066345, 7.0952887535095215, -2.6078083515167236, -1.416881799697876, -2.4708316326141357, 1.124755859375, -0.396240234375, 0.06103515625
517, 2072153269, -6.847050666809082, -0.8888627886772156, 7.096165180206299, -2.6171443462371826, -1.4154345989227295, -2.4679758548736572, 1.120849609375, -0.395751953125, 0.060546875
518, 2072169936, -6.839804649353027, -0.8886927366256714, 7.076282024383545, -2.525655508041382, -1.3617630004882812, -2.3272337913513184, 1.122802734375, -0.396240234375, 0.064208984375
519, 2072186603, -6.860186576843262, -0.8634481430053711, 7.087893009185791, -2.3416154384613037, -1.4652128219604492, -2.2988548278808594, 1.122314453125, -0.396728515625, 0.06103515625
520, 2072203270, -6.838868141174316, -0.8869528770446777, 7.092335224151611, -2.187631607055664, -1.6039055585861206, -2.11157488822937, 1.123291015625, -0.394287109375, 0.06298828125
521, 2072219937, -6.839339733123779, -0.9063231348991394, 7.0704193115234375, -2.1089117527008057, -1.709263563156128, -2.0021448135375977, 1.123291015625, -0.396240234375, 0.0595703125
522, 2072236604, -6.860291957855225, -0.8714509010314941, 7.086348533630371, -2.1363167762756348, -1.669294834136963, -1.9867898225784302, 1.124755859375, -0.397216796875, 0.060546875
523, 2072253271, -6.850544452667236, -0.8683427572250366, 7.110335826873779, -2.180703639984131, -1.674174189567566, -2.0468900203704834, 1.120849609375, -0.396240234375, 0.060546875
524, 2072269938, -6.858112335205078, -0.8808874487876892, 7.093849182128906, -2.1846354007720947, -1.6901822090148926, -2.0355310440063477, 1.121337890625, -0.396728515625, 0.06298828125
525, 2072286605, -6.865454196929932, -0.8778031468391418, 7.087637901306152, -2.118720531463623, -1.658524751663208, -1.9699879884719849, 1.124755859375, -0.396728515625, 0.060546875
526, 2072303272, -6.8449296951293945, -0.8654882311820984, 7.0577311515808105, -2.1021108627319336, -1.725399374961853, -1.9722931385040283, 1.121826171875, -0.396728515625, 0.0625
527, 2072319939, -6.844049453735352, -0.9029885530471802, 7.097231388092041, -2.046262264251709, -1.734440803527832, -1.9782992601394653, 1.124755859375, -0.396728515625, 0.0625
528, 2072336606, -6.843231201171875, -0.9026304483413696, 7.0651655197143555, -1.7729623317718506, -1.931965947151184, -1.720981478691101, 1.124267578125, -0.398193359375, 0.06005859375
529, 2072353273, -6.836385726928711, -0.8805007934570312, 7.0778656005859375, -1.6617776155471802, -2.17606782913208, -1.5571753978729248, 1.121337890625, -0.395751953125, 0.06298828125
530, 2072369940, -6.847229957580566, -0.8694531917572021, 7.081015586853027, -1.572709321975708, -2.366241931915283, -1.4568758010864258, 1.121337890625, -0.39794921875, 0.06005859375
531, 2072386607, -6.862576007843018, -0.8369503021240234, 7.092898845672607, -1.6417995691299438, -2.268773078918457, -1.681909203529358, 1.120361328125, -0.396240234375, 0.06298828125
532, 2072403274, -6.836343765258789, -0.8426077365875244, 7.0883684158325195, -1.8439799547195435, -2.1224923133850098, -1.9331631660461426, 1.121337890625, -0.396728515625, 0.059326171875
533, 2072419941, -6.852207660675049, -0.8573521971702576, 7.114899158477783, -1.9950498342514038, -1.8366097211837769, -2.068903923034668, 1.121826171875, -0.3994140625, 0.06103515625
534, 2072436608, -6.835227966308594, -0.8592334985733032, 7.092337608337402, -2.1253929138183594, -1.8242002725601196, -2.021764039993286, 1.123779296875, -0.3984375, 0.06103515625
535, 2072453275, -6.850285053253174, -0.8638666868209839, 7.107104778289795, -1.9920789003372192, -1.946027159690857, -1.9784144163131714, 1.122802734375, -0.397705078125, 0.06005859375
536, 2072469942, -6.843357563018799, -0.8801928162574768, 7.100337982177734, -1.9228476285934448, -1.9254732131958008, -1.90590500831604, 1.121337890625, -0.397705078125, 0.06005859375
537, 2072486609, -6.829231262207031, -0.842406153678894, 7.079108715057373, -1.956013798713684, -2.0251641273498535, -1.8607531785964966, 1.123291015625, -0.39990234375, 0.06005859375
538, 2072503276, -6.838694095611572, -0.8409190773963928, 7.101219654083252, -2.068622589111328, -1.9056874513626099, -1.9394962787628174, 1.121337890625, -0.397705078125, 0.0595703125
539, 2072519943, -6.825023651123047, -0.8442981243133545, 7.118993282318115, -2.0948500633239746, -1.7893030643463135, -2.0169615745544434, 1.122802734375, -0.3994140625, 0.058349609375
540, 2072536610, -6.845031261444092, -0.8487709760665894, 7.100216388702393, -2.162032127380371, -1.6800267696380615, -2.011608839035034, 1.122802734375, -0.39892578125, 0.05908203125
541, 2072553277, -6.834772109985352, -0.8609696626663208, 7.11730432510376, -2.1230876445770264, -1.6455261707305908, -1.9990838766098022, 1.121826171875, -0.39892578125, 0.058837890625
542, 2072569944, -6.841075420379639, -0.8440268635749817, 7.092946529388428, -2.130297899246216, -1.583031415939331, -2.028231382369995, 1.123291015625, -0.3984375, 0.06103515625
543, 2072586611, -6.837831497192383, -0.8420115113258362, 7.09478759765625, -2.112727642059326, -1.6733675003051758, -2.024146318435669, 1.120361328125, -0.3994140625, 0.0595703125
544, 2072603278, -6.837662220001221, -0.8463257551193237, 7.113648414611816, -2.120577812194824, -1.7007728815078735, -2.006857395172119, 1.121337890625, -0.3984375, 0.060546875
545, 2072619945, -6.841503620147705, -0.8349318504333496, 7.0866241455078125, -2.141413927078247, -1.6974431276321411, -1.9029722213745117, 1.122314453125, -0.3984375, 0.058349609375
546, 2072636612, -6.826488494873047, -0.8418352603912354, 7.099392890930176, -2.0868074893951416, -1.8007392883300781, -2.0757172107696533, 1.123291015625, -0.400390625, 0.0595703125
547, 2072653279, -6.833382606506348, -0.8445650339126587, 7.106094837188721, -2.104992628097534, -1.769094705581665, -2.0223019123077393, 1.122802734375, -0.39794921875, 0.0595703125
548, 2072669946, -6.8430657386779785, -0.8498203754425049, 7.094823360443115, -2.0853474140167236, -1.6816400289535522, -2.0661635398864746, 1.119873046875, -0.400390625, 0.059326171875
549, 2072686613, -6.830235958099365, -0.8319966793060303, 7.10186767578125, -2.088228702545166, -1.7094552516937256, -1.9590641260147095, 1.122314453125, -0.39794921875, 0.06103515625
550, 2072703280, -6.8365478515625, -0.8438752889633179, 7.1293230056762695, -2.1639657020568848, -1.584004521369934, -1.9617148637771606, 1.124267578125, -0.39892578125, 0.06005859375
551, 2072719947, -6.831621170043945, -0.8341208100318909, 7.121373653411865, -2.1231772899627686, -1.6440918445587158, -2.0287046432495117, 1.120849609375, -0.40087890625, 0.058837890625
552, 2072736614, -6.835595607757568, -0.8360219597816467, 7.115052223205566, -2.1689345836639404, -1.6694228649139404, -2.0561234951019287, 1.123779296875, -0.400390625, 0.056884765625
553, 2072753281, -6.854788303375244, -0.8524042367935181, 7.106486797332764, -2.1776044368743896, -1.7870620489120483, -2.05877423286438, 1.122314453125, -0.400390625, 0.05859375
554, 2072769948, -6.8359150886535645, -0.8314440846443176, 7.100950241088867, -2.2385244369506836, -1.7598869800567627, -2.076997995376587, 1.119873046875, -0.400390625, 0.059326171875
555, 2072786615, -6.830081939697266, -0.8437547087669373, 7.098904132843018, -2.2106447219848633, -1.7744733095169067, -2.128133773803711, 1.121826171875, -0.3984375, 0.0595703125
556, 2072803282, -6.827816009521484, -0.8423700332641602, 7.110380172729492, -2.1912686824798584, -1.721980094909668, -2.1828291416168213, 1.122802734375, -0.39990234375, 0.057861328125
557, 2072819949, -6.817898750305176, -0.8316038846969604, 7.11110782623291, -2.2804009914398193, -1.7314952611923218, -2.0842716693878174, 1.125, -0.39892578125, 0.05859375
558, 2072836616, -6.8419270515441895, -0.833060622215271, 7.097583293914795, -2.2375128269195557, -1.70052969455719, -2.161020517349243, 1.120849609375, -0.39892578125, 0.059326171875
559, 2072853283, -6.841270923614502, -0.8320615887641907, 7.124778747558594, -2.217867612838745, -1.6852389574050903, -2.155526638031006, 1.123291015625, -0.3994140625, 0.057373046875
560, 2072869950, -6.825840950012207, -0.8451195359230042, 7.100440979003906, -2.237717390060425, -1.7326862812042236, -2.1396079063415527, 1.120849609375, -0.400390625, 0.05908203125
561, 2072886617, -6.819192409515381, -0.8440042734146118, 7.116575717926025, -2.1933820247650146, -1.7160892486572266, -2.094632148742676, 1.119873046875, -0.40087890625, 0.058837890625
562, 2072903284, -6.829465389251709, -0.8219029307365417, 7.1158270835876465, -2.167987108230591, -1.730996012687683, -2.1177990436553955, 1.121826171875, -0.40087890625, 0.05859375
563, 2072919951, -6.819791793823242, -0.817736804485321, 7.122707843780518, -2.1876447200775146, -1.7332243919372559, -2.189988374710083, 1.122802734375, -0.39990234375, 0.057373046875
564, 2072936618, -6.837590217590332, -0.8250943422317505, 7.099221229553223, -2.304272174835205, -1.8699322938919067, -2.234375476837158, 1.121826171875, -0.39990234375, 0.057373046875
565, 2072953285, -6.820446968078613, -0.8183713555335999, 7.11287784576416, -2.1618528366088867, -1.8218187093734741, -2.1657073497772217, 1.122314453125, -0.40087890625, 0.05908203125
566, 2072969952, -6.828980922698975, -0.835162878036499, 7.109909534454346, -2.263343095779419, -1.7537144422531128, -2.2803499698638916, 1.121826171875, -0.40087890625, 0.055419921875
567, 2072986619, -6.817078113555908, -0.8255917429924011, 7.106549263000488, -2.2969212532043457, -1.5855669975280762, -2.241316080093384, 1.121826171875, -0.40087890625, 0.05859375
568, 2073003286, -6.829955577850342, -0.83568274974823, 7.108510494232178, -2.341961622238159, -1.5552287101745605, -2.2012710571289062, 1.122314453125, -0.40087890625, 0.058349609375
569, 2073019953, -6.828393936157227, -0.8263959288597107, 7.115735054016113, -2.368854284286499, -1.4846272468566895, -2.1610074043273926, 1.122314453125, -0.40185546875, 0.055908203125
570, 2073036620, -6.823544502258301, -0.8332748413085938, 7.1214599609375, -2.435870409011841, -1.490671992301941, -2.229342460632324, 1.122314453125, -0.4013671875, 0.058349609375
571, 2073053287, -6.830575942993164, -0.8399376273155212, 7.106500148773193, -2.3201520442962646, -1.4915428161621094, -2.273447275161743, 1.122802734375, -0.40185546875, 0.06005859375
572, 2073069954, -6.830286026000977, -0.8205978274345398, 7.10830545425415, -2.332561492919922, -1.4200834035873413, -2.2425074577331543, 1.122314453125, -0.40185546875, 0.0595703125
573, 2073086621, -6.8418989181518555, -0.8245276212692261, 7.1258745193481445, -2.475818395614624, -1.4646639823913574, -2.190727710723877, 1.121826171875, -0.40185546875, 0.05908203125
574, 2073103288, -6.837592601776123, -0.8209827542304993, 7.11635684967041, -2.3343541622161865, -1.4136031866073608, -2.1866841316223145, 1.121826171875, -0.39990234375, 0.060546875
575, 2073119955, -6.83886194229126, -0.8377203941345215, 7.110139846801758, -2.329282760620117, -1.5301154851913452, -2.1975696086883545, 1.122802734375, -0.40234375, 0.056884765625
576, 2073136622, -6.831552028656006, -0.8372300267219543, 7.109161853790283, -2.2343881130218506, -1.6748402118682861, -2.189399480819702, 1.121337890625, -0.40185546875, 0.05908203125
577, 2073153289, -6.8324995040893555, -0.8181779384613037, 7.092740058898926, -2.2543785572052, -1.8087049722671509, -2.2128093242645264, 1.120849609375, -0.40234375, 0.058349609375
578, 2073169956, -6.816091060638428, -0.8248147964477539, 7.129202842712402, -2.2838971614837646, -1.7664439678192139, -2.2595784664154053, 1.122314453125, -0.40087890625, 0.058349609375
579, 2073186623, -6.827220916748047, -0.8146174550056458, 7.11803674697876, -2.1892967224121094, -1.6956889629364014, -2.121691942214966, 1.121826171875, -0.40087890625, 0.058349609375
580, 2073203290, -6.8292646408081055, -0.8235835433006287, 7.113067626953125, -2.3150551319122314, -1.6615599393844604, -2.2115800380706787, 1.120849609375, -0.40234375, 0.0595703125
581, 2073219957, -6.824868679046631, -0.8123299479484558, 7.138631343841553, -2.1911025047302246, -1.6973791122436523, -2.193842887878418, 1.120849609375, -0.40185546875, 0.056884765625
582, 2073236624, -6.822445869445801, -0.8131986260414124, 7.115288257598877, -2.3266701698303223, -1.5884099006652832, -2.2522525787353516, 1.123291015625, -0.400390625, 0.057373046875
583, 2073253291, -6.8263750076293945, -0.834244966506958, 7.114380836486816, -2.3582890033721924, -1.6066973209381104, -2.3049123287200928, 1.12353515625, -0.40283203125, 0.0576171875
584, 2073269958, -6.828001499176025, -0.8555679321289062, 7.122152805328369, -2.357994794845581, -1.6921030282974243, -2.200617551803589, 1.119384765625, -0.39892578125, 0.058349609375
585, 2073286625, -6.8301472663879395, -0.7978034019470215, 7.1210126876831055, -2.361478328704834, -1.6693847179412842, -2.2147305011749268, 1.122314453125, -0.403564453125, 0.05859375
586, 2073303292, -6.825436115264893, -0.8188871145248413, 7.107380390167236, -2.334559440612793, -1.6686930656433105, -2.282975196838379, 1.122802734375, -0.40185546875, 0.05859375
587, 2073319959, -6.820523262023926, -0.8035196661949158, 7.120615005493164, -2.3839919567108154, -1.7367331981658936, -2.1966092586517334, 1.121826171875, -0.40185546875, 0.057373046875
588, 2073336626, -6.819581985473633, -0.8345209956169128, 7.122437000274658, -2.2235922813415527, -1.860929250717163, -2.1608028411865234, 1.120361328125, -0.403564453125, 0.058349609375
589, 2073353293, -6.827361583709717, -0.8188782930374146, 7.12086820602417, -2.0775740146636963, -2.001004934310913, -2.068455934524536, 1.122314453125, -0.40087890625, 0.05859375
590, 2073369960, -6.823549270629883, -0.8442068099975586, 7.118122100830078, -1.8815855979919434, -2.259885311126709, -1.9154713153839111, 1.119873046875, -0.40283203125, 0.058837890625
591, 2073386627, -6.822737216949463, -0.8115933537483215, 7.128547668457031, -1.9389071464538574, -2.6503636837005615, -1.8641308546066284, 1.120849609375, -0.40234375, 0.05859375
592, 2073403294, -6.810286521911621, -0.807643711566925, 7.134341716766357, -1.8093324899673462, -2.5472474098205566, -1.9199151992797852, 1.120849609375, -0.39990234375, 0.056884765625
593, 2073419961, -6.81829833984375, -0.8239789605140686, 7.127066135406494, -1.9182889461517334, -2.766761064529419, -1.8739663362503052, 1.122802734375, -0.40185546875, 0.053955078125
594, 2073436628, -6.806101322174072, -0.8151629567146301, 7.14456033706665, -1.9765191078186035, -2.4950098991394043, -1.9707179069519043, 1.121826171875, -0.40185546875, 0.054443359375
595, 2073453295, -6.792361259460449, -0.8098611831665039, 7.104220867156982, -2.1162750720977783, -2.1379690170288086, -2.0593507289886475, 1.119384765625, -0.40234375, 0.055419921875
596, 2073469962, -6.804614067077637, -0.8160027265548706, 7.12542724609375, -2.2654433250427246, -1.8812528848648071, -2.0666377544403076, 1.118896484375, -0.40087890625, 0.056396484375
597, 2073486629, -6.806510925292969, -0.8171666264533997, 7.127168655395508, -2.2705276012420654, -1.8803564310073853, -1.9879169464111328, 1.120361328125, -0.403076171875, 0.055908203125
598, 2073503296, -6.816295146942139, -0.8137130737304688, 7.133115768432617, -2.218648672103882, -1.885004997253418, -1.9946656227111816, 1.120361328125, -0.40087890625, 0.05419921875
599, 2073519963, -6.800144672393799, -0.8206769824028015, 7.156711578369141, -2.1820099353790283, -1.8703032732009888, -1.9274964332580566, 1.121337890625, -0.403076171875, 0.054443359375
600, 2073536630, -6.805039882659912, -0.8047620058059692, 7.115180969238281, -2.2082502841949463, -1.8978497982025146, -2.013773202896118, 1.121337890625, -0.404052734375, 0.056396484375
601, 2073553297, -6.806528091430664, -0.7974277138710022, 7.126667499542236, -2.272371292114258, -1.8176820278167725, -2.111651659011841, 1.121337890625, -0.40283203125, 0.055908203125
602, 2073569964, -6.8040385246276855, -0.8103635311126709, 7.135147571563721, -2.342012643814087, -1.804939866065979, -2.218879461288452, 1.119384765625, -0.40283203125, 0.054443359375
603, 2073586631, -6.79706335067749, -0.8234204053878784, 7.134446620941162, -2.4025866985321045, -1.757120966911316, -2.2711806297302246, 1.118408203125, -0.40234375, 0.057373046875
604, 2073603298, -6.815274715423584, -0.8134886026382446, 7.125412940979004, -2.3393871784210205, -1.7095451354980469, -2.262920379638672, 1.120361328125, -0.40185546875, 0.055419921875
605, 2073619965, -6.8057756423950195, -0.8326855301856995, 7.13028621673584, -2.33343243598938, -1.8229327201843262, -2.1760165691375732, 1.118896484375, -0.403564453125, 0.05419921875
606, 2073636632, -6.806182384490967, -0.8109838962554932, 7.152719497680664, -2.305002212524414, -1.8577404022216797, -2.10650372505188, 1.121337890625, -0.40283203125, 0.055419921875
607, 2073653299, -6.797974586486816, -0.8109074831008911, 7.134711265563965, -2.3289759159088135, -1.7694790363311768, -2.1387245655059814, 1.122314453125, -0.40283203125, 0.055908203125
608, 2073669966, -6.811386585235596, -0.8148064017295837, 7.149165630340576, -2.37085223197937, -1.6791813373565674, -2.2596418857574463, 1.119384765625, -0.404541015625, 0.055419921875
609, 2073686633, -6.808690071105957, -0.8069918751716614, 7.117532730102539, -2.3944263458251953, -1.727575421333313, -2.2707884311676025, 1.118408203125, -0.403564453125, 0.054443359375
610, 2073703300, -6.808970928192139, -0.8126187324523926, 7.148809909820557, -2.4177749156951904, -1.5911122560501099, -2.2546863555908203, 1.120361328125, -0.403564453125, 0.054931640625
611, 2073719967, -6.808409690856934, -0.8017898201942444, 7.133244037628174, -2.4007296562194824, -1.551220417022705, -2.2971134185791016, 1.119873046875, -0.40283203125, 0.05224609375
612, 2073736634, -6.808474540710449, -0.8223021030426025, 7.135488033294678, -2.343421220779419, -1.6463714838027954, -2.3508102893829346, 1.119384765625, -0.403076171875, 0.054931640625
613, 2073753301, -6.79194974899292, -0.8207721710205078, 7.1272454261779785, -2.3811488151550293, -1.6136386394500732, -2.2984325885772705, 1.120361328125, -0.40234375, 0.055908203125
614, 2073769968, -6.802101135253906, -0.8012173771858215, 7.151113033294678, -2.4201183319091797, -1.7147189378738403, -2.29496169090271, 1.120849609375, -0.404052734375, 0.054443359375
615, 2073786635, -6.785709857940674, -0.8098036050796509, 7.116237163543701, -2.345611095428467, -1.789290428161621, -2.283910036087036, 1.120849609375, -0.40283203125, 0.055419921875
616, 2073803302, -6.799536228179932, -0.8081967234611511, 7.137259483337402, -2.444514751434326, -1.614586353302002, -2.3166558742523193, 1.119873046875, -0.40185546875, 0.054931640625
617, 2073819969, -6.784331321716309, -0.8026020526885986, 7.13692045211792, -2.5153722763061523, -1.5970033407211304, -2.3986167907714844, 1.119384765625, -0.40283203125, 0.0537109375
618, 2073836636, -6.8005547523498535, -0.8149862289428711, 7.130558490753174, -2.5058059692382812, -1.655246615409851, -2.365474224090576, 1.119873046875, -0.403076171875, 0.0537109375
619, 2073853303, -6.79476261138916, -0.8234880566596985, 7.153697967529297, -2.4836511611938477, -1.5984375476837158, -2.4026894569396973, 1.119873046875, -0.4013671875, 0.056396484375
620, 2073869970, -6.7913641929626465, -0.8169980645179749, 7.139964580535889, -2.415675163269043, -1.6682322025299072, -2.428762912750244, 1.118896484375, -0.403564453125, 0.054931640625
621, 2073886637, -6.802731037139893, -0.820697009563446, 7.124597549438477, -2.4209253787994385, -1.4902492761611938, -2.3070895671844482, 1.119384765625, -0.403564453125, 0.054443359375
622, 2073903304, -6.795632362365723, -0.8160978555679321, 7.12458610534668, -2.443195343017578, -1.4281898736953735, -2.310905933380127, 1.118896484375, -0.404052734375, 0.054443359375
623, 2073919971, -6.789958953857422, -0.8238673806190491, 7.147080898284912, -2.405583143234253, -1.584043025970459, -2.267479419708252, 1.121337890625, -0.40283203125, 0.052734375
624, 2073936638, -6.802330017089844, -0.8145183324813843, 7.130804061889648, -2.461188793182373, -1.5691876411437988, -2.1913459300994873, 1.120361328125, -0.40087890625, 0.0517578125
625, 2073953305, -6.799908638000488, -0.8088587522506714, 7.12630033493042, -2.3789970874786377, -1.4956920146942139, -2.1958281993865967, 1.117919921875, -0.40234375, 0.0546875
626, 2073969972, -6.7929511070251465, -0.8310338854789734, 7.11442232131958, -2.365358591079712, -1.5601975917816162, -2.2157676219940186, 1.119873046875, -0.404541015625, 0.056884765625
627, 2073986639, -6.793806552886963, -0.7996288537979126, 7.157889366149902, -2.4086310863494873, -1.5820963382720947, -2.2632148265838623, 1.120361328125, -0.40283203125, 0.055908203125
628, 2074003306, -6.791898727416992, -0.8197981119155884, 7.142760276794434, -2.420912504196167, -1.4894425868988037, -2.3195886611938477, 1.118896484375, -0.404052734375, 0.055908203125
629, 2074019973, -6.806333065032959, -0.8236537575721741, 7.140366077423096, -2.3940443992614746, -1.490044355392456, -2.3308327198028564, 1.120361328125, -0.4013671875, 0.054443359375
630, 2074036640, -6.804022312164307, -0.8071430921554565, 7.118741989135742, -2.3645517826080322, -1.484614610671997, -2.2835772037506104, 1.118896484375, -0.40234375, 0.0546875
631, 2074053307, -6.801309108734131, -0.8209112286567688, 7.152551651000977, -2.3256845474243164, -1.6301076412200928, -2.1906800270080566, 1.120849609375, -0.404052734375, 0.055419921875
632, 2074069974, -6.800846576690674, -0.8073575496673584, 7.126998424530029, -2.342883586883545, -1.5248137712478638, -2.212630033493042, 1.119384765625, -0.403076171875, 0.0537109375
633, 2074086641, -6.778580188751221, -0.8131013512611389, 7.149513244628906, -2.3345210552215576, -1.557111382484436, -2.273498773574829, 1.120361328125, -0.403564453125, 0.053955078125
634, 2074103308, -6.791316032409668, -0.8038804531097412, 7.131901264190674, -2.2739336490631104, -1.5902924537658691, -2.149942636489868, 1.119873046875, -0.403076171875, 0.05224609375
635, 2074119975, -6.78900146484375, -0.799822211265564, 7.1355085372924805, -2.2236435413360596, -1.6524802446365356, -2.260730504989624, 1.120361328125, -0.40185546875, 0.054443359375
636, 2074136642, -6.7947235107421875, -0.8108174800872803, 7.167006015777588, -2.3432931900024414, -1.5491585731506348, -2.213167905807495, 1.119384765625, -0.403564453125, 0.05419921875
637, 2074153309, -6.794861793518066, -0.8122522830963135, 7.158291339874268, -2.332817554473877, -1.6724581718444824, -2.140005111694336, 1.118896484375, -0.403076171875, 0.05322265625
638, 2074169976, -6.797010898590088, -0.8219358325004578, 7.147468090057373, -2.283474922180176, -1.67743980884552, -2.1334099769592285, 1.120361328125, -0.40234375, 0.0537109375
639, 2074186643, -6.7826762199401855, -0.8151463866233826, 7.146519184112549, -2.274510145187378, -1.6838430166244507, -2.175926923751831, 1.120849609375, -0.40234375, 0.055419921875
640, 2074203310, -6.791539669036865, -0.7964545488357544, 7.133184432983398, -2.3329713344573975, -1.6366260051727295, -2.1631462574005127, 1.120849609375, -0.40283203125, 0.053955078125
641, 2074219977, -6.796722888946533, -0.8155708312988281, 7.128986358642578, -2.3316519260406494, -1.624293327331543, -2.1877341270446777, 1.119873046875, -0.40283203125, 0.05322265625
642, 2074236644, -6.798149108886719, -0.8055885434150696, 7.160367012023926, -2.300276756286621, -1.4820661544799805, -2.238754987716675, 1.119873046875, -0.403076171875, 0.055908203125
643, 2074253311, -6.78611421585083, -0.8041660785675049, 7.1331467628479, -2.3587119579315186, -1.5591988563537598, -2.225513219833374, 1.121826171875, -0.403564453125, 0.056396484375
644, 2074269978, -6.797940731048584, -0.8010186553001404, 7.15748929977417, -2.3270034790039062, -1.6324766874313354, -2.3447275161743164, 1.121337890625, -0.404052734375, 0.05322265625
645, 2074286645, -6.803424835205078, -0.8078330159187317, 7.12290096282959, -2.3006765842437744, -1.6352216005325317, -2.2913284301757812, 1.118896484375, -0.403564453125, 0.054931640625
646, 2074303312, -6.795764923095703, -0.8134050369262695, 7.141329288482666, -2.325479745864868, -1.7005937099456787, -2.1409528255462646, 1.119384765625, -0.403564453125, 0.055908203125
647, 2074319979, -6.781726837158203, -0.8133691549301147, 7.147500514984131, -2.3215994834899902, -1.70052969455719, -2.1761317253112793, 1.120361328125, -0.40234375, 0.05419921875
648, 2074336646, -6.8009138107299805, -0.8105502724647522, 7.140808582305908, -2.3229055404663086, -1.6086570024490356, -2.223963737487793, 1.120361328125, -0.403076171875, 0.054443359375
649, 2074353313, -6.797004699707031, -0.7975713610649109, 7.15791654586792, -2.3196401596069336, -1.6192350387573242, -2.3058347702026367, 1.120849609375, -0.405029296875, 0.054931640625
650, 2074369980, -6.800617218017578, -0.795540988445282, 7.158207416534424, -2.4352810382843018, -1.6953814029693604, -2.3585195541381836, 1.117919921875, -0.403076171875, 0.055419921875
651, 2074386647, -6.789725303649902, -0.8051003813743591, 7.14806604385376, -2.454157590866089, -1.71957266330719, -2.3287580013275146, 1.119873046875, -0.404052734375, 0.0537109375
