sep=,
DeviceTag:,B,,,,,,,,,,,,,,,,,
FirmwareVersion:,2.2.1,,,,,,,,,,,,,,,,,
AppVersion:,2023.6.1,,,,,,,,,,,,,,,,,
SyncStatus:,Synced,,,,,,,,,,,,,,,,,
OutputRate:,60Hz,,,,,,,,,,,,,,,,,
FilterProfile:,General,,,,,,,,,,,,,,,,,
Measurement Mode:,Inertial Mode - Rate quantities (with mag),,,,,,,,,,,,,,,,,
StartTime:,2023-12-07 13:00:24.862 +0200,,,,,,,,,,,,,,,,,
 2023,,,,,,,,,,,,,,,,,,,

PacketCounter,SampleTimeFine,Acc_X,Acc_Y,Acc_Z,Gyr_X,Gyr_Y,Gyr_Z,Mag_X,Mag_Y,Mag_Z
1, 2063536430, -6.311908721923828, 1.8537901639938354, 7.075021266937256, -0.09202642738819122, -0.668606698513031, -1.3242661952972412, 0.606201171875, 0.183349609375, -0.697265625
2, 2063553097, -6.326177597045898, 1.8463183641433716, 7.0744948387146, -0.11895817518234253, -0.5726231336593628, -1.3201167583465576, 0.604736328125, 0.184814453125, -0.698486328125
3, 2063569764, -6.3331146240234375, 1.8487824201583862, 7.063868999481201, -0.14599238336086273, -0.5873119831085205, -1.3603416681289673, 0.604736328125, 0.183837890625, -0.697998046875
4, 2063586431, -6.333059787750244, 1.8468291759490967, 7.067686080932617, -0.21574856340885162, -0.7029917240142822, -1.4518812894821167, 0.606201171875, 0.185302734375, -0.700439453125
5, 2063603098, -6.315394878387451, 1.8387608528137207, 7.099607467651367, -0.2378779649734497, -0.6804013848304749, -1.3607386350631714, 0.605224609375, 0.183349609375, -0.700439453125
6, 2063619765, -6.336880683898926, 1.8546630144119263, 7.0759077072143555, -0.18680621683597565, -0.5427714586257935, -1.4162667989730835, 0.607666015625, 0.184814453125, -0.698486328125
7, 2063636432, -6.320899963378906, 1.83486807346344, 7.070764541625977, -0.16682830452919006, -0.6053817868232727, -1.4063549041748047, 0.605712890625, 0.182861328125, -0.698486328125
8, 2063653099, -6.333836078643799, 1.8553179502487183, 7.068390846252441, -0.11649936437606812, -0.6358352899551392, -1.4241942167282104, 0.605712890625, 0.184326171875, -0.69677734375
9, 2063669766, -6.324766159057617, 1.861444115638733, 7.052704334259033, -0.13317322731018066, -0.6306358575820923, -1.4254746437072754, 0.605712890625, 0.182861328125, -0.699462890625
10, 2063686433, -6.325135231018066, 1.8328372240066528, 7.071162700653076, -0.1908402293920517, -0.5419006943702698, -1.4273061752319336, 0.605224609375, 0.183837890625, -0.698486328125
11, 2063703100, -6.332424163818359, 1.8535981178283691, 7.089512825012207, -0.1985752433538437, -0.5459858775138855, -1.3788211345672607, 0.605712890625, 0.185302734375, -0.698974609375
12, 2063719767, -6.333765029907227, 1.8370411396026611, 7.091528415679932, -0.2029038369655609, -0.4972705841064453, -1.4703994989395142, 0.604736328125, 0.183837890625, -0.698974609375
13, 2063736434, -6.3407182693481445, 1.8374525308609009, 7.06160831451416, -0.11674268543720245, -0.5762088298797607, -1.4584639072418213, 0.603271484375, 0.18310546875, -0.697509765625
14, 2063753101, -6.3354716300964355, 1.8323203325271606, 7.083681583404541, -0.04454047977924347, -0.48974043130874634, -1.4115158319473267, 0.605712890625, 0.185302734375, -0.69677734375
15, 2063769768, -6.329479694366455, 1.8396358489990234, 7.062838554382324, -0.09136050194501877, -0.5173380970954895, -1.3084248304367065, 0.604736328125, 0.184814453125, -0.697509765625
16, 2063786435, -6.343321800231934, 1.861637830734253, 7.078619480133057, -0.01385647151619196, -0.4999087154865265, -1.1837037801742554, 0.606201171875, 0.1826171875, -0.699462890625
17, 2063803102, -6.3512444496154785, 1.854813575744629, 7.062114238739014, -0.056527234613895416, -0.390171080827713, -1.2866541147232056, 0.605712890625, 0.18212890625, -0.699462890625
18, 2063819769, -6.344359397888184, 1.8547155857086182, 7.058141708374023, -0.1142454519867897, -0.5519280433654785, -1.3385581970214844, 0.605224609375, 0.183349609375, -0.699462890625
19, 2063836436, -6.335068702697754, 1.8566290140151978, 7.077404022216797, -0.16247417032718658, -0.6484110951423645, -1.4502935409545898, 0.603759765625, 0.1826171875, -0.697509765625
20, 2063853103, -6.335661888122559, 1.8395369052886963, 7.088202476501465, -0.1049608364701271, -0.5633001327514648, -1.3620193004608154, 0.606201171875, 0.184326171875, -0.698974609375
21, 2063869770, -6.344354629516602, 1.8613240718841553, 7.0510687828063965, -0.1568777859210968, -0.5747617483139038, -1.3956104516983032, 0.605712890625, 0.184326171875, -0.697021484375
22, 2063886437, -6.340743541717529, 1.8460546731948853, 7.067104816436768, -0.1566856950521469, -0.5369573831558228, -1.4406886100769043, 0.605224609375, 0.183349609375, -0.697998046875
23, 2063903104, -6.3444719314575195, 1.8343737125396729, 7.061812877655029, -0.11265745013952255, -0.6488720774650574, -1.4236692190170288, 0.607177734375, 0.18212890625, -0.698974609375
24, 2063919771, -6.338873863220215, 1.8443864583969116, 7.066943168640137, -0.19769160449504852, -0.6152554750442505, -1.4114006757736206, 0.605224609375, 0.183349609375, -0.699951171875
25, 2063936438, -6.346076965332031, 1.8517407178878784, 7.071099281311035, -0.22783777117729187, -0.668248176574707, -1.3248169422149658, 0.606689453125, 0.183349609375, -0.697265625
26, 2063953105, -6.353893756866455, 1.8338433504104614, 7.074990272521973, -0.2388768494129181, -0.7332531809806824, -1.3739676475524902, 0.607666015625, 0.184814453125, -0.698486328125
27, 2063969772, -6.355217933654785, 1.8448870182037354, 7.064301490783691, -0.28914177417755127, -0.7877697348594666, -1.416305422782898, 0.606689453125, 0.183837890625, -0.697998046875
28, 2063986439, -6.342984676361084, 1.8634573221206665, 7.095519065856934, -0.3368454575538635, -0.7756038308143616, -1.4995852708816528, 0.605712890625, 0.182861328125, -0.698486328125
29, 2064003106, -6.331234455108643, 1.8692874908447266, 7.0525922775268555, -0.3687204122543335, -0.8802700638771057, -1.5577514171600342, 0.605712890625, 0.182861328125, -0.699462890625
30, 2064019773, -6.337054252624512, 1.8436388969421387, 7.057385444641113, -0.4139588177204132, -0.8123003244400024, -1.6070239543914795, 0.607666015625, 0.182373046875, -0.698974609375
31, 2064036440, -6.339642524719238, 1.8337763547897339, 7.0674004554748535, -0.31351226568222046, -0.7837743163108826, -1.4710911512374878, 0.607177734375, 0.182861328125, -0.698974609375
32, 2064053107, -6.355539321899414, 1.8376692533493042, 7.0809407234191895, -0.23110340535640717, -0.7311657071113586, -1.4197245836257935, 0.605712890625, 0.183349609375, -0.69580078125
33, 2064069774, -6.343239784240723, 1.8335955142974854, 7.060214996337891, -0.2206406146287918, -0.8144710659980774, -1.2971936464309692, 0.604248046875, 0.184814453125, -0.698974609375
34, 2064086441, -6.344727516174316, 1.8442163467407227, 7.058019638061523, -0.1266804188489914, -0.741807758808136, -1.280660629272461, 0.605224609375, 0.184814453125, -0.697998046875
35, 2064103108, -6.328607559204102, 1.849403738975525, 7.057687759399414, -0.09385774284601212, -0.7701995372772217, -1.2288973331451416, 0.605712890625, 0.182861328125, -0.698974609375
36, 2064119775, -6.3469390869140625, 1.851768136024475, 7.063252925872803, -0.17384618520736694, -0.8295185565948486, -1.2581086158752441, 0.60791015625, 0.182861328125, -0.697265625
37, 2064136442, -6.346789836883545, 1.8358328342437744, 7.080724716186523, -0.16696278750896454, -0.7809376120567322, -1.2223725318908691, 0.607177734375, 0.183349609375, -0.700927734375
38, 2064153109, -6.341355323791504, 1.8384813070297241, 7.0577497482299805, -0.1785077154636383, -0.8620977997779846, -1.198290228843689, 0.603759765625, 0.1826171875, -0.697021484375
39, 2064169776, -6.344926357269287, 1.8562999963760376, 7.065431594848633, -0.19208243489265442, -0.8683344721794128, -1.323894739151001, 0.605712890625, 0.18212890625, -0.69677734375
40, 2064186443, -6.3321990966796875, 1.850066065788269, 7.0817179679870605, -0.29431551694869995, -0.9657908082008362, -1.2370678186416626, 0.604736328125, 0.184326171875, -0.697021484375
41, 2064203110, -6.340470790863037, 1.8616644144058228, 7.062699794769287, -0.3533143997192383, -1.0155179500579834, -1.348585605621338, 0.606689453125, 0.183349609375, -0.698974609375
42, 2064219777, -6.32672643661499, 1.8532341718673706, 7.065615653991699, -0.3534296751022339, -1.011765718460083, -1.418853998184204, 0.606689453125, 0.183349609375, -0.699462890625
43, 2064236444, -6.335816383361816, 1.8504047393798828, 7.080808162689209, -0.3315947949886322, -0.9526387453079224, -1.4043570756912231, 0.607177734375, 0.183837890625, -0.697265625
44, 2064253111, -6.337952613830566, 1.846287488937378, 7.060127258300781, -0.33451467752456665, -0.8517888188362122, -1.3895785808563232, 0.605712890625, 0.183837890625, -0.69677734375
45, 2064269778, -6.318641185760498, 1.8599367141723633, 7.070854663848877, -0.2727752923965454, -0.9003505110740662, -1.4078278541564941, 0.606201171875, 0.183349609375, -0.69482421875
46, 2064286445, -6.347484588623047, 1.8470532894134521, 7.075039863586426, -0.31159132719039917, -0.8592677116394043, -1.4128094911575317, 0.607666015625, 0.186767578125, -0.698974609375
47, 2064303112, -6.332928657531738, 1.842027187347412, 7.088546276092529, -0.33377185463905334, -0.762080192565918, -1.373878002166748, 0.606201171875, 0.1826171875, -0.697998046875
48, 2064319779, -6.339199542999268, 1.8380094766616821, 7.082645893096924, -0.32606250047683716, -0.9164353013038635, -1.371047854423523, 0.605712890625, 0.183837890625, -0.699951171875
49, 2064336446, -6.3491291999816895, 1.850982427597046, 7.0583062171936035, -0.3207094371318817, -0.7984374761581421, -1.50566828250885, 0.605712890625, 0.1826171875, -0.697998046875
50, 2064353113, -6.335972309112549, 1.8401209115982056, 7.054567337036133, -0.2895771563053131, -0.7715697884559631, -1.4543274641036987, 0.605712890625, 0.184814453125, -0.69580078125
51, 2064369780, -6.31873893737793, 1.8451125621795654, 7.093896389007568, -0.3484223484992981, -0.6826553344726562, -1.460448980331421, 0.605224609375, 0.186279296875, -0.697509765625
52, 2064386447, -6.338174819946289, 1.8424081802368164, 7.055715560913086, -0.34584832191467285, -0.6379355192184448, -1.5644621849060059, 0.606201171875, 0.184326171875, -0.699462890625
53, 2064403114, -6.32431697845459, 1.8142434358596802, 7.063607215881348, -0.3407769799232483, -0.7976819276809692, -1.5933661460876465, 0.606201171875, 0.184814453125, -0.702392578125
54, 2064419781, -6.33650016784668, 1.8473535776138306, 7.0627570152282715, -0.5343577265739441, -0.9864090085029602, -1.5177829265594482, 0.607666015625, 0.185302734375, -0.697509765625
55, 2064436448, -6.337188720703125, 1.8451058864593506, 7.068828582763672, -0.5914100408554077, -1.013635277748108, -1.6025097370147705, 0.607177734375, 0.184814453125, -0.697998046875
56, 2064453115, -6.337881565093994, 1.857962965965271, 7.071173667907715, -0.5769259929656982, -1.126932978630066, -1.5774604082107544, 0.604248046875, 0.184814453125, -0.697998046875
57, 2064469782, -6.331846237182617, 1.8285131454467773, 7.0692667961120605, -0.5252524018287659, -1.050031065940857, -1.6834970712661743, 0.602783203125, 0.185302734375, -0.697509765625
58, 2064486449, -6.3376054763793945, 1.8406801223754883, 7.082409381866455, -0.44374004006385803, -0.9540602564811707, -1.4559797048568726, 0.605224609375, 0.184814453125, -0.697021484375
59, 2064503116, -6.334939956665039, 1.8253357410430908, 7.0914459228515625, -0.33246561884880066, -0.865990936756134, -1.4162541627883911, 0.607666015625, 0.183837890625, -0.701416015625
60, 2064519783, -6.325195789337158, 1.8331173658370972, 7.083794116973877, -0.29512232542037964, -0.8540169596672058, -1.3428740501403809, 0.605224609375, 0.186767578125, -0.700927734375
61, 2064536450, -6.3202104568481445, 1.8349697589874268, 7.083142280578613, -0.2452031821012497, -0.8950357437133789, -1.3060171604156494, 0.603271484375, 0.184814453125, -0.701416015625
62, 2064553117, -6.320569038391113, 1.848276972770691, 7.073632717132568, -0.293841689825058, -0.7888583540916443, -1.4238100051879883, 0.606201171875, 0.184326171875, -0.697998046875
63, 2064569784, -6.335065841674805, 1.8372081518173218, 7.102066993713379, -0.26690995693206787, -0.806210994720459, -1.4528292417526245, 0.605712890625, 0.184326171875, -0.698974609375
64, 2064586451, -6.3308024406433105, 1.834968090057373, 7.081441879272461, -0.24311575293540955, -0.6872655153274536, -1.3743133544921875, 0.608154296875, 0.183349609375, -0.697998046875
65, 2064603118, -6.344444751739502, 1.8396352529525757, 7.075424671173096, -0.22555825114250183, -0.6007586121559143, -1.4923880100250244, 0.604736328125, 0.183837890625, -0.699951171875
66, 2064619785, -6.330411911010742, 1.8471927642822266, 7.078959941864014, -0.2847619950771332, -0.5865180492401123, -1.4928617477416992, 0.607666015625, 0.183837890625, -0.701416015625
67, 2064636452, -6.333329677581787, 1.829147219657898, 7.074178695678711, -0.20852580666542053, -0.5231649875640869, -1.541538953781128, 0.605224609375, 0.185791015625, -0.69580078125
68, 2064653119, -6.346261024475098, 1.8269628286361694, 7.08368444442749, -0.2683314383029938, -0.5949445366859436, -1.511277198791504, 0.604736328125, 0.183837890625, -0.697998046875
69, 2064669786, -6.347261428833008, 1.8404014110565186, 7.078707218170166, -0.34239059686660767, -0.687675416469574, -1.580329179763794, 0.604248046875, 0.186767578125, -0.697998046875
70, 2064686453, -6.33970308303833, 1.828039288520813, 7.084723472595215, -0.33871516585350037, -0.6599624752998352, -1.6171730756759644, 0.604736328125, 0.185302734375, -0.699951171875
71, 2064703120, -6.339912414550781, 1.8053722381591797, 7.0783209800720215, -0.2726472020149231, -0.6099281311035156, -1.5757572650909424, 0.604736328125, 0.185302734375, -0.700439453125
72, 2064719787, -6.343127250671387, 1.8271613121032715, 7.063256740570068, -0.2470472753047943, -0.5177350640296936, -1.469861626625061, 0.606201171875, 0.182861328125, -0.701416015625
73, 2064736454, -6.32283878326416, 1.8298856019973755, 7.075233459472656, -0.2616465091705322, -0.6332868337631226, -1.488494873046875, 0.607666015625, 0.185302734375, -0.699462890625
74, 2064753121, -6.3303399085998535, 1.82810640335083, 7.046558380126953, -0.3512910008430481, -0.6751635670661926, -1.5063340663909912, 0.605224609375, 0.186279296875, -0.697021484375
75, 2064769788, -6.341991424560547, 1.801504135131836, 7.057990550994873, -0.36773431301116943, -0.7943266034126282, -1.4729734659194946, 0.603759765625, 0.185791015625, -0.698486328125
76, 2064786455, -6.351694107055664, 1.8104205131530762, 7.079531192779541, -0.39603641629219055, -0.8718563914299011, -1.4264098405838013, 0.605224609375, 0.185791015625, -0.699462890625
77, 2064803122, -6.336838722229004, 1.823224425315857, 7.061672210693359, -0.3566696345806122, -0.889068067073822, -1.4385628700256348, 0.607177734375, 0.186767578125, -0.698974609375
78, 2064819789, -6.332335948944092, 1.8319966793060303, 7.076322078704834, -0.4604651629924774, -0.8683730363845825, -1.4606411457061768, 0.603759765625, 0.186279296875, -0.699462890625
79, 2064836456, -6.335755825042725, 1.8117756843566895, 7.075899600982666, -0.33296510577201843, -0.8215274214744568, -1.4369364976882935, 0.608154296875, 0.185791015625, -0.697998046875
80, 2064853123, -6.338294982910156, 1.8307653665542603, 7.0530524253845215, -0.3459891080856323, -0.7624003887176514, -1.457362413406372, 0.607666015625, 0.186279296875, -0.697509765625
81, 2064869790, -6.333584785461426, 1.824756145477295, 7.075536251068115, -0.40348970890045166, -0.7647696733474731, -1.4838974475860596, 0.604736328125, 0.186767578125, -0.698486328125
82, 2064886457, -6.3267011642456055, 1.8224095106124878, 7.055053234100342, -0.37887588143348694, -0.8448349833488464, -1.4181495904922485, 0.603271484375, 0.184814453125, -0.698486328125
83, 2064903124, -6.346779823303223, 1.7969671487808228, 7.068850040435791, -0.48516857624053955, -0.9188300371170044, -1.479018211364746, 0.604248046875, 0.186279296875, -0.701904296875
84, 2064919791, -6.328920841217041, 1.8389112949371338, 7.074977397918701, -0.43393027782440186, -0.9740124344825745, -1.5252745151519775, 0.605224609375, 0.186279296875, -0.699951171875
85, 2064936458, -6.335407257080078, 1.8061505556106567, 7.043658256530762, -0.5004209280014038, -1.0365458726882935, -1.5353659391403198, 0.605224609375, 0.186279296875, -0.698486328125
86, 2064953125, -6.329962730407715, 1.8272539377212524, 7.086562156677246, -0.40122297406196594, -0.8708318471908569, -1.523597240447998, 0.605224609375, 0.184814453125, -0.697998046875
87, 2064969792, -6.343178749084473, 1.815733551979065, 7.062877178192139, -0.3853687345981598, -0.8808976411819458, -1.509292483329773, 0.604736328125, 0.188232421875, -0.697509765625
88, 2064986459, -6.33248233795166, 1.8160881996154785, 7.073153972625732, -0.5035584568977356, -0.891859769821167, -1.530461072921753, 0.605224609375, 0.186279296875, -0.698486328125
89, 2065003126, -6.335395812988281, 1.8174811601638794, 7.067454814910889, -0.40906038880348206, -0.9655089378356934, -1.4981379508972168, 0.606201171875, 0.187255859375, -0.699951171875
90, 2065019793, -6.333033084869385, 1.8138277530670166, 7.077730655670166, -0.43518534302711487, -0.9323918223381042, -1.4199680089950562, 0.606689453125, 0.186279296875, -0.699951171875
91, 2065036460, -6.335015773773193, 1.8090839385986328, 7.0712809562683105, -0.4524611234664917, -0.8771964907646179, -1.5415899753570557, 0.606689453125, 0.186767578125, -0.697998046875
92, 2065053127, -6.332954406738281, 1.8109376430511475, 7.081725120544434, -0.4203684628009796, -0.8934222459793091, -1.5175782442092896, 0.603759765625, 0.187255859375, -0.696533203125
93, 2065069794, -6.3379974365234375, 1.8069851398468018, 7.083116054534912, -0.36808013916015625, -0.830543041229248, -1.4619858264923096, 0.606689453125, 0.187255859375, -0.697021484375
94, 2065086461, -6.332876205444336, 1.8173521757125854, 7.083896160125732, -0.2869262993335724, -0.698624849319458, -1.3555777072906494, 0.60498046875, 0.188232421875, -0.700927734375
95, 2065103128, -6.345920562744141, 1.816494345664978, 7.0776591300964355, -0.29103705286979675, -0.7278616428375244, -1.3557183742523193, 0.605712890625, 0.185302734375, -0.700439453125
96, 2065119795, -6.346087455749512, 1.8077149391174316, 7.0909504890441895, -0.19080178439617157, -0.7740669250488281, -1.342220664024353, 0.603759765625, 0.186767578125, -0.698486328125
97, 2065136462, -6.331722259521484, 1.810474157333374, 7.058676242828369, -0.2273510992527008, -0.7739772200584412, -1.43219792842865, 0.606689453125, 0.186279296875, -0.699951171875
98, 2065153129, -6.335353374481201, 1.8234097957611084, 7.092457294464111, -0.24188631772994995, -0.7779473066329956, -1.4130910634994507, 0.604248046875, 0.186767578125, -0.697998046875
99, 2065169796, -6.338730335235596, 1.8033876419067383, 7.084615707397461, -0.2969152331352234, -0.8648896813392639, -1.3878754377365112, 0.603515625, 0.188232421875, -0.698486328125
100, 2065186463, -6.334783554077148, 1.813830018043518, 7.057471752166748, -0.21852754056453705, -0.8877489566802979, -1.2606314420700073, 0.60400390625, 0.187255859375, -0.699462890625
101, 2065203130, -6.329261779785156, 1.8094074726104736, 7.081711292266846, -0.25047942996025085, -0.8875185251235962, -1.3012917041778564, 0.606201171875, 0.185302734375, -0.701904296875
102, 2065219797, -6.338493824005127, 1.8076887130737305, 7.082550525665283, -0.21299521625041962, -0.8850083947181702, -1.2883059978485107, 0.606201171875, 0.186279296875, -0.697509765625
103, 2065236464, -6.337018966674805, 1.8181307315826416, 7.084536552429199, -0.25289982557296753, -0.8332323431968689, -1.3590354919433594, 0.606201171875, 0.187255859375, -0.698486328125
104, 2065253131, -6.340130805969238, 1.8114824295043945, 7.081491470336914, -0.27575916051864624, -0.7837742567062378, -1.3978387117385864, 0.605712890625, 0.18798828125, -0.696533203125
105, 2065269798, -6.328932762145996, 1.7970718145370483, 7.056982517242432, -0.25211861729621887, -0.67191082239151, -1.4052023887634277, 0.604248046875, 0.186767578125, -0.696533203125
106, 2065286465, -6.329644203186035, 1.8129709959030151, 7.07729434967041, -0.2291504144668579, -0.7100160717964172, -1.4413225650787354, 0.605712890625, 0.18798828125, -0.698486328125
107, 2065303132, -6.3304362297058105, 1.8138492107391357, 7.080059051513672, -0.2879507839679718, -0.7446123361587524, -1.3549245595932007, 0.605224609375, 0.187255859375, -0.700927734375
108, 2065319799, -6.341003894805908, 1.8133689165115356, 7.086463451385498, -0.3257679343223572, -0.8810127973556519, -1.3513388633728027, 0.607666015625, 0.187255859375, -0.699951171875
109, 2065336466, -6.340819358825684, 1.8114365339279175, 7.094477653503418, -0.33247849345207214, -0.9625381231307983, -1.4132575988769531, 0.604736328125, 0.187744140625, -0.698486328125
110, 2065353133, -6.346093654632568, 1.8080936670303345, 7.058818340301514, -0.29659503698349, -0.9195983409881592, -1.397070288658142, 0.604248046875, 0.183837890625, -0.697021484375
111, 2065369800, -6.329564094543457, 1.8072948455810547, 7.081875801086426, -0.28095850348472595, -0.8529284596443176, -1.3733530044555664, 0.605224609375, 0.186767578125, -0.700439453125
112, 2065386467, -6.3297624588012695, 1.8106721639633179, 7.077577590942383, -0.3226431906223297, -0.9257071018218994, -1.4170483350753784, 0.60400390625, 0.187255859375, -0.699462890625
113, 2065403134, -6.334046363830566, 1.8027942180633545, 7.085316181182861, -0.2759896516799927, -0.9081750512123108, -1.3030459880828857, 0.605224609375, 0.187744140625, -0.701416015625
114, 2065419801, -6.331666946411133, 1.8100628852844238, 7.063363552093506, -0.2518240809440613, -0.915372371673584, -1.4221196174621582, 0.606689453125, 0.184326171875, -0.701416015625
115, 2065436468, -6.3264241218566895, 1.8085535764694214, 7.070472240447998, -0.24738027155399323, -0.9309448599815369, -1.3628005981445312, 0.606201171875, 0.186279296875, -0.699462890625
116, 2065453135, -6.331100940704346, 1.8202632665634155, 7.081340789794922, -0.46382033824920654, -1.0221002101898193, -1.4662758111953735, 0.605224609375, 0.188232421875, -0.697998046875
117, 2065469802, -6.330357074737549, 1.812737226486206, 7.077742576599121, -0.4321502149105072, -1.1234369277954102, -1.4809900522232056, 0.604736328125, 0.187255859375, -0.697509765625
118, 2065486469, -6.3313140869140625, 1.7904218435287476, 7.086181163787842, -0.42187950015068054, -1.074887990951538, -1.4668006896972656, 0.606201171875, 0.186767578125, -0.699951171875
119, 2065503136, -6.324482440948486, 1.8045681715011597, 7.058873653411865, -0.31571492552757263, -0.9978066682815552, -1.3690885305404663, 0.605712890625, 0.18798828125, -0.699951171875
120, 2065519803, -6.315632343292236, 1.8134180307388306, 7.071989059448242, -0.3115912973880768, -0.9758821725845337, -1.4141026735305786, 0.607177734375, 0.187255859375, -0.700927734375
121, 2065536470, -6.329896450042725, 1.794700026512146, 7.092430591583252, -0.43016526103019714, -0.9711310267448425, -1.494372844696045, 0.604248046875, 0.183837890625, -0.701416015625
122, 2065553137, -6.326741695404053, 1.8078819513320923, 7.083595275878906, -0.35555553436279297, -0.9833099842071533, -1.4357454776763916, 0.60302734375, 0.18896484375, -0.699462890625
123, 2065569804, -6.331587791442871, 1.7934287786483765, 7.096389293670654, -0.18199104070663452, -0.8818196654319763, -1.2719011306762695, 0.604736328125, 0.1884765625, -0.697998046875
124, 2065586471, -6.322523593902588, 1.8004332780838013, 7.076945781707764, -0.18100495636463165, -0.8161870837211609, -1.317888617515564, 0.6025390625, 0.188232421875, -0.698486328125
125, 2065603138, -6.336580276489258, 1.8086826801300049, 7.078192234039307, -0.19630852341651917, -0.8710366487503052, -1.3114855289459229, 0.605712890625, 0.187255859375, -0.700927734375
126, 2065619805, -6.318576812744141, 1.816304326057434, 7.069545269012451, -0.22791458666324615, -0.8829851150512695, -1.30646550655365, 0.606689453125, 0.187255859375, -0.701904296875
127, 2065636472, -6.337813377380371, 1.806160569190979, 7.094071865081787, -0.20935824513435364, -0.7528085112571716, -1.3594454526901245, 0.60400390625, 0.187744140625, -0.698974609375
128, 2065653139, -6.309741973876953, 1.8019427061080933, 7.065569877624512, -0.29186955094337463, -0.7805342674255371, -1.3176580667495728, 0.603515625, 0.187744140625, -0.698486328125
129, 2065669806, -6.336525917053223, 1.8157751560211182, 7.066562175750732, -0.20988325774669647, -0.6871246099472046, -1.3636072874069214, 0.605712890625, 0.18798828125, -0.700439453125
130, 2065686473, -6.340674877166748, 1.8017998933792114, 7.083815574645996, -0.1865757256746292, -0.7817507982254028, -1.3527475595474243, 0.60205078125, 0.187255859375, -0.699462890625
131, 2065703140, -6.332176208496094, 1.8016633987426758, 7.084803104400635, -0.19958694279193878, -0.8223212957382202, -1.3467156887054443, 0.605712890625, 0.186767578125, -0.7021484375
132, 2065719807, -6.325258255004883, 1.7906750440597534, 7.101171016693115, -0.17562627792358398, -0.8003072738647461, -1.3690245151519775, 0.605224609375, 0.187744140625, -0.698974609375
133, 2065736474, -6.328120231628418, 1.7999030351638794, 7.067885875701904, -0.1761385053396225, -0.8121529221534729, -1.3697158098220825, 0.60302734375, 0.186767578125, -0.698974609375
134, 2065753141, -6.326189041137695, 1.7955988645553589, 7.073250770568848, -0.17497314512729645, -0.7624132633209229, -1.3649137020111084, 0.603759765625, 0.187744140625, -0.697998046875
135, 2065769808, -6.319894790649414, 1.8104515075683594, 7.0965375900268555, -0.24894903600215912, -0.891558825969696, -1.4047859907150269, 0.60302734375, 0.188232421875, -0.700439453125
136, 2065786475, -6.322927951812744, 1.7940222024917603, 7.099637508392334, -0.33227992057800293, -0.9653105139732361, -1.3296767473220825, 0.60498046875, 0.1884765625, -0.699951171875
137, 2065803142, -6.3311767578125, 1.7867833375930786, 7.064910888671875, -0.18882960081100464, -0.9289724230766296, -1.3428224325180054, 0.605224609375, 0.187255859375, -0.700439453125
138, 2065819809, -6.329085350036621, 1.8151854276657104, 7.077876091003418, -0.21025463938713074, -0.736646831035614, -1.2825303077697754, 0.605224609375, 0.186767578125, -0.7021484375
139, 2065836476, -6.32803201675415, 1.7980457544326782, 7.101639747619629, -0.19200561940670013, -0.6737165451049805, -1.307464361190796, 0.605224609375, 0.186767578125, -0.700439453125
140, 2065853143, -6.307690143585205, 1.8066474199295044, 7.067895412445068, -0.1304710954427719, -0.7281050682067871, -1.3254956007003784, 0.604248046875, 0.187744140625, -0.699462890625
141, 2065869810, -6.3369526863098145, 1.8080958127975464, 7.091024875640869, -0.13889767229557037, -0.6979973316192627, -1.4100561141967773, 0.604248046875, 0.188232421875, -0.698974609375
142, 2065886477, -6.334825038909912, 1.7865269184112549, 7.080935478210449, -0.13802681863307953, -0.7457393407821655, -1.3574987649917603, 0.606689453125, 0.186767578125, -0.699951171875
143, 2065903144, -6.3423566818237305, 1.7983461618423462, 7.062136650085449, -0.19662870466709137, -0.8108084797859192, -1.223928451538086, 0.603515625, 0.186279296875, -0.700927734375
144, 2065919811, -6.32314920425415, 1.7987560033798218, 7.104286193847656, -0.19320939481258392, -0.7972849607467651, -1.3045060634613037, 0.605224609375, 0.187255859375, -0.701416015625
145, 2065936478, -6.324877738952637, 1.7987160682678223, 7.077658176422119, -0.08714721351861954, -0.699777364730835, -1.246121883392334, 0.60498046875, 0.18896484375, -0.70166015625
146, 2065953145, -6.327995777130127, 1.8171082735061646, 7.089738368988037, -0.09666234254837036, -0.7581102252006531, -1.2170642614364624, 0.6044921875, 0.1884765625, -0.698486328125
147, 2065969812, -6.319899082183838, 1.8086832761764526, 7.074064254760742, -0.162589430809021, -0.709433376789093, -1.2462629079818726, 0.60400390625, 0.187255859375, -0.699462890625
148, 2065986479, -6.332319259643555, 1.813496708869934, 7.079359531402588, -0.21742621064186096, -0.7158877849578857, -1.3009203672409058, 0.60400390625, 0.189453125, -0.699951171875
149, 2066003146, -6.321654796600342, 1.8060718774795532, 7.101205348968506, -0.12344040721654892, -0.7558051943778992, -1.2669706344604492, 0.603515625, 0.186767578125, -0.701416015625
150, 2066019813, -6.313227653503418, 1.797772765159607, 7.077942371368408, -0.13884644210338593, -0.8206565976142883, -1.2150665521621704, 0.607177734375, 0.186767578125, -0.699462890625
151, 2066036480, -6.3223161697387695, 1.819808840751648, 7.0967302322387695, -0.1151675134897232, -0.83629310131073, -1.303584098815918, 0.605712890625, 0.1884765625, -0.701904296875
152, 2066053147, -6.328372478485107, 1.8013513088226318, 7.093994617462158, -0.09818629175424576, -0.7149145007133484, -1.250962734222412, 0.60400390625, 0.187744140625, -0.698974609375
153, 2066069814, -6.324253559112549, 1.8039590120315552, 7.065649509429932, -0.0909891203045845, -0.6900060772895813, -1.265997290611267, 0.605712890625, 0.18798828125, -0.699462890625
154, 2066086481, -6.32566499710083, 1.8009147644042969, 7.1064252853393555, -0.10525538772344589, -0.719691276550293, -1.227795958518982, 0.604248046875, 0.185302734375, -0.7021484375
155, 2066103148, -6.324280261993408, 1.818233847618103, 7.077787399291992, -0.14864328503608704, -0.7129934430122375, -1.294798731803894, 0.606201171875, 0.187255859375, -0.701904296875
156, 2066119815, -6.327088832855225, 1.7998818159103394, 7.102971076965332, -0.1473882794380188, -0.7521809935569763, -1.2954007387161255, 0.606689453125, 0.184326171875, -0.701904296875
157, 2066136482, -6.3117876052856445, 1.7958585023880005, 7.104740619659424, -0.13062477111816406, -0.7858232259750366, -1.2467494010925293, 0.605712890625, 0.187744140625, -0.698974609375
158, 2066153149, -6.327757358551025, 1.8032078742980957, 7.0972676277160645, -0.0794633999466896, -0.7054762244224548, -1.1086201667785645, 0.604248046875, 0.187744140625, -0.699462890625
159, 2066169816, -6.329947471618652, 1.78350031375885, 7.077897548675537, 0.03747778385877609, -0.686881422996521, -1.1203891038894653, 0.603759765625, 0.187255859375, -0.698974609375
160, 2066186483, -6.32081413269043, 1.8066025972366333, 7.064297676086426, -0.00758135924115777, -0.7056427001953125, -1.1307238340377808, 0.6044921875, 0.1884765625, -0.699951171875
161, 2066203150, -6.3238043785095215, 1.799707293510437, 7.083822727203369, -0.03268180042505264, -0.6917605996131897, -1.112897515296936, 0.60400390625, 0.187744140625, -0.70166015625
162, 2066219817, -6.316007137298584, 1.8173635005950928, 7.09242582321167, -0.022616015747189522, -0.7959402799606323, -1.166761040687561, 0.606201171875, 0.185791015625, -0.701416015625
163, 2066236484, -6.330815315246582, 1.8071032762527466, 7.0713911056518555, -0.09717459231615067, -0.813292920589447, -1.1853173971176147, 0.606689453125, 0.185791015625, -0.700439453125
164, 2066253151, -6.322078704833984, 1.8240749835968018, 7.080381393432617, -0.20228910446166992, -0.8688980937004089, -1.2215592861175537, 0.605224609375, 0.1884765625, -0.699951171875
165, 2066269818, -6.314093112945557, 1.8091319799423218, 7.071381568908691, -0.1948101967573166, -0.9353629350662231, -1.3351386785507202, 0.603515625, 0.188232421875, -0.698486328125
166, 2066286485, -6.33852481842041, 1.8112640380859375, 7.07450532913208, -0.2106388658285141, -1.0000991821289062, -1.307899832725525, 0.604736328125, 0.187255859375, -0.701416015625
167, 2066303152, -6.32095193862915, 1.801782488822937, 7.0939507484436035, -0.26587262749671936, -0.8829465508460999, -1.2597604990005493, 0.604248046875, 0.183837890625, -0.701904296875
168, 2066319819, -6.341197967529297, 1.8084301948547363, 7.070867538452148, -0.3132561445236206, -0.8168274164199829, -1.286064863204956, 0.603515625, 0.187255859375, -0.700439453125
169, 2066336486, -6.320505619049072, 1.8223302364349365, 7.087061405181885, -0.13946114480495453, -0.8398275971412659, -1.2910592555999756, 0.605224609375, 0.186279296875, -0.699951171875
170, 2066353153, -6.3286871910095215, 1.8031731843948364, 7.0973076820373535, -0.22963066399097443, -0.7934302091598511, -1.365297794342041, 0.60400390625, 0.188232421875, -0.699951171875
171, 2066369820, -6.333484649658203, 1.8090561628341675, 7.121668338775635, -0.2358161211013794, -0.7009683847427368, -1.3640426397323608, 0.604736328125, 0.186279296875, -0.699951171875
172, 2066386487, -6.3393144607543945, 1.8241045475006104, 7.097916126251221, -0.240823432803154, -0.5930621027946472, -1.349571704864502, 0.603271484375, 0.184326171875, -0.699462890625
173, 2066403154, -6.335641384124756, 1.8201982975006104, 7.074119567871094, -0.18710076808929443, -0.743831217288971, -1.3859671354293823, 0.603759765625, 0.184814453125, -0.700439453125
174, 2066419821, -6.325199127197266, 1.809034824371338, 7.070651531219482, -0.2807151675224304, -0.7578284740447998, -1.3627620935440063, 0.604736328125, 0.186767578125, -0.700439453125
175, 2066436488, -6.330674171447754, 1.8091373443603516, 7.08742094039917, -0.23416410386562347, -0.7823271155357361, -1.3701257705688477, 0.605712890625, 0.18994140625, -0.697998046875
176, 2066453155, -6.323155403137207, 1.8044244050979614, 7.095578670501709, -0.29216405749320984, -0.873521089553833, -1.370497226715088, 0.604248046875, 0.186767578125, -0.700927734375
177, 2066469822, -6.317174434661865, 1.7979612350463867, 7.08396577835083, -0.2123676836490631, -0.8648767471313477, -1.3891814947128296, 0.603515625, 0.187744140625, -0.699951171875
178, 2066486489, -6.324075222015381, 1.809372901916504, 7.101036548614502, -0.30383068323135376, -0.8574874997138977, -1.446823000907898, 0.606689453125, 0.187255859375, -0.699462890625
179, 2066503156, -6.33867883682251, 1.8150253295898438, 7.081833362579346, -0.3343481719493866, -0.829556941986084, -1.4034221172332764, 0.606201171875, 0.18798828125, -0.7021484375
180, 2066519823, -6.320539474487305, 1.8152905702590942, 7.082502841949463, -0.31626561284065247, -0.6875986456871033, -1.4448509216308594, 0.60400390625, 0.187744140625, -0.701416015625
181, 2066536490, -6.329075813293457, 1.799363136291504, 7.073580265045166, -0.18179896473884583, -0.7036065459251404, -1.4466180801391602, 0.6044921875, 0.186767578125, -0.701416015625
182, 2066553157, -6.329141616821289, 1.7996571063995361, 7.071274757385254, -0.241438090801239, -0.8298898935317993, -1.410273551940918, 0.605712890625, 0.186279296875, -0.698486328125
183, 2066569824, -6.328144073486328, 1.804063320159912, 7.067947864532471, -0.18943151831626892, -0.7553057074546814, -1.423771619796753, 0.604248046875, 0.186279296875, -0.696533203125
184, 2066586491, -6.32206392288208, 1.803573489189148, 7.083502292633057, -0.22038446366786957, -0.8099119663238525, -1.3877087831497192, 0.605712890625, 0.1884765625, -0.701416015625
185, 2066603158, -6.328087329864502, 1.81558096408844, 7.082971096038818, -0.21273908019065857, -0.751553475856781, -1.3623650074005127, 0.605224609375, 0.187744140625, -0.701904296875
186, 2066619825, -6.324580669403076, 1.813025712966919, 7.095521926879883, -0.1811586171388626, -0.7318956851959229, -1.370497226715088, 0.606201171875, 0.187255859375, -0.701416015625
187, 2066636492, -6.329057693481445, 1.8081167936325073, 7.07280158996582, -0.1328018307685852, -0.7581615447998047, -1.4723716974258423, 0.60400390625, 0.187255859375, -0.701416015625
188, 2066653159, -6.329137802124023, 1.803589940071106, 7.0811920166015625, -0.23763461410999298, -0.6716801524162292, -1.3999773263931274, 0.605224609375, 0.187744140625, -0.699462890625
189, 2066669826, -6.325658321380615, 1.8035616874694824, 7.066603183746338, -0.1397428810596466, -0.6627413630485535, -1.3992217779159546, 0.6044921875, 0.1884765625, -0.699951171875
190, 2066686493, -6.321751594543457, 1.8112573623657227, 7.086591720581055, -0.1786421686410904, -0.6559605002403259, -1.452195167541504, 0.605224609375, 0.186279296875, -0.699462890625
191, 2066703160, -6.327569007873535, 1.8153587579727173, 7.069746971130371, -0.208781898021698, -0.724903404712677, -1.4281641244888306, 0.605224609375, 0.186767578125, -0.701416015625
192, 2066719827, -6.321815013885498, 1.7941570281982422, 7.070677280426025, -0.21359708905220032, -0.7807775139808655, -1.38418710231781, 0.60302734375, 0.188720703125, -0.7021484375
193, 2066736494, -6.328039169311523, 1.792749285697937, 7.093613147735596, -0.12620657682418823, -0.7253260016441345, -1.3383018970489502, 0.604248046875, 0.188232421875, -0.697998046875
194, 2066753161, -6.322732448577881, 1.7961251735687256, 7.074501037597656, -0.15520016849040985, -0.7277976870536804, -1.361699104309082, 0.605712890625, 0.185302734375, -0.699462890625
195, 2066769828, -6.339308738708496, 1.8023487329483032, 7.080684185028076, -0.213994100689888, -0.7411290407180786, -1.3666294813156128, 0.603759765625, 0.186279296875, -0.697509765625
196, 2066786495, -6.322917938232422, 1.805371880531311, 7.096743583679199, -0.2528485655784607, -0.7377610206604004, -1.382061243057251, 0.60498046875, 0.188232421875, -0.700927734375
197, 2066803162, -6.326067924499512, 1.8011970520019531, 7.101812839508057, -0.20070110261440277, -0.787641704082489, -1.4336707592010498, 0.605224609375, 0.187744140625, -0.698486328125
198, 2066819829, -6.324708938598633, 1.8099849224090576, 7.102033615112305, -0.29411065578460693, -0.9683906435966492, -1.4446203708648682, 0.6044921875, 0.187255859375, -0.701904296875
199, 2066836496, -6.335888862609863, 1.7852120399475098, 7.104137897491455, -0.22750481963157654, -0.9103779792785645, -1.4274982213974, 0.603515625, 0.187744140625, -0.700927734375
200, 2066853163, -6.322820663452148, 1.804076075553894, 7.057556629180908, -0.24348711967468262, -0.865645170211792, -1.409978985786438, 0.605224609375, 0.1884765625, -0.700439453125
201, 2066869830, -6.326600074768066, 1.8051384687423706, 7.066468238830566, -0.20326238870620728, -0.8299539089202881, -1.4046005010604858, 0.604248046875, 0.186279296875, -0.698486328125
202, 2066886497, -6.322581768035889, 1.8084172010421753, 7.093189239501953, -0.22352200746536255, -0.7569577097892761, -1.3965580463409424, 0.604736328125, 0.187255859375, -0.701904296875
203, 2066903164, -6.320786476135254, 1.8150312900543213, 7.070644378662109, -0.3267156183719635, -0.7403479814529419, -1.4732168912887573, 0.605224609375, 0.186767578125, -0.700439453125
204, 2066919831, -6.324951171875, 1.7916806936264038, 7.085303783416748, -0.3343866467475891, -0.7333812713623047, -1.428510069847107, 0.6025390625, 0.187744140625, -0.70166015625
205, 2066936498, -6.336560249328613, 1.7951351404190063, 7.099399566650391, -0.21003693342208862, -0.6140131950378418, -1.4031789302825928, 0.60302734375, 0.186279296875, -0.700927734375
206, 2066953165, -6.330127239227295, 1.798409104347229, 7.088802337646484, -0.08682704716920853, -0.5686531066894531, -1.3689731359481812, 0.604248046875, 0.187744140625, -0.696533203125
207, 2066969832, -6.330503940582275, 1.8123388290405273, 7.085020542144775, -0.17712461948394775, -0.5430020093917847, -1.4030636548995972, 0.606201171875, 0.18798828125, -0.700927734375
208, 2066986499, -6.325569152832031, 1.8138500452041626, 7.092692852020264, -0.23402322828769684, -0.7382476925849915, -1.4755092859268188, 0.605224609375, 0.187744140625, -0.697998046875
209, 2067003166, -6.3331403732299805, 1.794821858406067, 7.081529140472412, -0.2119578868150711, -0.8422735929489136, -1.4617679119110107, 0.606201171875, 0.1884765625, -0.701416015625
210, 2067019833, -6.324617862701416, 1.8042014837265015, 7.093120098114014, -0.1169859990477562, -0.7397587299346924, -1.344103217124939, 0.605224609375, 0.187744140625, -0.699462890625
211, 2067036500, -6.325904369354248, 1.8048022985458374, 7.070187568664551, -0.16384443640708923, -0.6930412650108337, -1.3353564739227295, 0.605224609375, 0.187255859375, -0.697998046875
212, 2067053167, -6.311678409576416, 1.8090752363204956, 7.072686672210693, -0.08390721678733826, -0.6169715523719788, -1.3450253009796143, 0.603515625, 0.187255859375, -0.698974609375
213, 2067069834, -6.32675838470459, 1.813334584236145, 7.0695390701293945, -0.11009617894887924, -0.5533111691474915, -1.2361201047897339, 0.605712890625, 0.186279296875, -0.699951171875
214, 2067086501, -6.322093963623047, 1.8120101690292358, 7.075567722320557, -0.13856472074985504, -0.4775872230529785, -1.357818841934204, 0.603515625, 0.188720703125, -0.700439453125
215, 2067103168, -6.330325603485107, 1.7955414056777954, 7.0870041847229, -0.10065791755914688, -0.5208727121353149, -1.3108196258544922, 0.604736328125, 0.187744140625, -0.699462890625
216, 2067119835, -6.336005210876465, 1.7996968030929565, 7.068779468536377, -0.05756454914808273, -0.5316684246063232, -1.3094621896743774, 0.605224609375, 0.186767578125, -0.701904296875
217, 2067136502, -6.333004951477051, 1.7910934686660767, 7.073401927947998, 0.028231600299477577, -0.5981589555740356, -1.1881475448608398, 0.605712890625, 0.1884765625, -0.699462890625
218, 2067153169, -6.342044353485107, 1.7974605560302734, 7.057855606079102, 0.11443113535642624, -0.5698184370994568, -0.9285115003585815, 0.605224609375, 0.187744140625, -0.697998046875
219, 2067169836, -6.332680702209473, 1.7762435674667358, 7.089730739593506, 0.14890582859516144, -0.6051000356674194, -0.9689028859138489, 0.605224609375, 0.187255859375, -0.697021484375
220, 2067186503, -6.328824996948242, 1.7991397380828857, 7.086034774780273, 0.24898745119571686, -0.5745952725410461, -0.8555153608322144, 0.604736328125, 0.187744140625, -0.698974609375
221, 2067203170, -6.337421417236328, 1.8392956256866455, 7.071906566619873, 0.13154681026935577, -0.6622931957244873, -0.9287036061286926, 0.6044921875, 0.18896484375, -0.699951171875
222, 2067219837, -6.3403825759887695, 1.831051230430603, 7.066739559173584, -0.007863099686801434, -0.9022072553634644, -1.0798571109771729, 0.608154296875, 0.186279296875, -0.701416015625
223, 2067236504, -6.320288181304932, 1.8159685134887695, 7.0957560539245605, -0.1579023003578186, -0.9329169988632202, -1.1831916570663452, 0.6044921875, 0.187744140625, -0.701416015625
224, 2067253171, -6.341598033905029, 1.8079880475997925, 7.07967472076416, -0.1424834430217743, -0.9402677416801453, -1.1532630920410156, 0.604248046875, 0.187255859375, -0.699462890625
225, 2067269838, -6.335782527923584, 1.820125699043274, 7.072061061859131, -0.06278952956199646, -0.770481288433075, -1.1952037811279297, 0.604248046875, 0.1884765625, -0.697998046875
226, 2067286505, -6.341646671295166, 1.8179116249084473, 7.073391437530518, -0.20296785235404968, -0.9226847290992737, -1.1892744302749634, 0.60498046875, 0.187255859375, -0.7021484375
227, 2067303172, -6.343673229217529, 1.8056031465530396, 7.0700860023498535, -0.3369670808315277, -0.9534647464752197, -1.2340389490127563, 0.606201171875, 0.186767578125, -0.70361328125
228, 2067319839, -6.345069408416748, 1.803962230682373, 7.073600769042969, -0.3169187903404236, -1.098451852798462, -1.237131953239441, 0.606201171875, 0.186767578125, -0.701416015625
229, 2067336506, -6.333480358123779, 1.805564284324646, 7.078340530395508, -0.3910803198814392, -1.1161630153656006, -1.2778559923171997, 0.607177734375, 0.186279296875, -0.698974609375
230, 2067353173, -6.328489780426025, 1.8031569719314575, 7.070822715759277, -0.30383065342903137, -1.1634184122085571, -1.2684946060180664, 0.60498046875, 0.188232421875, -0.70263671875
231, 2067369840, -6.327944755554199, 1.8040320873260498, 7.089025020599365, -0.2859914302825928, -1.1639564037322998, -1.2844386100769043, 0.603271484375, 0.185302734375, -0.700439453125
232, 2067386507, -6.325301647186279, 1.812238335609436, 7.073235511779785, -0.25494882464408875, -1.1769676208496094, -1.1658645868301392, 0.602294921875, 0.184326171875, -0.697509765625
233, 2067403174, -6.327012062072754, 1.802823543548584, 7.103501319885254, -0.3050088584423065, -1.1600887775421143, -1.1640970706939697, 0.607177734375, 0.184814453125, -0.701904296875
234, 2067419841, -6.3296966552734375, 1.803962230682373, 7.060932159423828, -0.2907681465148926, -1.1117960214614868, -1.2127869129180908, 0.60400390625, 0.186767578125, -0.699951171875
235, 2067436508, -6.313143730163574, 1.8368052244186401, 7.09539794921875, -0.2391842156648636, -1.2027084827423096, -1.2239413261413574, 0.605712890625, 0.186767578125, -0.700927734375
236, 2067453175, -6.325031757354736, 1.8233380317687988, 7.065986156463623, -0.3368454575538635, -1.1681952476501465, -1.2756917476654053, 0.604248046875, 0.186767578125, -0.697998046875
237, 2067469842, -6.317768573760986, 1.8281004428863525, 7.096619606018066, -0.29859286546707153, -1.0727368593215942, -1.2928138971328735, 0.603759765625, 0.185791015625, -0.701416015625
238, 2067486509, -6.315521240234375, 1.8119416236877441, 7.108575820922852, -0.41021299362182617, -1.0903838872909546, -1.39110267162323, 0.604248046875, 0.184814453125, -0.7021484375
239, 2067503176, -6.315916538238525, 1.8384850025177002, 7.104550361633301, -0.43007561564445496, -1.0167089700698853, -1.4587199687957764, 0.605712890625, 0.186279296875, -0.700439453125
240, 2067519843, -6.3329997062683105, 1.811832070350647, 7.086669921875, -0.3496261239051819, -0.8584735989570618, -1.4665063619613647, 0.606201171875, 0.186279296875, -0.701416015625
241, 2067536510, -6.315096378326416, 1.8073667287826538, 7.091289520263672, -0.384024053812027, -0.8017159700393677, -1.4866764545440674, 0.606201171875, 0.1884765625, -0.701416015625
242, 2067553177, -6.329864025115967, 1.800745964050293, 7.069524765014648, -0.3000783622264862, -0.6811568737030029, -1.5114308595657349, 0.60498046875, 0.1884765625, -0.700439453125
243, 2067569844, -6.334959983825684, 1.8197910785675049, 7.083182334899902, -0.37544378638267517, -0.8198882341384888, -1.4505882263183594, 0.605224609375, 0.188232421875, -0.699951171875
244, 2067586511, -6.352756023406982, 1.8185536861419678, 7.096285820007324, -0.41915181279182434, -0.9078549742698669, -1.4919013977050781, 0.60205078125, 0.184326171875, -0.698974609375
245, 2067603178, -6.333482265472412, 1.808716058731079, 7.085177421569824, -0.46690666675567627, -0.8968798518180847, -1.5332785844802856, 0.604248046875, 0.185302734375, -0.701904296875
246, 2067619845, -6.323278903961182, 1.8116939067840576, 7.071927547454834, -0.4875762164592743, -0.8530566692352295, -1.462830901145935, 0.60400390625, 0.187255859375, -0.701416015625
247, 2067636512, -6.321220397949219, 1.8096665143966675, 7.10849142074585, -0.4835037589073181, -0.9627686142921448, -1.485485315322876, 0.60302734375, 0.188232421875, -0.70263671875
248, 2067653179, -6.304677963256836, 1.82156503200531, 7.082747459411621, -0.5464469194412231, -1.158987283706665, -1.4906589984893799, 0.6025390625, 0.187744140625, -0.699951171875
249, 2067669846, -6.330630779266357, 1.8145188093185425, 7.080441951751709, -0.6690293550491333, -1.1551071405410767, -1.6435798406600952, 0.604248046875, 0.187255859375, -0.699951171875
250, 2067686513, -6.3107781410217285, 1.7802577018737793, 7.075860500335693, -0.6663527488708496, -1.069880723953247, -1.6324125528335571, 0.604248046875, 0.186279296875, -0.701904296875
251, 2067703180, -6.316394805908203, 1.8250163793563843, 7.088473796844482, -0.5526195168495178, -1.0079748630523682, -1.686288833618164, 0.60546875, 0.1884765625, -0.70166015625
252, 2067719847, -6.302834510803223, 1.7881085872650146, 7.091572284698486, -0.5791159272193909, -1.0012515783309937, -1.682741403579712, 0.606201171875, 0.187744140625, -0.70361328125
253, 2067736514, -6.311103343963623, 1.775544285774231, 7.066794395446777, -0.5138803124427795, -1.0110228061676025, -1.5986676216125488, 0.6025390625, 0.187255859375, -0.70263671875
254, 2067753181, -6.321591377258301, 1.8074374198913574, 7.092123985290527, -0.46557483077049255, -1.0338822603225708, -1.5907020568847656, 0.603515625, 0.187744140625, -0.700439453125
255, 2067769848, -6.33037805557251, 1.7989261150360107, 7.102756023406982, -0.4585441052913666, -1.0509530305862427, -1.5107266902923584, 0.605224609375, 0.187255859375, -0.699462890625
256, 2067786515, -6.324501991271973, 1.7849239110946655, 7.111191272735596, -0.45230746269226074, -1.017784595489502, -1.5422046184539795, 0.60302734375, 0.18896484375, -0.700439453125
257, 2067803182, -6.30610990524292, 1.7880481481552124, 7.103580951690674, -0.37338191270828247, -0.9890216588973999, -1.4451581239700317, 0.60302734375, 0.188232421875, -0.70361328125
258, 2067819849, -6.3170952796936035, 1.7675632238388062, 7.072680950164795, -0.5127918124198914, -1.0048630237579346, -1.4782624244689941, 0.60498046875, 0.187744140625, -0.70263671875
259, 2067836516, -6.298420429229736, 1.7886216640472412, 7.0879082679748535, -0.30881232023239136, -0.9461458921432495, -1.2781120538711548, 0.60400390625, 0.188720703125, -0.699951171875
260, 2067853183, -6.32697057723999, 1.7814736366271973, 7.079094409942627, -0.17049093544483185, -0.9832331538200378, -1.3211030960083008, 0.60400390625, 0.187255859375, -0.70263671875
261, 2067869850, -6.315023422241211, 1.7819492816925049, 7.101808071136475, -0.09348634630441666, -0.8370485901832581, -1.1710766553878784, 0.60400390625, 0.187255859375, -0.70263671875
262, 2067886517, -6.299929618835449, 1.7871991395950317, 7.09113073348999, -0.04016071557998657, -0.7669211030006409, -1.1090939044952393, 0.6005859375, 0.189208984375, -0.7021484375
263, 2067903184, -6.299136161804199, 1.7922443151474, 7.11143684387207, 0.019087865948677063, -0.7196272611618042, -1.188275694847107, 0.603515625, 0.187744140625, -0.7021484375
264, 2067919851, -6.307419300079346, 1.7882431745529175, 7.085891246795654, -0.03021017648279667, -0.7756294012069702, -1.1663895845413208, 0.6044921875, 0.1884765625, -0.701416015625
265, 2067936518, -6.3081464767456055, 1.7822585105895996, 7.125009059906006, -0.004738349001854658, -0.7533078789710999, -1.0630037784576416, 0.6044921875, 0.1884765625, -0.70166015625
266, 2067953185, -6.326728820800781, 1.7983181476593018, 7.103250503540039, -0.0023563681170344353, -0.77073734998703, -0.9867547750473022, 0.60302734375, 0.187744140625, -0.699951171875
267, 2067969852, -6.307442665100098, 1.7966790199279785, 7.103346824645996, -0.03799644112586975, -0.7871038913726807, -1.0646175146102905, 0.60302734375, 0.189453125, -0.698486328125
268, 2067986519, -6.322381019592285, 1.8092705011367798, 7.099458694458008, -0.06969215720891953, -0.8239734172821045, -1.211916208267212, 0.6025390625, 0.187255859375, -0.700927734375
269, 2068003186, -6.315886497497559, 1.818617582321167, 7.101469039916992, -0.2018793225288391, -0.8409674167633057, -1.309590220451355, 0.603515625, 0.186279296875, -0.699462890625
270, 2068019853, -6.326004981994629, 1.8083194494247437, 7.117919445037842, -0.2312314659357071, -0.9016821980476379, -1.3375848531723022, 0.607177734375, 0.186767578125, -0.702392578125
271, 2068036520, -6.310865879058838, 1.8009185791015625, 7.096786975860596, -0.3313002586364746, -0.8157260417938232, -1.4187387228012085, 0.60546875, 0.1884765625, -0.7041015625
272, 2068053187, -6.3037428855896, 1.8028335571289062, 7.090367317199707, -0.32256636023521423, -0.9294720888137817, -1.469861626625061, 0.603515625, 0.189453125, -0.70166015625
273, 2068069854, -6.316856861114502, 1.7997007369995117, 7.105124473571777, -0.42030438780784607, -0.6792487502098083, -1.5437413454055786, 0.604736328125, 0.187744140625, -0.699951171875
274, 2068086521, -6.313077449798584, 1.7993279695510864, 7.118868827819824, -0.27672600746154785, -0.7095549702644348, -1.6050004959106445, 0.6025390625, 0.188232421875, -0.70263671875
275, 2068103188, -6.31355619430542, 1.801761269569397, 7.089118480682373, -0.22090955078601837, -0.6644318699836731, -1.514837622642517, 0.605224609375, 0.186767578125, -0.70361328125
276, 2068119855, -6.305601119995117, 1.81191086769104, 7.0958333015441895, -0.2616337239742279, -0.5898604989051819, -1.54978609085083, 0.604736328125, 0.186767578125, -0.701904296875
277, 2068136522, -6.307492733001709, 1.7895867824554443, 7.1208977699279785, -0.2701755464076996, -0.6322238445281982, -1.5345079898834229, 0.60498046875, 0.1884765625, -0.70361328125
278, 2068153189, -6.316407680511475, 1.774997591972351, 7.104355812072754, -0.250402569770813, -0.6305078268051147, -1.4005537033081055, 0.60205078125, 0.187744140625, -0.699951171875
279, 2068169856, -6.3162760734558105, 1.7883213758468628, 7.110872268676758, 0.2988169193267822, -0.2103186696767807, -1.122783899307251, 0.606201171875, 0.187255859375, -0.698974609375
280, 2068186523, -6.318453311920166, 1.7908499240875244, 7.085391044616699, 0.3881540894508362, -0.14833594858646393, -0.8827801942825317, 0.6044921875, 0.187744140625, -0.699951171875
281, 2068203190, -6.303049564361572, 1.8056950569152832, 7.070094108581543, 0.08294032514095306, -0.44864481687545776, -1.089141607284546, 0.6025390625, 0.187744140625, -0.7021484375
282, 2068219857, -6.325897693634033, 1.806904911994934, 7.073875427246094, 0.29425787925720215, -0.28523582220077515, -1.0496981143951416, 0.605224609375, 0.187255859375, -0.701416015625
283, 2068236524, -6.3301873207092285, 1.7862857580184937, 7.079505920410156, 0.2813490629196167, -0.20450459420681, -1.0706748962402344, 0.6025390625, 0.186279296875, -0.70166015625
284, 2068253191, -6.313727855682373, 1.810662031173706, 7.0717453956604, 0.14374488592147827, -0.30094921588897705, -1.0616719722747803, 0.603759765625, 0.186279296875, -0.699462890625
285, 2068269858, -6.323805332183838, 1.822015643119812, 7.0752153396606445, -0.12938253581523895, -0.5220124125480652, -1.3745440244674683, 0.605712890625, 0.186279296875, -0.703125
286, 2068286525, -6.327359676361084, 1.8186062574386597, 7.094305992126465, -0.2603018879890442, -0.6897885203361511, -1.476879596710205, 0.60302734375, 0.187744140625, -0.700927734375
287, 2068303192, -6.3133978843688965, 1.8099769353866577, 7.080190658569336, -0.372331827878952, -0.8250491619110107, -1.5159518718719482, 0.605712890625, 0.186279296875, -0.700927734375
288, 2068319859, -6.3277482986450195, 1.7943867444992065, 7.095954418182373, -0.30777502059936523, -0.8178263902664185, -1.5755013227462769, 0.604736328125, 0.186279296875, -0.7021484375
289, 2068336526, -6.336735248565674, 1.7844353914260864, 7.108593463897705, -0.2767452597618103, -0.7596471309661865, -1.490787386894226, 0.605224609375, 0.186767578125, -0.700927734375
290, 2068353193, -6.334117412567139, 1.7999436855316162, 7.078075408935547, -0.2882709205150604, -0.6619089245796204, -1.4539176225662231, 0.6044921875, 0.187744140625, -0.7021484375
291, 2068369860, -6.323809623718262, 1.7936395406723022, 7.09442663192749, -0.20099565386772156, -0.644825279712677, -1.4019622802734375, 0.60400390625, 0.18896484375, -0.701416015625
292, 2068386527, -6.315187454223633, 1.818962812423706, 7.110898494720459, -0.2665001451969147, -0.6984071135520935, -1.4989320039749146, 0.606201171875, 0.187255859375, -0.699951171875
293, 2068403194, -6.307339668273926, 1.801692247390747, 7.066214561462402, -0.26005852222442627, -0.7364162802696228, -1.4576441049575806, 0.603515625, 0.186767578125, -0.699462890625
294, 2068419861, -6.3265533447265625, 1.7727751731872559, 7.071041584014893, -0.10410281270742416, -0.5577421188354492, -1.348265290260315, 0.6044921875, 0.187255859375, -0.700927734375
295, 2068436528, -6.330288887023926, 1.7745721340179443, 7.107639312744141, 0.03039587289094925, -0.5102306008338928, -1.169450283050537, 0.6044921875, 0.188232421875, -0.699951171875
296, 2068453195, -6.333065032958984, 1.7443784475326538, 7.088700771331787, 0.22042931616306305, -0.43905290961265564, -0.8134210109710693, 0.605224609375, 0.188232421875, -0.697021484375
297, 2068469862, -6.324969291687012, 1.8145822286605835, 7.065507411956787, 0.6272613406181335, -0.2979269027709961, -0.5248682498931885, 0.605712890625, 0.187744140625, -0.699951171875
298, 2068486529, -6.322686672210693, 1.7965880632400513, 7.071638584136963, 1.0196479558944702, -0.1287294179201126, -0.25188809633255005, 0.604736328125, 0.186279296875, -0.701416015625
299, 2068503196, -6.3272881507873535, 1.783839225769043, 7.064868927001953, 1.383707046508789, -0.1085338220000267, 0.054740745574235916, 0.605224609375, 0.184326171875, -0.698974609375
300, 2068519863, -6.318329334259033, 1.7463750839233398, 7.075725555419922, 1.7425661087036133, -0.3363843262195587, 0.43602418899536133, 0.604248046875, 0.186279296875, -0.701416015625
301, 2068536530, -6.328725814819336, 1.7813670635223389, 7.081258296966553, 2.073918104171753, -0.6299571394920349, 0.8230577707290649, 0.606201171875, 0.185302734375, -0.700439453125
302, 2068553197, -6.344461917877197, 1.828289270401001, 7.067070960998535, 2.8542091846466064, -0.7076662182807922, 1.1294113397598267, 0.603759765625, 0.18310546875, -0.698486328125
303, 2068569864, -6.338704586029053, 1.8375576734542847, 7.085258483886719, 3.545867681503296, -0.33053192496299744, 1.5648785829544067, 0.604248046875, 0.183837890625, -0.697021484375
304, 2068586531, -6.319921016693115, 1.8989049196243286, 7.058874607086182, 3.5131468772888184, -0.43327727913856506, 1.5293792486190796, 0.604736328125, 0.18212890625, -0.700439453125
305, 2068603198, -6.300354480743408, 1.900010347366333, 7.0947747230529785, 2.626908779144287, -0.7920343279838562, 1.0634456872940063, 0.605224609375, 0.18115234375, -0.700439453125
306, 2068619865, -6.317538261413574, 1.9111573696136475, 7.071262359619141, 2.3217079639434814, -0.9331345558166504, 0.6525283455848694, 0.607421875, 0.1787109375, -0.702392578125
307, 2068636532, -6.314657688140869, 1.925460696220398, 7.074456691741943, 1.8306162357330322, -0.7771660089492798, 0.39373117685317993, 0.606201171875, 0.1796875, -0.700439453125
308, 2068653199, -6.30248498916626, 1.940574049949646, 7.069931507110596, 1.1808030605316162, -0.8007554411888123, -0.018517982214689255, 0.6064453125, 0.1787109375, -0.697265625
309, 2068669866, -6.315694332122803, 1.9444658756256104, 7.063530921936035, 0.6253021359443665, -0.7719411849975586, -0.5343321561813354, 0.602783203125, 0.177001953125, -0.699462890625
310, 2068686533, -6.330593109130859, 1.943516492843628, 7.061254978179932, 0.2166898548603058, -1.2362098693847656, -0.7986167669296265, 0.604248046875, 0.175537109375, -0.699951171875
311, 2068703200, -6.303928852081299, 1.9532586336135864, 7.07570743560791, -0.7212920188903809, -2.17966628074646, -1.4889429807662964, 0.605712890625, 0.1787109375, -0.702392578125
312, 2068719867, -6.280147075653076, 1.9937759637832642, 7.108116149902344, -1.9045606851577759, -2.4875569343566895, -2.399948835372925, 0.606201171875, 0.177734375, -0.701904296875
313, 2068736534, -6.302169322967529, 1.8997209072113037, 7.117513179779053, -2.432528018951416, -2.0119290351867676, -3.0956151485443115, 0.606201171875, 0.1787109375, -0.699951171875
314, 2068753201, -6.28913688659668, 1.8915225267410278, 7.121616840362549, -2.2001185417175293, -0.8465766906738281, -3.2109365463256836, 0.604248046875, 0.1787109375, -0.699951171875
315, 2068769868, -6.287225246429443, 1.8929636478424072, 7.156269073486328, -1.575168490409851, 1.3256304264068604, -3.2669129371643066, 0.604248046875, 0.18115234375, -0.698486328125
316, 2068786535, -6.28231954574585, 1.9491229057312012, 7.09295129776001, -0.6162031888961792, 4.553957462310791, -3.45186185836792, 0.605224609375, 0.1806640625, -0.700439453125
317, 2068803202, -6.216704368591309, 1.833038091659546, 7.228326797485352, 2.0010123252868652, 11.441742897033691, -3.327692985534668, 0.606689453125, 0.18017578125, -0.699462890625
318, 2068819869, -6.336034297943115, 1.3078047037124634, 7.3513712882995605, 6.640224933624268, 21.249107360839844, -1.6089158058166504, 0.60791015625, 0.18115234375, -0.692138671875
319, 2068836536, -6.498489856719971, 0.2562573552131653, 7.63987398147583, 14.092676162719727, 28.068195343017578, 6.400860786437988, 0.613525390625, 0.177734375, -0.68701171875
320, 2068853203, -6.496450901031494, 0.05903135612607002, 8.28081226348877, 20.02399253845215, 38.028045654296875, 15.004918098449707, 0.616943359375, 0.169677734375, -0.67431640625
321, 2068869870, -5.8108625411987305, -0.5474839210510254, 10.228391647338867, 38.12552261352539, 52.25272750854492, 39.37355041503906, 0.623779296875, 0.159912109375, -0.66552734375
322, 2068886537, 5.577573776245117, -3.6801536083221436, 19.736310958862305, -75.67298126220703, 92.70616912841797, 70.76181030273438, 0.63232421875, 0.147705078125, -0.646728515625
323, 2068903204, 3.3266327381134033, -22.412052154541016, 31.366735458374023, -143.12977600097656, 96.33536529541016, 75.72738647460938, 0.644287109375, 0.14501953125, -0.625244140625
324, 2068919871, -1.8947808742523193, -25.631423950195312, 36.74253463745117, -56.013423919677734, -8.265196800231934, 3.3562493324279785, 0.64501953125, 0.142333984375, -0.62060546875
325, 2068936538, -4.390186786651611, -24.287338256835938, 37.0367546081543, 14.147550582885742, -152.42483520507812, -119.40216064453125, 0.631591796875, 0.1611328125, -0.650146484375
326, 2068953205, -5.918601036071777, -17.117717742919922, 32.305206298828125, 59.287776947021484, -243.42083740234375, -199.25155639648438, 0.6064453125, 0.1904296875, -0.701416015625
327, 2068969872, -8.672591209411621, -10.246102333068848, 28.06665802001953, 61.141414642333984, -279.7394714355469, -224.2582550048828, 0.57080078125, 0.2236328125, -0.766357421875
328, 2068986539, -10.020241737365723, -4.121176242828369, 26.070539474487305, 34.813018798828125, -274.478759765625, -210.2496337890625, 0.529296875, 0.25634765625, -0.829345703125
329, 2069003206, -12.695331573486328, -0.3487044870853424, 25.17801856994629, -4.447002410888672, -259.789306640625, -183.35704040527344, 0.48486328125, 0.289306640625, -0.888671875
330, 2069019873, -17.10187530517578, 2.706143379211426, 23.917518615722656, -25.162256240844727, -267.4860534667969, -158.83900451660156, 0.433349609375, 0.322021484375, -0.94140625
331, 2069036540, -20.2703914642334, 4.4563822746276855, 21.704242706298828, -22.74826431274414, -301.4501953125, -135.16351318359375, 0.367919921875, 0.35107421875, -0.997314453125
332, 2069053207, -19.010644912719727, 5.84130859375, 17.010372161865234, -23.917736053466797, -337.6916198730469, -117.67988586425781, 0.290283203125, 0.37451171875, -1.051513671875
333, 2069069874, -16.201995849609375, 5.979708671569824, 11.74075698852539, -29.568384170532227, -333.92108154296875, -114.2466812133789, 0.201416015625, 0.393798828125, -1.095458984375
334, 2069086541, -19.11737060546875, 8.195040702819824, 8.408452033996582, -25.8799991607666, -304.8765563964844, -119.8728256225586, 0.113037109375, 0.41455078125, -1.1279296875
335, 2069103208, -23.855419158935547, 12.31092357635498, 2.991389274597168, -24.14847183227539, -291.4183044433594, -124.9260482788086, 0.02392578125, 0.427734375, -1.1494140625
336, 2069119875, -29.201927185058594, 10.173074722290039, -8.741850852966309, -4.099298000335693, -280.8271789550781, -136.00494384765625, -0.060546875, 0.439697265625, -1.16259765625
337, 2069136542, -30.92310333251953, 6.753547668457031, -21.548856735229492, 100.35041046142578, -231.1135711669922, -136.01300048828125, -0.13671875, 0.4228515625, -1.172119140625
338, 2069153209, -29.31110191345215, 10.885298728942871, -30.2970027923584, 149.26356506347656, -147.84226989746094, -96.95148468017578, -0.192138671875, 0.383544921875, -1.179443359375
339, 2069169876, -25.032960891723633, 14.0010404586792, -31.56607437133789, 47.71894454956055, -28.69036293029785, -45.099430084228516, -0.212890625, 0.361328125, -1.184326171875
340, 2069186543, -22.71180534362793, 12.057329177856445, -26.515058517456055, -69.90058135986328, 82.07545471191406, 23.45602035522461, -0.198486328125, 0.372314453125, -1.182373046875
341, 2069203210, -21.021543502807617, 9.588541984558105, -20.249582290649414, -120.00053405761719, 160.08206176757812, 96.64752197265625, -0.156982421875, 0.402099609375, -1.17626953125
342, 2069219877, -20.263866424560547, 7.618597984313965, -13.548518180847168, -134.52745056152344, 220.6895294189453, 139.53375244140625, -0.09130859375, 0.438232421875, -1.164794921875
343, 2069236544, -20.655338287353516, 5.7901530265808105, -6.508363246917725, -120.53861999511719, 257.53521728515625, 157.8825225830078, -0.01123046875, 0.466064453125, -1.14697265625
344, 2069253211, -20.457029342651367, 4.554518222808838, -0.41429102420806885, -83.57646179199219, 267.4689025878906, 160.139892578125, 0.0703125, 0.4775390625, -1.12109375
345, 2069269878, -19.671642303466797, 3.8753299713134766, 4.173861980438232, -44.92073059082031, 263.9189758300781, 146.3342742919922, 0.151611328125, 0.479736328125, -1.0908203125
346, 2069286545, -19.16470718383789, 3.04510235786438, 7.836142539978027, -4.903843879699707, 258.668701171875, 126.31675720214844, 0.228759765625, 0.467041015625, -1.058837890625
347, 2069303212, -19.574058532714844, 3.5190787315368652, 11.745630264282227, 38.41399002075195, 251.16700744628906, 103.70537567138672, 0.29638671875, 0.447509765625, -1.025146484375
348, 2069319879, -19.056180953979492, 3.651991128921509, 15.401963233947754, 73.39669799804688, 238.9311981201172, 82.82686614990234, 0.35498046875, 0.4169921875, -0.987060546875
349, 2069336546, -16.66313362121582, 1.2458349466323853, 17.56671905517578, 120.52232360839844, 239.9125213623047, 74.39781951904297, 0.406982421875, 0.38134765625, -0.945068359375
350, 2069353213, -13.678496360778809, 2.1449317932128906, 20.309185028076172, 143.44259643554688, 258.6880187988281, 68.3105239868164, 0.4599609375, 0.3408203125, -0.89990234375
351, 2069369880, -8.975284576416016, 3.0293469429016113, 25.798124313354492, 101.0638198852539, 280.17718505859375, 69.47360229492188, 0.510009765625, 0.3046875, -0.842041015625
352, 2069386547, -3.6719977855682373, 1.7308170795440674, 32.929378509521484, 37.1409912109375, 267.3157043457031, 107.96356201171875, 0.55224609375, 0.278564453125, -0.782958984375
353, 2069403214, 0.5123414397239685, -2.866659641265869, 34.44617462158203, -10.40549373626709, 189.55763244628906, 142.2394256591797, 0.585693359375, 0.25048828125, -0.734375
354, 2069419881, 3.8066189289093018, -11.09260368347168, 31.45868492126465, 18.556049346923828, 107.5086898803711, 148.3387908935547, 0.602783203125, 0.220703125, -0.705322265625
355, 2069436548, 1.151383876800537, -11.509363174438477, 27.897750854492188, 50.46220779418945, 38.50578689575195, 118.05650329589844, 0.60791015625, 0.1875, -0.688232421875
356, 2069453215, -0.2735750079154968, -12.114413261413574, 22.91914176940918, 46.93662643432617, -9.046624183654785, 64.93628692626953, 0.606689453125, 0.165283203125, -0.689697265625
357, 2069469882, -0.1590413749217987, -10.68891716003418, 17.652109146118164, 55.04834747314453, -14.50522518157959, 22.032928466796875, 0.60546875, 0.154541015625, -0.69091796875
358, 2069486549, -1.114357352256775, -6.529747009277344, 14.112724304199219, 47.04906463623047, 7.778090476989746, -9.341387748718262, 0.60546875, 0.14794921875, -0.69091796875
359, 2069503216, -1.7692885398864746, -1.5864841938018799, 11.946273803710938, 31.146038055419922, 31.433521270751953, -25.741268157958984, 0.610595703125, 0.149658203125, -0.683837890625
360, 2069519883, -3.694258451461792, 1.5457730293273926, 14.144136428833008, 47.75335693359375, 46.101593017578125, -11.563396453857422, 0.6171875, 0.152587890625, -0.673095703125
361, 2069536550, -8.90606689453125, 7.514286994934082, 18.45149040222168, 13.94699478149414, -1.3357735872268677, 4.077416896820068, 0.62158203125, 0.14453125, -0.66796875
362, 2069553217, -1.3550935983657837, -2.7071001529693604, 10.273448944091797, -92.0833511352539, -31.535049438476562, 11.692778587341309, 0.6162109375, 0.15576171875, -0.67822265625
363, 2069569884, -6.630063533782959, -9.556343078613281, 5.242790699005127, -101.13594818115234, 17.23773956298828, -46.460853576660156, 0.6171875, 0.17626953125, -0.677978515625
364, 2069586551, -11.250120162963867, -4.278519630432129, 8.898333549499512, -48.94890594482422, -15.954599380493164, -35.39453125, 0.616943359375, 0.19482421875, -0.678955078125
365, 2069603218, -7.978859901428223, 2.9101336002349854, 7.59930944442749, -32.503204345703125, -39.49401092529297, -12.599047660827637, 0.614501953125, 0.20654296875, -0.688232421875
366, 2069619885, -6.3640265464782715, 2.1897857189178467, 7.7898478507995605, -19.254348754882812, -36.10881042480469, -4.561700344085693, 0.60986328125, 0.208984375, -0.698486328125
367, 2069636552, -6.391079902648926, 1.5158978700637817, 7.542877674102783, -10.929600715637207, -20.26955795288086, -2.853874921798706, 0.60498046875, 0.21337890625, -0.704345703125
368, 2069653219, -6.357530117034912, 1.9297451972961426, 7.228296279907227, -6.058866500854492, -11.88565731048584, -0.9291268587112427, 0.60498046875, 0.2138671875, -0.703369140625
369, 2069669886, -6.360507965087891, 1.4720584154129028, 7.229379177093506, -4.690301418304443, -9.063940048217773, -0.28791242837905884, 0.599609375, 0.212890625, -0.706787109375
370, 2069686553, -6.36413049697876, 1.291215419769287, 7.229867935180664, 2.1102755069732666, -5.669769287109375, 3.1516242027282715, 0.6005859375, 0.21142578125, -0.71142578125
371, 2069703220, -6.298571586608887, 1.6259230375289917, 7.1456098556518555, 7.132113456726074, -2.791067600250244, 6.216843605041504, 0.6015625, 0.2109375, -0.7109375
372, 2069719887, -6.293314456939697, 1.8025460243225098, 7.136394500732422, 8.13699722290039, -0.9725273847579956, 6.8143696784973145, 0.60205078125, 0.206787109375, -0.708740234375
373, 2069736554, -6.3389716148376465, 1.8719309568405151, 7.132464408874512, 9.496891021728516, 0.8201253414154053, 6.863649368286133, 0.59814453125, 0.20263671875, -0.70947265625
374, 2069753221, -6.28283166885376, 2.0382091999053955, 7.075043678283691, 8.58360767364502, 0.8704673051834106, 5.903916358947754, 0.59912109375, 0.2021484375, -0.71044921875
375, 2069769888, -6.280243396759033, 1.993924617767334, 7.044061660766602, 7.236542701721191, 0.5824649333953857, 4.41602087020874, 0.5966796875, 0.197021484375, -0.705810546875
376, 2069786555, -6.233913898468018, 2.008802890777588, 7.038504600524902, 6.050387859344482, 0.776935875415802, 3.387639284133911, 0.598876953125, 0.196533203125, -0.706787109375
377, 2069803222, -6.290589332580566, 1.9371529817581177, 7.089358806610107, 5.20722770690918, 1.5801753997802734, 2.703253746032715, 0.600830078125, 0.1943359375, -0.707763671875
378, 2069819889, -6.320252418518066, 1.8995269536972046, 7.062321186065674, 5.918525695800781, 2.838226556777954, 2.9521520137786865, 0.600830078125, 0.19287109375, -0.705078125
379, 2069836556, -6.328200817108154, 2.0043413639068604, 7.020931243896484, 5.049665927886963, 2.4098799228668213, 2.4843358993530273, 0.60205078125, 0.188720703125, -0.70556640625
380, 2069853223, -6.346440315246582, 2.0244603157043457, 6.997410297393799, 4.038283824920654, 1.7934715747833252, 2.101630687713623, 0.60009765625, 0.187744140625, -0.7060546875
381, 2069869890, -6.36947774887085, 2.082176923751831, 7.033540725708008, 3.274641752243042, 1.6432021856307983, 1.5039715766906738, 0.60302734375, 0.187255859375, -0.70458984375
382, 2069886557, -6.351224422454834, 2.1275386810302734, 6.989078521728516, 1.6083685159683228, 0.7712302803993225, 0.3741310238838196, 0.6025390625, 0.186279296875, -0.70361328125
383, 2069903224, -6.325389862060547, 2.152891159057617, 6.967187881469727, -0.14767001569271088, -0.5351517200469971, -0.8500470519065857, 0.6025390625, 0.186767578125, -0.70703125
384, 2069919891, -6.33939266204834, 2.1045801639556885, 7.006921768188477, -1.596350073814392, -1.4519966840744019, -1.9822438955307007, 0.60205078125, 0.187744140625, -0.70556640625
385, 2069936558, -6.3347554206848145, 2.070241928100586, 7.017357349395752, -2.9230751991271973, -2.1762986183166504, -2.9102816581726074, 0.6025390625, 0.188232421875, -0.70556640625
386, 2069953225, -6.364840984344482, 2.037236452102661, 7.001303195953369, -3.8236303329467773, -2.6482253074645996, -3.5277018547058105, 0.60302734375, 0.1904296875, -0.705078125
387, 2069969892, -6.3359856605529785, 2.00685453414917, 7.0549092292785645, -4.59744119644165, -2.9782192707061768, -4.004546165466309, 0.602294921875, 0.19140625, -0.707763671875
388, 2069986559, -6.343260765075684, 1.9731559753417969, 7.042575359344482, -4.69291353225708, -2.9906294345855713, -4.264771938323975, 0.600341796875, 0.19091796875, -0.706787109375
389, 2070003226, -6.346617221832275, 1.9564751386642456, 7.033790588378906, -4.47031307220459, -2.9510316848754883, -4.233165264129639, 0.602294921875, 0.194580078125, -0.709228515625
390, 2070019893, -6.347417831420898, 1.9066020250320435, 7.035799503326416, -3.814077615737915, -2.478093147277832, -3.9239044189453125, 0.598388671875, 0.1943359375, -0.710693359375
391, 2070036560, -6.334727764129639, 1.8311420679092407, 7.056087493896484, -2.7277143001556396, -2.0405640602111816, -3.0801453590393066, 0.600830078125, 0.1943359375, -0.707763671875
392, 2070053227, -6.302250862121582, 1.819864273071289, 7.097956657409668, -1.2154635190963745, -1.37418532371521, -1.9402772188186646, 0.597900390625, 0.19482421875, -0.708251953125
393, 2070069894, -6.279111385345459, 1.9351727962493896, 7.1024556159973145, -0.3324400782585144, -0.17129774391651154, -1.5126477479934692, 0.599365234375, 0.195556640625, -0.707763671875
394, 2070086561, -6.312980651855469, 1.921739101409912, 7.068488597869873, -0.024729060009121895, 0.40523770451545715, -1.5516046285629272, 0.598876953125, 0.195556640625, -0.705810546875
395, 2070103228, -6.328245639801025, 1.940839409828186, 7.058773994445801, -0.01019385363906622, 0.4561621844768524, -1.5394768714904785, 0.600830078125, 0.19384765625, -0.705810546875
396, 2070119895, -6.312480449676514, 1.9466489553451538, 7.059623718261719, -0.16639290750026703, 0.562102735042572, -1.6965597867965698, 0.602783203125, 0.196044921875, -0.707763671875
397, 2070136562, -6.318380832672119, 1.9274027347564697, 7.063822269439697, -0.32357802987098694, 0.7528403997421265, -1.8173489570617676, 0.602294921875, 0.193359375, -0.707275390625
398, 2070153229, -6.353107929229736, 1.9095168113708496, 7.050537586212158, -0.31990259885787964, 1.041105031967163, -1.7722705602645874, 0.601806640625, 0.195556640625, -0.706298828125
399, 2070169896, -6.34044885635376, 1.9065979719161987, 7.053394317626953, -0.11981622129678726, 1.4327489137649536, -1.7792631387710571, 0.599853515625, 0.195068359375, -0.70361328125
400, 2070186563, -6.321462154388428, 1.898576259613037, 7.057580947875977, 0.11024346947669983, 1.7854419946670532, -1.6627509593963623, 0.6025390625, 0.195068359375, -0.703125
401, 2070203230, -6.369461536407471, 1.8743168115615845, 7.057546615600586, 0.2703932523727417, 2.2466819286346436, -1.2981668710708618, 0.603271484375, 0.195068359375, -0.70458984375
402, 2070219897, -6.382973670959473, 1.8843337297439575, 7.043012619018555, 0.8424592614173889, 2.8369972705841064, -0.7252236008644104, 0.60302734375, 0.194091796875, -0.70458984375
403, 2070236564, -6.393901824951172, 1.9110933542251587, 7.008682727813721, 0.9759141802787781, 2.662843704223633, -0.40520569682121277, 0.603271484375, 0.195068359375, -0.705810546875
404, 2070253231, -6.396600246429443, 1.9840025901794434, 6.995157718658447, 0.7082743644714355, 2.0301074981689453, -0.5490850806236267, 0.60498046875, 0.196044921875, -0.701171875
405, 2070269898, -6.393314361572266, 1.9382208585739136, 6.991628170013428, 0.44829264283180237, 1.3784691095352173, -0.8360241055488586, 0.603515625, 0.195068359375, -0.7001953125
406, 2070286565, -6.382633209228516, 1.9760161638259888, 7.003639221191406, 0.16463202238082886, 1.0525729656219482, -1.0022121667861938, 0.603515625, 0.194091796875, -0.70263671875
407, 2070303232, -6.3802289962768555, 1.9500532150268555, 7.018276691436768, 0.056828174740076065, 1.0067647695541382, -1.2670217752456665, 0.60400390625, 0.19287109375, -0.70068359375
408, 2070319899, -6.403655052185059, 1.940564513206482, 6.981289386749268, -0.11913745850324631, 0.9138417840003967, -1.3749792575836182, 0.60595703125, 0.195068359375, -0.700439453125
409, 2070336566, -6.388775825500488, 1.9477571249008179, 6.984818458557129, -0.13664375245571136, 0.5070353746414185, -1.4217480421066284, 0.603515625, 0.195068359375, -0.698486328125
410, 2070353233, -6.39491081237793, 1.8978556394577026, 7.00600004196167, -0.011653779074549675, 0.3665241301059723, -1.3357023000717163, 0.60498046875, 0.194091796875, -0.698486328125
411, 2070369900, -6.408600330352783, 1.9477843046188354, 6.988151550292969, 0.09249386191368103, 0.3485696315765381, -1.19925057888031, 0.6064453125, 0.193115234375, -0.698486328125
412, 2070386567, -6.422451019287109, 1.9486664533615112, 6.985434055328369, -0.0437592938542366, 0.10195775330066681, -1.2411658763885498, 0.6044921875, 0.193359375, -0.701171875
413, 2070403234, -6.402129173278809, 1.9676300287246704, 6.976010799407959, -0.350484162569046, -0.5473689436912537, -1.4994186162948608, 0.603515625, 0.193359375, -0.70068359375
414, 2070419901, -6.411200046539307, 1.9399062395095825, 6.97805118560791, -0.8343336582183838, -1.2723621129989624, -1.9978034496307373, 0.6064453125, 0.193115234375, -0.697998046875
415, 2070436568, -6.413758277893066, 1.9426568746566772, 6.976412773132324, -1.173471450805664, -1.4943218231201172, -2.21951961517334, 0.60546875, 0.193603515625, -0.699462890625
416, 2070453235, -6.4080939292907715, 1.9482146501541138, 6.978692531585693, -1.287652850151062, -1.411976933479309, -2.4565398693084717, 0.6044921875, 0.196044921875, -0.699462890625
417, 2070469902, -6.388195991516113, 1.9619213342666626, 6.996338367462158, -1.4595011472702026, -1.400259017944336, -2.710681438446045, 0.60498046875, 0.195556640625, -0.698974609375
418, 2070486569, -6.398597240447998, 1.9178487062454224, 7.00511360168457, -1.7129390239715576, -1.3394161462783813, -3.0066239833831787, 0.60595703125, 0.198486328125, -0.7021484375
419, 2070503236, -6.3969011306762695, 1.8866188526153564, 6.981106758117676, -1.8057464361190796, -1.254279375076294, -3.037102460861206, 0.60498046875, 0.197998046875, -0.701171875
420, 2070519903, -6.396045684814453, 1.891179084777832, 6.987030506134033, -1.9352444410324097, -1.213312029838562, -3.1885125637054443, 0.60498046875, 0.197021484375, -0.70068359375
421, 2070536570, -6.416843414306641, 1.89870285987854, 6.99397087097168, -2.1963789463043213, -1.742214322090149, -3.4330625534057617, 0.60546875, 0.198486328125, -0.7001953125
422, 2070553237, -6.405468940734863, 1.9144936800003052, 6.981260299682617, -2.8720543384552, -2.708427667617798, -3.8096327781677246, 0.604248046875, 0.19921875, -0.701171875
423, 2070569904, -6.395970821380615, 1.914238452911377, 7.006485939025879, -3.6910083293914795, -3.762583017349243, -4.471683979034424, 0.604248046875, 0.20068359375, -0.69970703125
424, 2070586571, -6.4016242027282715, 1.8747292757034302, 6.978430271148682, -4.110954284667969, -4.24625301361084, -4.683808326721191, 0.601806640625, 0.20068359375, -0.70361328125
425, 2070603238, -6.385449409484863, 1.8560643196105957, 7.03970193862915, -4.242257595062256, -4.551326274871826, -4.722419261932373, 0.603271484375, 0.20361328125, -0.704345703125
426, 2070619905, -6.364780426025391, 1.8290716409683228, 7.045705795288086, -4.113221168518066, -4.625679969787598, -4.491968631744385, 0.602783203125, 0.20361328125, -0.706298828125
427, 2070636572, -6.361959934234619, 1.8049991130828857, 7.041013240814209, -3.7742373943328857, -4.090451717376709, -4.321722030639648, 0.60107421875, 0.206787109375, -0.704833984375
428, 2070653239, -6.346416473388672, 1.7643728256225586, 7.059124946594238, -3.514716625213623, -3.586726188659668, -4.004188060760498, 0.60009765625, 0.207275390625, -0.705810546875
429, 2070669906, -6.3440046310424805, 1.7204012870788574, 7.0762128829956055, -2.797854423522949, -3.0717055797576904, -3.5603575706481934, 0.60107421875, 0.205810546875, -0.704833984375
430, 2070686573, -6.33500337600708, 1.765982985496521, 7.062167644500732, -2.178821086883545, -2.3905227184295654, -3.011054277420044, 0.6005859375, 0.207275390625, -0.706787109375
431, 2070703240, -6.3324875831604, 1.745832920074463, 7.083907127380371, -1.692307949066162, -1.6072098016738892, -2.5916340351104736, 0.6015625, 0.209228515625, -0.708984375
432, 2070719907, -6.352070331573486, 1.7744733095169067, 7.059040546417236, -1.2131710052490234, -1.1126412153244019, -2.258335590362549, 0.60205078125, 0.208251953125, -0.706787109375
433, 2070736574, -6.3423237800598145, 1.763720154762268, 7.078369140625, -0.9182663559913635, -0.8598694801330566, -2.2265374660491943, 0.6015625, 0.209716796875, -0.708251953125
434, 2070753241, -6.362221717834473, 1.7457042932510376, 7.04728364944458, -0.7411162853240967, -0.733073890209198, -1.9847537279129028, 0.6005859375, 0.210693359375, -0.706298828125
435, 2070769908, -6.361850261688232, 1.7747987508773804, 7.06934928894043, -0.702709972858429, -0.9134257435798645, -1.8139299154281616, 0.60107421875, 0.210205078125, -0.707763671875
436, 2070786575, -6.3540825843811035, 1.7734975814819336, 7.060225486755371, -0.7753732800483704, -1.2293840646743774, -1.80405592918396, 0.60107421875, 0.209716796875, -0.7099609375
437, 2070803242, -6.339105606079102, 1.7751290798187256, 7.0801100730896, -0.7868734002113342, -1.1321711540222168, -1.6285194158554077, 0.60205078125, 0.209716796875, -0.7099609375
438, 2070819909, -6.360020637512207, 1.7664159536361694, 7.0760674476623535, -0.6647392511367798, -1.0468679666519165, -1.6949461698532104, 0.6015625, 0.21142578125, -0.705810546875
439, 2070836576, -6.348055839538574, 1.759366750717163, 7.099928379058838, -0.7051176428794861, -0.9403318762779236, -1.798344612121582, 0.60302734375, 0.2099609375, -0.706787109375
440, 2070853243, -6.360732555389404, 1.762556552886963, 7.076725959777832, -0.6476299166679382, -1.0071042776107788, -1.764113187789917, 0.6005859375, 0.210693359375, -0.707763671875
441, 2070869910, -6.3504462242126465, 1.7407587766647339, 7.09977388381958, -0.6793256402015686, -0.9067407846450806, -1.7831050157546997, 0.60009765625, 0.2109375, -0.707275390625
442, 2070886577, -6.3573503494262695, 1.7604427337646484, 7.073269367218018, -0.5974417924880981, -0.9151289463043213, -1.7349913120269775, 0.599609375, 0.209716796875, -0.707275390625
443, 2070903244, -6.356513500213623, 1.74929940700531, 7.06076192855835, -0.6780194044113159, -1.0208197832107544, -1.7571849822998047, 0.6015625, 0.209228515625, -0.707763671875
444, 2070919911, -6.352550506591797, 1.7510173320770264, 7.048916339874268, -0.6184058785438538, -1.1061102151870728, -1.7167425155639648, 0.60107421875, 0.2109375, -0.706298828125
445, 2070936578, -6.351524353027344, 1.7698990106582642, 7.074648380279541, -0.7455728650093079, -1.1950373649597168, -1.7758054733276367, 0.6015625, 0.21240234375, -0.70849609375
446, 2070953245, -6.359294891357422, 1.7476625442504883, 7.09190034866333, -0.7968878746032715, -1.1705515384674072, -1.9809119701385498, 0.6005859375, 0.212890625, -0.706787109375
447, 2070969912, -6.338397026062012, 1.725966453552246, 7.075475692749023, -0.8867628574371338, -1.1922838687896729, -1.8883088827133179, 0.60009765625, 0.212890625, -0.707275390625
448, 2070986579, -6.352652549743652, 1.7367169857025146, 7.08135986328125, -0.6911458969116211, -1.1884164810180664, -1.8329343795776367, 0.599853515625, 0.21435546875, -0.707275390625
449, 2071003246, -6.3477067947387695, 1.7286728620529175, 7.0828962326049805, -0.720690131187439, -1.0769115686416626, -1.7372967004776, 0.60107421875, 0.2109375, -0.708251953125
450, 2071019913, -6.346461296081543, 1.7318236827850342, 7.072411060333252, -0.6260127425193787, -0.8990313410758972, -1.6892086267471313, 0.60107421875, 0.21240234375, -0.7109375
451, 2071036580, -6.3396830558776855, 1.721900224685669, 7.099289417266846, -0.5098591446876526, -0.7696231603622437, -1.646371603012085, 0.603515625, 0.212890625, -0.705810546875
452, 2071053247, -6.3458781242370605, 1.7443591356277466, 7.0741705894470215, -0.5255597829818726, -0.5579086542129517, -1.5960681438446045, 0.599853515625, 0.21337890625, -0.706298828125
453, 2071069914, -6.36513090133667, 1.7306108474731445, 7.074701309204102, -0.5335253477096558, -0.7477627396583557, -1.6641210317611694, 0.60009765625, 0.2138671875, -0.706787109375
454, 2071086581, -6.351362228393555, 1.729972243309021, 7.070187568664551, -0.5554240942001343, -1.0311158895492554, -1.5862582921981812, 0.599853515625, 0.21240234375, -0.70849609375
455, 2071103248, -6.353580951690674, 1.7380493879318237, 7.07857608795166, -0.5957257151603699, -1.2013123035430908, -1.5144147872924805, 0.600341796875, 0.21337890625, -0.70849609375
456, 2071119915, -6.350071430206299, 1.7204692363739014, 7.080118179321289, -0.6412523984909058, -1.4082119464874268, -1.5793814659118652, 0.60205078125, 0.212890625, -0.70947265625
457, 2071136582, -6.346436500549316, 1.719473958015442, 7.108724117279053, -0.5692550539970398, -1.4340935945510864, -1.5001102685928345, 0.60302734375, 0.2138671875, -0.707763671875
458, 2071153249, -6.343365669250488, 1.7314940690994263, 7.05356502532959, -0.4031951129436493, -1.3649648427963257, -1.2758709192276, 0.60107421875, 0.21337890625, -0.7080078125
459, 2071169916, -6.356341361999512, 1.734182596206665, 7.081611156463623, -0.31685468554496765, -1.3649390935897827, -1.2318428754806519, 0.599853515625, 0.21435546875, -0.705322265625
460, 2071186583, -6.33464241027832, 1.7330995798110962, 7.093359470367432, -0.25056904554367065, -1.308591365814209, -1.1215033531188965, 0.599365234375, 0.21435546875, -0.705322265625
461, 2071203250, -6.324326038360596, 1.7185574769973755, 7.090373516082764, 6.851397338323295E-4, -0.9696455597877502, -1.1125900745391846, 0.598388671875, 0.212890625, -0.7099609375
462, 2071219917, -6.320765972137451, 1.6584616899490356, 7.105610370635986, 0.7257294058799744, -0.08137153834104538, -0.5113575458526611, 0.60205078125, 0.212890625, -0.707763671875
463, 2071236584, -6.358177185058594, 1.746068000793457, 7.091288089752197, 1.0895450115203857, 0.34280678629875183, -0.10423088073730469, 0.60009765625, 0.21142578125, -0.7099609375
464, 2071253251, -6.358215808868408, 1.7440152168273926, 7.072351932525635, 1.089877963066101, 0.3045157790184021, -0.08856870979070663, 0.60009765625, 0.2109375, -0.70947265625
465, 2071269918, -6.346966743469238, 1.7436712980270386, 7.067756652832031, 1.1188843250274658, 0.15857462584972382, -0.021476248279213905, 0.599853515625, 0.21240234375, -0.70849609375
466, 2071286585, -6.351390838623047, 1.7685418128967285, 7.08083438873291, 1.0868812799453735, 0.160777285695076, -0.12884467840194702, 0.6025390625, 0.2109375, -0.707275390625
467, 2071303252, -6.351909160614014, 1.774410367012024, 7.067128658294678, 1.0517277717590332, 0.14127323031425476, -0.34317174553871155, 0.60107421875, 0.2109375, -0.707763671875
468, 2071319919, -6.350910186767578, 1.7695391178131104, 7.075538635253906, 0.9174339175224304, 0.1268724948167801, -0.32397499680519104, 0.6025390625, 0.21044921875, -0.70947265625
469, 2071336586, -6.345907211303711, 1.7672407627105713, 7.06422758102417, 1.116636872291565, 0.44571220874786377, -0.26632726192474365, 0.60302734375, 0.21142578125, -0.708251953125
470, 2071353253, -6.3562493324279785, 1.7677085399627686, 7.089661598205566, 1.201613426208496, 0.6215754151344299, -0.191877543926239, 0.6015625, 0.209716796875, -0.705810546875
471, 2071369920, -6.367945671081543, 1.780898094177246, 7.061814785003662, 1.0770716667175293, 0.596987247467041, -0.25699785351753235, 0.60107421875, 0.210205078125, -0.706298828125
472, 2071386587, -6.374663352966309, 1.7922614812850952, 7.063685894012451, 0.8047446608543396, 0.23499011993408203, -0.4074084460735321, 0.60107421875, 0.208740234375, -0.706298828125
473, 2071403254, -6.36091423034668, 1.8062779903411865, 7.05861759185791, 0.555942952632904, -0.13889767229557037, -0.5419391393661499, 0.6044921875, 0.208740234375, -0.707275390625
474, 2071419921, -6.366818428039551, 1.7922234535217285, 7.041212558746338, 0.39198318123817444, -0.27987000346183777, -0.676277756690979, 0.60205078125, 0.2109375, -0.70849609375
475, 2071436588, -6.376490116119385, 1.8004956245422363, 7.054244518280029, 0.3636683523654938, -0.33237603306770325, -0.7069745659828186, 0.604736328125, 0.208251953125, -0.706787109375
476, 2071453255, -6.36142110824585, 1.7955129146575928, 7.084535598754883, 0.1308104544878006, -0.6691702008247375, -0.8527747988700867, 0.60302734375, 0.208251953125, -0.706298828125
477, 2071469922, -6.368229866027832, 1.7848445177078247, 7.0394816398620605, -0.18242643773555756, -1.0874128341674805, -0.9814144968986511, 0.6005859375, 0.207275390625, -0.704833984375
478, 2071486589, -6.35676908493042, 1.8104511499404907, 7.063329696655273, -0.3246921896934509, -1.455415964126587, -1.1236931085586548, 0.6015625, 0.207763671875, -0.706298828125
479, 2071503256, -6.361424922943115, 1.7907735109329224, 7.069132328033447, -0.4542924165725708, -1.5170272588729858, -1.253255009651184, 0.6025390625, 0.208740234375, -0.707275390625
480, 2071519923, -6.3578386306762695, 1.7993279695510864, 7.062060356140137, -0.4729897081851959, -1.5010449886322021, -1.2850018739700317, 0.604736328125, 0.206298828125, -0.708740234375
481, 2071536590, -6.3440470695495605, 1.804213523864746, 7.069169521331787, -0.5461908578872681, -1.5034526586532593, -1.440637469291687, 0.6015625, 0.208251953125, -0.707763671875
482, 2071553257, -6.360013484954834, 1.7896778583526611, 7.071481227874756, -0.7871934771537781, -1.5095614194869995, -1.626726746559143, 0.603515625, 0.2099609375, -0.705322265625
483, 2071569924, -6.3368144035339355, 1.7900676727294922, 7.040144443511963, -1.0267233848571777, -1.5747199058532715, -1.8349192142486572, 0.60205078125, 0.206298828125, -0.706787109375
484, 2071586591, -6.336103916168213, 1.78776216506958, 7.0647454261779785, -1.2355437278747559, -1.760079026222229, -2.03855299949646, 0.60205078125, 0.209228515625, -0.706787109375
485, 2071603258, -6.350107669830322, 1.8111240863800049, 7.066369533538818, -1.6275076866149902, -2.2458367347717285, -2.4294795989990234, 0.60009765625, 0.209228515625, -0.708984375
486, 2071619925, -6.351280212402344, 1.7777210474014282, 7.062007427215576, -1.9031003713607788, -2.5718863010406494, -2.765415668487549, 0.60205078125, 0.21044921875, -0.7099609375
487, 2071636592, -6.337430953979492, 1.783201813697815, 7.080424785614014, -2.0619378089904785, -2.847351312637329, -2.9250600337982178, 0.598876953125, 0.210693359375, -0.71044921875
488, 2071653259, -6.336808204650879, 1.770102620124817, 7.092520713806152, -2.1125354766845703, -3.1668951511383057, -3.0588479042053223, 0.599365234375, 0.2119140625, -0.70849609375
489, 2071669926, -6.335206031799316, 1.7506179809570312, 7.083765506744385, -2.06319260597229, -3.1457133293151855, -3.023911714553833, 0.597900390625, 0.212890625, -0.7119140625
490, 2071686593, -6.3362932205200195, 1.71190345287323, 7.1141228675842285, -1.8626195192337036, -2.8465826511383057, -2.838092088699341, 0.599365234375, 0.21337890625, -0.708984375
491, 2071703260, -6.316247463226318, 1.719732642173767, 7.136927127838135, -1.4687860012054443, -2.183738946914673, -2.4499447345733643, 0.6005859375, 0.21142578125, -0.71044921875
492, 2071719927, -6.32494592666626, 1.7117438316345215, 7.145491123199463, -1.100974678993225, -1.601062536239624, -2.0684943199157715, 0.598876953125, 0.211181640625, -0.71240234375
493, 2071736594, -6.332950115203857, 1.704918384552002, 7.102399826049805, -0.7474938035011292, -1.2044628858566284, -1.7496421337127686, 0.599365234375, 0.2138671875, -0.7109375
494, 2071753261, -6.330170631408691, 1.7243925333023071, 7.105214595794678, -0.4496821165084839, -0.9654962420463562, -1.5381832122802734, 0.599853515625, 0.21337890625, -0.70947265625
495, 2071769928, -6.32868766784668, 1.7351534366607666, 7.096808433532715, -0.38579127192497253, -1.0570231676101685, -1.465264081954956, 0.598876953125, 0.21435546875, -0.70947265625
496, 2071786595, -6.336066722869873, 1.7382363080978394, 7.112653732299805, -0.2865932881832123, -0.9721812009811401, -1.3816770315170288, 0.597412109375, 0.21484375, -0.713134765625
497, 2071803262, -6.3273210525512695, 1.7179888486862183, 7.095468521118164, -0.25333520770072937, -0.9212376475334167, -1.2589538097381592, 0.598388671875, 0.2138671875, -0.7099609375
498, 2071819929, -6.321028232574463, 1.7371405363082886, 7.124207496643066, -0.08238323777914047, -0.7883716821670532, -1.2238388061523438, 0.598876953125, 0.211181640625, -0.71142578125
499, 2071836596, -6.328510284423828, 1.7419548034667969, 7.132883548736572, 0.08819092065095901, -0.507105827331543, -1.1799001693725586, 0.598876953125, 0.212890625, -0.71240234375
500, 2071853263, -6.330012798309326, 1.7182025909423828, 7.110623359680176, 0.1330515742301941, -0.4590180218219757, -1.1485246419906616, 0.598388671875, 0.2138671875, -0.7119140625
501, 2071869930, -6.32828426361084, 1.7479405403137207, 7.124152660369873, 0.07185003161430359, -0.525585412979126, -1.2273606061935425, 0.596923828125, 0.21435546875, -0.71044921875
502, 2071886597, -6.330056667327881, 1.7406032085418701, 7.09360408782959, -0.14787493646144867, -0.7632712721824646, -1.3145205974578857, 0.596435546875, 0.2138671875, -0.70947265625
503, 2071903264, -6.325815200805664, 1.7385681867599487, 7.082903861999512, -0.13850069046020508, -0.8632120490074158, -1.371201515197754, 0.600341796875, 0.2138671875, -0.712890625
504, 2071919931, -6.335104942321777, 1.734569787979126, 7.129139423370361, -0.15153752267360687, -0.7585968971252441, -1.3149175643920898, 0.597412109375, 0.21337890625, -0.7119140625
505, 2071936598, -6.331109046936035, 1.722359538078308, 7.112939834594727, -0.12221098691225052, -0.6046134233474731, -1.2654849290847778, 0.599853515625, 0.212890625, -0.71142578125
506, 2071953265, -6.326923370361328, 1.7346246242523193, 7.101831436157227, -0.056143034249544144, -0.6954232454299927, -1.2618992328643799, 0.598388671875, 0.21435546875, -0.7099609375
507, 2071969932, -6.321373462677002, 1.741898536682129, 7.109483242034912, -0.12037968635559082, -0.843285322189331, -1.3384300470352173, 0.599365234375, 0.21240234375, -0.708984375
508, 2071986599, -6.325455665588379, 1.7500801086425781, 7.119104385375977, -0.1903407722711563, -0.7996285557746887, -1.297961950302124, 0.598876953125, 0.212890625, -0.7099609375
509, 2072003266, -6.335064888000488, 1.7335169315338135, 7.1240315437316895, -0.14691445231437683, -0.807991087436676, -1.262770175933838, 0.600341796875, 0.2138671875, -0.7109375
510, 2072019933, -6.323161602020264, 1.7315844297409058, 7.112528324127197, -0.13245607912540436, -0.765678882598877, -1.2924424409866333, 0.599365234375, 0.21240234375, -0.7109375
511, 2072036600, -6.327936172485352, 1.740443229675293, 7.101306915283203, -0.18296431005001068, -0.7624516487121582, -1.2303444147109985, 0.6005859375, 0.2109375, -0.7109375
512, 2072053267, -6.332253932952881, 1.7490260601043701, 7.108999729156494, -0.2355215698480606, -0.9446987509727478, -1.2879985570907593, 0.6015625, 0.2119140625, -0.708984375
513, 2072069934, -6.327183723449707, 1.7288553714752197, 7.104861736297607, -0.18932905793190002, -0.8374327421188354, -1.2919940948486328, 0.599365234375, 0.2119140625, -0.70849609375
514, 2072086601, -6.320241928100586, 1.7422314882278442, 7.109205722808838, -0.13976851105690002, -0.8618544936180115, -1.39536714553833, 0.598876953125, 0.21337890625, -0.71240234375
515, 2072103268, -6.310818195343018, 1.7374697923660278, 7.105568885803223, -0.147798091173172, -0.6055097579956055, -1.3338710069656372, 0.6015625, 0.212890625, -0.71044921875
516, 2072119935, -6.3297810554504395, 1.7362455129623413, 7.119182586669922, -0.22728708386421204, -0.6328897476196289, -1.374876856803894, 0.601318359375, 0.2138671875, -0.7109375
517, 2072136602, -6.3215861320495605, 1.7478382587432861, 7.088893890380859, -0.2627350091934204, -0.7302948236465454, -1.4675434827804565, 0.599853515625, 0.21240234375, -0.7109375
518, 2072153269, -6.326231479644775, 1.722244381904602, 7.097742557525635, -0.29829835891723633, -0.8423889875411987, -1.5015190839767456, 0.596923828125, 0.2138671875, -0.71142578125
519, 2072169936, -6.330292224884033, 1.7333905696868896, 7.086549758911133, -0.3614976704120636, -0.8276488780975342, -1.4540971517562866, 0.599365234375, 0.2138671875, -0.71044921875
520, 2072186603, -6.324892520904541, 1.7368383407592773, 7.089486122131348, -0.19842155277729034, -0.6958842277526855, -1.3367267847061157, 0.599365234375, 0.2138671875, -0.7099609375
521, 2072203270, -6.34670352935791, 1.7336448431015015, 7.080844879150391, -0.057910311967134476, -0.5790647268295288, -1.3344216346740723, 0.599365234375, 0.21533203125, -0.70947265625
522, 2072219937, -6.319040775299072, 1.7506545782089233, 7.09621524810791, -0.060279496014118195, -0.670181930065155, -1.3066831827163696, 0.600830078125, 0.2138671875, -0.7099609375
523, 2072236604, -6.340568542480469, 1.7322890758514404, 7.1012139320373535, -0.05832011252641678, -0.7822118401527405, -1.2713247537612915, 0.599365234375, 0.21337890625, -0.7099609375
524, 2072253271, -6.327735424041748, 1.7257237434387207, 7.093170166015625, -0.06677231192588806, -0.7494788765907288, -1.1712175607681274, 0.597412109375, 0.212890625, -0.71240234375
525, 2072269938, -6.3313093185424805, 1.7297673225402832, 7.106302261352539, -0.08954199403524399, -0.7352765202522278, -1.12123441696167, 0.599365234375, 0.21240234375, -0.70849609375
526, 2072286605, -6.31585168838501, 1.746090292930603, 7.090245723724365, -0.04229937121272087, -0.664598286151886, -1.1804251670837402, 0.599853515625, 0.2119140625, -0.71044921875
527, 2072303272, -6.345712184906006, 1.7324564456939697, 7.101256370544434, 0.07304100692272186, -0.5873120427131653, -1.1183146238327026, 0.597412109375, 0.211181640625, -0.70947265625
528, 2072319939, -6.326539039611816, 1.7463788986206055, 7.102587699890137, 0.17312262952327728, -0.4351213276386261, -1.0331138372421265, 0.597900390625, 0.212890625, -0.70947265625
529, 2072336606, -6.335031986236572, 1.7275750637054443, 7.093724727630615, 0.49998554587364197, 0.0014215048868209124, -0.8992812037467957, 0.598876953125, 0.212890625, -0.708984375
530, 2072353273, -6.329028129577637, 1.7203216552734375, 7.0963335037231445, 0.5270261168479919, 0.07452654093503952, -0.735571026802063, 0.600341796875, 0.2138671875, -0.7119140625
531, 2072369940, -6.338632583618164, 1.7651028633117676, 7.081283092498779, 0.47430238127708435, -0.10639515519142151, -0.7204212546348572, 0.60009765625, 0.2119140625, -0.70849609375
532, 2072386607, -6.3248209953308105, 1.7574031352996826, 7.06874942779541, 0.27877500653266907, -0.4199458062648773, -0.8156620264053345, 0.597900390625, 0.21337890625, -0.71142578125
533, 2072403274, -6.321937084197998, 1.7550246715545654, 7.083601951599121, 0.2976644039154053, -0.39784204959869385, -0.8433622121810913, 0.597900390625, 0.21142578125, -0.71142578125
534, 2072419941, -6.332930088043213, 1.7494486570358276, 7.094293117523193, 0.3361090421676636, -0.30541861057281494, -0.9016950130462646, 0.6015625, 0.21142578125, -0.7109375
535, 2072436608, -6.325323104858398, 1.7329374551773071, 7.105800151824951, 0.3406296670436859, -0.043477557599544525, -0.8698968887329102, 0.599609375, 0.210693359375, -0.707763671875
536, 2072453275, -6.342916011810303, 1.7523579597473145, 7.086442470550537, 0.6027500629425049, 0.17833483219146729, -0.7223293781280518, 0.599853515625, 0.21142578125, -0.7099609375
537, 2072469942, -6.352187156677246, 1.751102089881897, 7.107824325561523, 0.5407929420471191, 0.20207777619361877, -0.7459954023361206, 0.598876953125, 0.212890625, -0.70751953125
538, 2072486609, -6.34743070602417, 1.7777246236801147, 7.071863651275635, 0.46541479229927063, -0.0739566832780838, -0.7928411364555359, 0.596923828125, 0.208251953125, -0.70849609375
539, 2072503276, -6.358643531799316, 1.7762467861175537, 7.0686516761779785, 0.3620419502258301, -0.2718147933483124, -0.9249130487442017, 0.6015625, 0.210205078125, -0.70849609375
540, 2072519943, -6.339806079864502, 1.770972728729248, 7.08824348449707, 0.2365908920764923, -0.4589795470237732, -1.014467716217041, 0.597900390625, 0.21240234375, -0.71044921875
541, 2072536610, -6.334184169769287, 1.7732207775115967, 7.075559616088867, 0.1940610259771347, -0.4314843714237213, -1.0077189207077026, 0.60302734375, 0.2099609375, -0.708984375
542, 2072553277, -6.351773262023926, 1.764926552772522, 7.076886177062988, 0.15114691853523254, -0.36694031953811646, -1.040579915046692, 0.60107421875, 0.21044921875, -0.707275390625
543, 2072569944, -6.345643043518066, 1.7776646614074707, 7.072640419006348, 0.0720677301287651, -0.4063326418399811, -1.0854148864746094, 0.59912109375, 0.208740234375, -0.707275390625
544, 2072586611, -6.349442958831787, 1.7610780000686646, 7.068248271942139, 0.08988137543201447, -0.5796282291412354, -1.1000782251358032, 0.59912109375, 0.209228515625, -0.707763671875
545, 2072603278, -6.349954128265381, 1.7770891189575195, 7.079272747039795, 0.04677518829703331, -0.6116952896118164, -1.0160300731658936, 0.60107421875, 0.208251953125, -0.708251953125
546, 2072619945, -6.328784465789795, 1.7554657459259033, 7.079071521759033, 0.2898396849632263, -0.47078701853752136, -0.9125419855117798, 0.60009765625, 0.210205078125, -0.71044921875
547, 2072636612, -6.34738302230835, 1.774442434310913, 7.075530529022217, 0.4227311909198761, -0.3111046254634857, -0.8499830365180969, 0.6005859375, 0.21240234375, -0.707763671875
548, 2072653279, -6.340284824371338, 1.7573890686035156, 7.0579352378845215, 0.3328818380832672, -0.38814765214920044, -0.7190636992454529, 0.60107421875, 0.209716796875, -0.707763671875
549, 2072669946, -6.3407979011535645, 1.7741007804870605, 7.045091152191162, 0.3733370900154114, -0.39389768242836, -0.7412443161010742, 0.599609375, 0.209228515625, -0.706787109375
550, 2072686613, -6.340962886810303, 1.7907218933105469, 7.07680082321167, 0.34517598152160645, -0.5407865643501282, -0.6522530913352966, 0.6005859375, 0.208740234375, -0.70849609375
551, 2072703280, -6.342712879180908, 1.7961108684539795, 7.062694072723389, 0.3165537714958191, -0.6932845711708069, -0.7542428374290466, 0.5986328125, 0.206787109375, -0.70947265625
552, 2072719947, -6.354132652282715, 1.794430136680603, 7.068387508392334, 0.35658639669418335, -0.6455039978027344, -0.747954785823822, 0.6015625, 0.208740234375, -0.7099609375
553, 2072736614, -6.332784652709961, 1.8011304140090942, 7.082616806030273, 0.27415192127227783, -0.5828168988227844, -0.9179719090461731, 0.6025390625, 0.207763671875, -0.708251953125
554, 2072753281, -6.363394260406494, 1.7807143926620483, 7.079724311828613, 0.2142438143491745, -0.6008867025375366, -0.9048582315444946, 0.6005859375, 0.206298828125, -0.707275390625
555, 2072769948, -6.345231533050537, 1.7886041402816772, 7.06498908996582, 0.22899676859378815, -0.5940225720405579, -0.7915349006652832, 0.59912109375, 0.208740234375, -0.704833984375
556, 2072786615, -6.3391337394714355, 1.7807551622390747, 7.072511672973633, 0.7082616686820984, -0.25832974910736084, -0.6088138818740845, 0.60009765625, 0.207763671875, -0.708984375
557, 2072803282, -6.350858211517334, 1.7880666255950928, 7.060494899749756, 1.0569143295288086, 0.5814275145530701, -0.28819409012794495, 0.59912109375, 0.206787109375, -0.708740234375
558, 2072819949, -6.363156318664551, 1.824342966079712, 7.0529279708862305, 1.0253338813781738, 0.6512349247932434, -0.2386847287416458, 0.60302734375, 0.207275390625, -0.707275390625
559, 2072836616, -6.365237712860107, 1.8302769660949707, 7.063229084014893, 0.8776255249977112, 0.3523474931716919, -0.42802661657333374, 0.6005859375, 0.207763671875, -0.704833984375
560, 2072853283, -6.342587471008301, 1.8106918334960938, 7.075244903564453, 0.7303013205528259, 0.27397266030311584, -0.4393346607685089, 0.6015625, 0.205322265625, -0.706787109375
561, 2072869950, -6.370738983154297, 1.8327367305755615, 7.031886100769043, 0.665385901927948, 0.05623908340930939, -0.717168390750885, 0.5986328125, 0.20556640625, -0.703857421875
562, 2072886617, -6.374696731567383, 1.8211041688919067, 7.039884567260742, 0.1847763955593109, -0.35024088621139526, -0.9497061371803284, 0.602783203125, 0.205810546875, -0.705322265625
563, 2072903284, -6.369366645812988, 1.818737268447876, 7.050125598907471, -0.016385726630687714, -0.652003288269043, -1.0863051414489746, 0.6015625, 0.205078125, -0.704833984375
564, 2072919951, -6.356114387512207, 1.815647840499878, 7.043869972229004, -0.08952919393777847, -0.821540117263794, -1.2419341802597046, 0.6025390625, 0.206298828125, -0.706787109375
565, 2072936618, -6.36274528503418, 1.831969976425171, 7.036810398101807, -0.201456680893898, -0.9258094429969788, -1.227949619293213, 0.604248046875, 0.205810546875, -0.706298828125
566, 2072953285, -6.356497287750244, 1.806382417678833, 7.057729244232178, -0.15899083018302917, -1.019769549369812, -1.1731641292572021, 0.602294921875, 0.204833984375, -0.706787109375
567, 2072969952, -6.353022575378418, 1.8351267576217651, 7.04930305480957, -0.32501235604286194, -1.1315306425094604, -1.3702154159545898, 0.60205078125, 0.20458984375, -0.706787109375
568, 2072986619, -6.334413051605225, 1.8098381757736206, 7.057281494140625, -0.2910242974758148, -1.092727541923523, -1.2969759702682495, 0.60107421875, 0.205322265625, -0.706298828125
569, 2073003286, -6.354631423950195, 1.814336895942688, 7.06794548034668, -0.23617468774318695, -0.9578381180763245, -1.31888747215271, 0.60205078125, 0.206298828125, -0.706298828125
570, 2073019953, -6.352531909942627, 1.8048498630523682, 7.068463325500488, -0.30125656723976135, -1.0199360847473145, -1.2897274494171143, 0.6025390625, 0.205322265625, -0.707275390625
571, 2073036620, -6.357602119445801, 1.8193916082382202, 7.049434661865234, -0.1892009973526001, -1.0197824239730835, -1.2228014469146729, 0.602783203125, 0.2041015625, -0.706298828125
572, 2073053287, -6.355376720428467, 1.8278862237930298, 7.067800998687744, -0.13469718396663666, -0.9333139657974243, -1.2500662803649902, 0.6005859375, 0.205078125, -0.705322265625
573, 2073069954, -6.3518218994140625, 1.8230770826339722, 7.047773838043213, -0.05784628540277481, -0.864736020565033, -1.257993459701538, 0.60009765625, 0.2041015625, -0.705322265625
574, 2073086621, -6.362118721008301, 1.8071825504302979, 7.0678911209106445, -0.11868925392627716, -0.9071506261825562, -1.2172819375991821, 0.602294921875, 0.204833984375, -0.705810546875
575, 2073103288, -6.356812000274658, 1.808532953262329, 7.045598983764648, -0.12630902230739594, -0.8187739849090576, -1.231906771659851, 0.60107421875, 0.20361328125, -0.706787109375
576, 2073119955, -6.361851692199707, 1.8204811811447144, 7.056629657745361, -0.21724693477153778, -0.8657349348068237, -1.1366788148880005, 0.60107421875, 0.2041015625, -0.707763671875
577, 2073136622, -6.353647232055664, 1.812560796737671, 7.043531894683838, -0.13910257816314697, -0.8948692679405212, -1.2637050151824951, 0.602783203125, 0.2041015625, -0.706298828125
578, 2073153289, -6.339249610900879, 1.8152461051940918, 7.057084083557129, -0.07791382074356079, -1.0045428276062012, -1.1501765251159668, 0.6005859375, 0.20361328125, -0.704833984375
579, 2073169956, -6.352536678314209, 1.813850998878479, 7.078210830688477, -0.11737019568681717, -0.9365924596786499, -1.166479229927063, 0.6005859375, 0.206298828125, -0.706787109375
580, 2073186623, -6.354231357574463, 1.8067212104797363, 7.075205326080322, -0.15877310931682587, -0.9859864711761475, -1.1118472814559937, 0.60009765625, 0.20458984375, -0.706298828125
581, 2073203290, -6.358231544494629, 1.8241395950317383, 7.046463966369629, 0.021495459601283073, -0.9633321166038513, -0.9966286420822144, 0.60205078125, 0.20458984375, -0.708251953125
582, 2073219957, -6.34963321685791, 1.8312820196151733, 7.048525810241699, -0.03633161261677742, -0.8098735213279724, -1.0992969274520874, 0.602294921875, 0.205810546875, -0.705322265625
583, 2073236624, -6.366329193115234, 1.8324135541915894, 7.072122573852539, 0.0031055398285388947, -0.854132354259491, -1.1767498254776, 0.603759765625, 0.205810546875, -0.705810546875
584, 2073253291, -6.361745357513428, 1.8140606880187988, 7.065104007720947, 0.10555634647607803, -0.8332067728042603, -1.062888503074646, 0.6015625, 0.205078125, -0.705322265625
585, 2073269958, -6.365241527557373, 1.8302438259124756, 7.046431541442871, -0.0019593716133385897, -0.7541147470474243, -1.0373528003692627, 0.60205078125, 0.205810546875, -0.706298828125
586, 2073286625, -6.354940891265869, 1.8360497951507568, 7.057250022888184, 0.01187788974493742, -0.8741230964660645, -1.0211527347564697, 0.60205078125, 0.205078125, -0.707763671875
587, 2073303292, -6.351057529449463, 1.817152500152588, 7.091558933258057, 0.04448285698890686, -0.9092379808425903, -0.9370021820068359, 0.60107421875, 0.206298828125, -0.706787109375
588, 2073319959, -6.351197719573975, 1.8244456052780151, 7.049234867095947, 0.19408662617206573, -0.6601288914680481, -0.8840736150741577, 0.60302734375, 0.205810546875, -0.709228515625
589, 2073336626, -6.350055694580078, 1.8440234661102295, 7.047238826751709, 0.171291321516037, -0.632928192615509, -0.9546876549720764, 0.603759765625, 0.20458984375, -0.708740234375
590, 2073353293, -6.357739448547363, 1.835054636001587, 7.044021129608154, 0.039296284317970276, -0.8046229481697083, -1.0488271713256836, 0.603271484375, 0.20458984375, -0.706298828125
591, 2073369960, -6.35291862487793, 1.8458142280578613, 7.043324947357178, -0.1783924549818039, -1.020755648612976, -1.1924505233764648, 0.600830078125, 0.20361328125, -0.703857421875
592, 2073386627, -6.345679759979248, 1.842853307723999, 7.0452656745910645, -0.13216792047023773, -1.0916709899902344, -1.1499910354614258, 0.601806640625, 0.20166015625, -0.706298828125
593, 2073403294, -6.3557562828063965, 1.8475338220596313, 7.083251953125, -0.2800876796245575, -1.180053949356079, -1.208893895149231, 0.60302734375, 0.20458984375, -0.709228515625
594, 2073419961, -6.344970226287842, 1.8224009275436401, 7.053215980529785, -0.3810913562774658, -1.165595531463623, -1.1908111572265625, 0.6015625, 0.20458984375, -0.709228515625
595, 2073436628, -6.346452236175537, 1.8085837364196777, 7.067222595214844, -0.36216360330581665, -1.1291359663009644, -1.2035281658172607, 0.60107421875, 0.203125, -0.705810546875
596, 2073453295, -6.3394775390625, 1.8216114044189453, 7.045238018035889, -0.29093462228775024, -1.0253146886825562, -1.1142804622650146, 0.602783203125, 0.20458984375, -0.707275390625
597, 2073469962, -6.330280303955078, 1.838407039642334, 7.046703338623047, -0.23549595475196838, -0.9038721323013306, -1.143235683441162, 0.60107421875, 0.20458984375, -0.707763671875
598, 2073486629, -6.348778247833252, 1.837328314781189, 7.050140380859375, -0.13969168066978455, -0.8880820274353027, -1.1998910903930664, 0.601806640625, 0.203125, -0.706787109375
599, 2073503296, -6.362521648406982, 1.823683738708496, 7.050612926483154, -0.16548365354537964, -0.8878899216651917, -1.1151641607284546, 0.602294921875, 0.20263671875, -0.706298828125
600, 2073519963, -6.348914623260498, 1.8501032590866089, 7.055870056152344, -0.20581082999706268, -1.021895408630371, -1.2020552158355713, 0.60205078125, 0.20361328125, -0.709228515625
601, 2073536630, -6.335822582244873, 1.8378654718399048, 7.068191051483154, -0.2754261791706085, -1.121925950050354, -1.294414758682251, 0.601806640625, 0.20361328125, -0.706787109375
602, 2073553297, -6.350203990936279, 1.834094524383545, 7.067927837371826, -0.2930605411529541, -1.1254860162734985, -1.2688788175582886, 0.60009765625, 0.2021484375, -0.706787109375
603, 2073569964, -6.33009672164917, 1.823318600654602, 7.087771415710449, -0.2215498685836792, -0.9979219436645508, -1.2156171798706055, 0.6005859375, 0.20263671875, -0.707275390625
604, 2073586631, -6.336836338043213, 1.8316127061843872, 7.0806989669799805, -0.12167312204837799, -1.01667058467865, -1.1907472610473633, 0.601806640625, 0.20263671875, -0.707275390625
605, 2073603298, -6.348206043243408, 1.8223782777786255, 7.068985462188721, -0.1313675194978714, -0.8939472436904907, -1.1576042175292969, 0.6025390625, 0.204833984375, -0.709228515625
606, 2073619965, -6.342197895050049, 1.8399288654327393, 7.045899391174316, -0.056706517934799194, -0.8531333804130554, -1.0540393590927124, 0.60107421875, 0.20361328125, -0.708251953125
607, 2073636632, -6.34349250793457, 1.8348804712295532, 7.069293975830078, 0.0902143269777298, -0.9519343376159668, -1.0652321577072144, 0.601806640625, 0.2021484375, -0.707275390625
608, 2073653299, -6.33945369720459, 1.8429559469223022, 7.066264629364014, -0.07454575598239899, -0.8431700468063354, -1.132106900215149, 0.60009765625, 0.2041015625, -0.707763671875
609, 2073669966, -6.351263046264648, 1.8529351949691772, 7.074258804321289, -0.042132891714572906, -0.7484927177429199, -1.1352189779281616, 0.60107421875, 0.203125, -0.708740234375
610, 2073686633, -6.333901405334473, 1.8435087203979492, 7.067483901977539, -0.11247816681861877, -0.844386637210846, -1.2501174211502075, 0.600830078125, 0.20263671875, -0.706298828125
611, 2073703300, -6.325589179992676, 1.840733289718628, 7.064119338989258, -0.1378091424703598, -0.8793864846229553, -1.3597782850265503, 0.6025390625, 0.203125, -0.7099609375
612, 2073719967, -6.3487091064453125, 1.834633708000183, 7.052130699157715, -0.22618576884269714, -0.8015751242637634, -1.3119977712631226, 0.599609375, 0.20166015625, -0.7099609375
613, 2073736634, -6.336820125579834, 1.8351385593414307, 7.051332950592041, -0.20397955179214478, -0.8073122501373291, -1.361724853515625, 0.6005859375, 0.20458984375, -0.708251953125
614, 2073753301, -6.339578151702881, 1.8324073553085327, 7.0494704246521, -0.20750127732753754, -0.7824936509132385, -1.3308743238449097, 0.600341796875, 0.199951171875, -0.706787109375
615, 2073769968, -6.358514785766602, 1.8429956436157227, 7.076218605041504, -0.27013710141181946, -0.769366979598999, -1.3751329183578491, 0.6005859375, 0.20361328125, -0.705810546875
616, 2073786635, -6.336014747619629, 1.8551126718521118, 7.0910186767578125, -0.28473639488220215, -0.9223261475563049, -1.3460371494293213, 0.602294921875, 0.201171875, -0.709716796875
617, 2073803302, -6.348191738128662, 1.8370330333709717, 7.0428466796875, -0.30687856674194336, -0.8894779086112976, -1.477059006690979, 0.6005859375, 0.201171875, -0.708251953125
618, 2073819969, -6.326887130737305, 1.8465657234191895, 7.057804107666016, -0.3774799704551697, -0.870357871055603, -1.4514843225479126, 0.60107421875, 0.2041015625, -0.709228515625
619, 2073836636, -6.33801794052124, 1.8370437622070312, 7.062796115875244, -0.34830713272094727, -0.8602409958839417, -1.446656584739685, 0.6025390625, 0.2041015625, -0.709228515625
620, 2073853303, -6.340834140777588, 1.8387314081192017, 7.059743881225586, -0.2855047583580017, -0.9239014387130737, -1.423887014389038, 0.602783203125, 0.203125, -0.706787109375
621, 2073869970, -6.3393635749816895, 1.8336759805679321, 7.043056964874268, -0.22779935598373413, -0.822321355342865, -1.4725382328033447, 0.599609375, 0.20166015625, -0.706298828125
622, 2073886637, -6.336505889892578, 1.8332340717315674, 7.06428861618042, -0.21422463655471802, -0.6681329011917114, -1.427024483680725, 0.6015625, 0.20263671875, -0.709228515625
623, 2073903304, -6.329239845275879, 1.8388887643814087, 7.074798107147217, -0.1668667197227478, -0.6566070914268494, -1.3093467950820923, 0.60107421875, 0.203125, -0.706787109375
624, 2073919971, -6.32317590713501, 1.8510565757751465, 7.076176643371582, -0.21959048509597778, -0.7694182991981506, -1.3219739198684692, 0.6025390625, 0.203125, -0.71044921875
625, 2073936638, -6.3437581062316895, 1.8440014123916626, 7.057415008544922, -0.17535734176635742, -0.8086697459220886, -1.4314810037612915, 0.602294921875, 0.203125, -0.708740234375
626, 2073953305, -6.335967063903809, 1.8374485969543457, 7.0855631828308105, -0.12985637784004211, -0.7227264046669006, -1.3815617561340332, 0.601318359375, 0.203125, -0.704345703125
627, 2073969972, -6.346724987030029, 1.824172019958496, 7.07385778427124, -0.26464319229125977, -0.6606155633926392, -1.3232544660568237, 0.601318359375, 0.201171875, -0.707275390625
628, 2073986639, -6.35050106048584, 1.828906536102295, 7.079028129577637, -0.09841680526733398, -0.6623316407203674, -1.2545100450515747, 0.60107421875, 0.205078125, -0.708251953125
629, 2074003306, -6.339860916137695, 1.8396538496017456, 7.05368709564209, -0.1564679741859436, -0.7183209657669067, -1.2058074474334717, 0.6005859375, 0.20556640625, -0.70947265625
630, 2074019973, -6.336183071136475, 1.8376727104187012, 7.064732551574707, -0.06284075975418091, -0.732369601726532, -1.1255372762680054, 0.60205078125, 0.20263671875, -0.709716796875
631, 2074036640, -6.333154201507568, 1.8291093111038208, 7.05699348449707, -0.05186571553349495, -0.7827240824699402, -1.1421982049942017, 0.6005859375, 0.201171875, -0.709716796875
632, 2074053307, -6.338204383850098, 1.8528848886489868, 7.058696746826172, -0.058230478316545486, -0.8450398445129395, -1.146411657333374, 0.60009765625, 0.2021484375, -0.707275390625
633, 2074069974, -6.320985794067383, 1.845175862312317, 7.046275615692139, -0.16388286650180817, -0.8762745261192322, -1.187238335609436, 0.599609375, 0.20263671875, -0.706298828125
634, 2074086641, -6.329710483551025, 1.8487176895141602, 7.0676984786987305, -0.10727880150079727, -0.9187788367271423, -1.2519359588623047, 0.60009765625, 0.2041015625, -0.707763671875
635, 2074103308, -6.332906246185303, 1.834257960319519, 7.078901290893555, -0.16919748485088348, -0.8888246417045593, -1.2916098833084106, 0.6005859375, 0.203125, -0.707763671875
636, 2074119975, -6.332067012786865, 1.841038703918457, 7.064749717712402, -0.3133457899093628, -0.959541380405426, -1.3568456172943115, 0.6015625, 0.20263671875, -0.709228515625
637, 2074136642, -6.335794448852539, 1.8304173946380615, 7.078843593597412, -0.32164427638053894, -0.9002993106842041, -1.4306230545043945, 0.60107421875, 0.205322265625, -0.708740234375
638, 2074153309, -6.342352867126465, 1.822045087814331, 7.060118198394775, -0.2989770472049713, -1.002596378326416, -1.3938688039779663, 0.599609375, 0.20166015625, -0.705810546875
639, 2074169976, -6.351899147033691, 1.8302074670791626, 7.064428806304932, -0.35093238949775696, -0.9079445004463196, -1.3588945865631104, 0.600830078125, 0.2021484375, -0.706787109375
640, 2074186643, -6.343934059143066, 1.8313883543014526, 7.053165435791016, -0.29188233613967896, -1.0732107162475586, -1.3446284532546997, 0.601806640625, 0.2021484375, -0.708251953125
641, 2074203310, -6.342886924743652, 1.8499770164489746, 7.077754020690918, -0.29206162691116333, -1.0610957145690918, -1.399375557899475, 0.6015625, 0.2041015625, -0.70947265625
642, 2074219977, -6.331908702850342, 1.8432211875915527, 7.112791061401367, -0.33603861927986145, -0.9869341850280762, -1.4433140754699707, 0.6015625, 0.20458984375, -0.70947265625
643, 2074236644, -6.343347072601318, 1.8104861974716187, 7.071579933166504, -0.2539627254009247, -0.9355550408363342, -1.3528755903244019, 0.60205078125, 0.2041015625, -0.707763671875
644, 2074253311, -6.338801860809326, 1.8571401834487915, 7.065382480621338, -0.27292895317077637, -0.8937807679176331, -1.266291856765747, 0.599609375, 0.2041015625, -0.707275390625
645, 2074269978, -6.341673374176025, 1.8262178897857666, 7.067185878753662, -0.28310996294021606, -0.8465638160705566, -1.3189771175384521, 0.60107421875, 0.205078125, -0.707763671875
646, 2074286645, -6.328967094421387, 1.8355978727340698, 7.070677280426025, -0.23650768399238586, -0.8892729878425598, -1.2114934921264648, 0.60107421875, 0.203125, -0.707275390625
647, 2074303312, -6.330994129180908, 1.841340184211731, 7.049997806549072, -0.2087947428226471, -0.9078037738800049, -1.224466323852539, 0.602783203125, 0.20263671875, -0.705810546875
648, 2074319979, -6.329301834106445, 1.8319547176361084, 7.073781967163086, -0.15507209300994873, -1.0440376996994019, -1.210340976715088, 0.60107421875, 0.2041015625, -0.708740234375
649, 2074336646, -6.324095726013184, 1.8356730937957764, 7.092187404632568, -0.16468966007232666, -1.0015718936920166, -1.1040611267089844, 0.6005859375, 0.203125, -0.707275390625
