sep=,
DeviceTag:,A,,,,,,,,,,,,,,,,,
FirmwareVersion:,2.2.1,,,,,,,,,,,,,,,,,
AppVersion:,2022.0.1,,,,,,,,,,,,,,,,,
SyncStatus:,Synced,,,,,,,,,,,,,,,,,
OutputRate:,60Hz,,,,,,,,,,,,,,,,,
FilterProfile:,General,,,,,,,,,,,,,,,,,
Measurement Mode:,Inertial Mode - Rate quantities (with mag),,,,,,,,,,,,,,,,,
StartTime:,2022-08-16 15:05:08.653 +0300,,,,,,,,,,,,,,,,,
© Xsens Technologies B. V. 2005-2022,,,,,,,,,,,,,,,,,,,

PacketCounter,SampleTimeFine,Acc_X,Acc_Y,Acc_Z,Gyr_X,Gyr_Y,Gyr_Z,Mag_X,Mag_Y,Mag_Z
1, 4026415989, -5.312218189239502, 2.0772128105163574, 8.056863784790039, -2.369020938873291, -1.4190973043441772, -2.126340866088867, 0.760498046875, -0.189697265625, -0.588623046875
2, 4026432656, -5.2952470779418945, 2.10262393951416, 8.072137832641602, -2.3995513916015625, -1.3268017768859863, -2.217419385910034, 0.760009765625, -0.192626953125, -0.587646484375
3, 4026449323, -5.317305564880371, 2.0814425945281982, 8.078450202941895, -2.4520063400268555, -1.4507033824920654, -2.3258893489837646, 0.760498046875, -0.189208984375, -0.5859375
4, 4026465990, -5.3027472496032715, 2.0758917331695557, 8.047171592712402, -2.5667638778686523, -1.4472838640213013, -2.3829541206359863, 0.759521484375, -0.191650390625, -0.588623046875
5, 4026482657, -5.311467170715332, 2.0744967460632324, 8.049186706542969, -2.3460209369659424, -1.5665369033813477, -2.3109827041625977, 0.760009765625, -0.189697265625, -0.5859375
6, 4026499324, -5.310863018035889, 2.067403554916382, 8.017668724060059, -2.458908796310425, -1.555267095565796, -2.1192076206207275, 0.76220703125, -0.187744140625, -0.5869140625
7, 4026515991, -5.301750183105469, 2.0873353481292725, 8.06136703491211, -2.5329549312591553, -1.6864937543869019, -2.0905723571777344, 0.760009765625, -0.190185546875, -0.588623046875
8, 4026532658, -5.293891906738281, 2.097228765487671, 8.045870780944824, -2.5274996757507324, -1.769415259361267, -2.2794408798217773, 0.759033203125, -0.188720703125, -0.587646484375
9, 4026549325, -5.31148099899292, 2.0844008922576904, 8.05941104888916, -2.421168327331543, -1.7707852125167847, -2.2575926780700684, 0.761962890625, -0.188720703125, -0.588623046875
10, 4026565992, -5.300502300262451, 2.0818307399749756, 8.07947826385498, -2.4916419982910156, -1.6466789245605469, -2.231698513031006, 0.760498046875, -0.190185546875, -0.588623046875
11, 4026582659, -5.279719352722168, 2.0856716632843018, 8.079278945922852, -2.5315465927124023, -1.5037473440170288, -2.275355577468872, 0.760498046875, -0.189697265625, -0.58642578125
12, 4026599326, -5.284948348999023, 2.081799030303955, 8.047080039978027, -2.440967321395874, -1.4021930694580078, -2.3452141284942627, 0.758544921875, -0.188232421875, -0.587158203125
13, 4026615993, -5.327601432800293, 2.051893711090088, 8.068194389343262, -2.3740670680999756, -1.3511213064193726, -2.2980613708496094, 0.761962890625, -0.190185546875, -0.587890625
14, 4026632660, -5.310083389282227, 2.069112777709961, 8.060502052307129, -2.3824808597564697, -1.5168482065200806, -2.157396078109741, 0.760986328125, -0.191162109375, -0.588134765625
15, 4026649327, -5.288921356201172, 2.0771901607513428, 8.05494213104248, -2.468923330307007, -1.7204177379608154, -2.151761293411255, 0.760986328125, -0.190673828125, -0.588134765625
16, 4026665994, -5.298207759857178, 2.0719265937805176, 8.044133186340332, -2.449009656906128, -1.6332706212997437, -2.211336612701416, 0.760498046875, -0.187255859375, -0.587646484375
17, 4026682661, -5.312158107757568, 2.073075294494629, 8.052495956420898, -2.529010772705078, -1.6846498250961304, -2.111011505126953, 0.759033203125, -0.191162109375, -0.589111328125
18, 4026699328, -5.308650493621826, 2.082735538482666, 8.069799423217773, -2.6088204383850098, -1.8166706562042236, -2.1881957054138184, 0.761474609375, -0.191162109375, -0.58740234375
19, 4026715995, -5.292022228240967, 2.074446201324463, 8.079791069030762, -2.588125467300415, -1.8749396800994873, -2.1289663314819336, 0.758544921875, -0.189697265625, -0.589111328125
20, 4026732662, -5.298873424530029, 2.0772550106048584, 8.048452377319336, -2.620358943939209, -1.9532631635665894, -2.229867458343506, 0.759033203125, -0.189208984375, -0.587158203125
21, 4026749329, -5.291600704193115, 2.067133665084839, 8.087812423706055, -2.5631654262542725, -1.9335795640945435, -2.238895893096924, 0.759521484375, -0.190185546875, -0.587158203125
22, 4026765996, -5.316093921661377, 2.0617189407348633, 8.064932823181152, -2.511798620223999, -1.8496978282928467, -2.172020673751831, 0.760009765625, -0.189208984375, -0.588134765625
23, 4026782663, -5.293408393859863, 2.0556416511535645, 8.082334518432617, -2.428032636642456, -1.8587135076522827, -2.079251766204834, 0.76171875, -0.188232421875, -0.58544921875
24, 4026799330, -5.2991042137146, 2.066519260406494, 8.09140396118164, -2.3843116760253906, -1.8053752183914185, -2.0738348960876465, 0.760009765625, -0.190185546875, -0.589111328125
25, 4026815997, -5.283524036407471, 2.086731433868408, 8.090840339660645, -2.4136641025543213, -1.7822213172912598, -2.133730173110962, 0.758544921875, -0.191650390625, -0.589599609375
26, 4026832664, -5.293770790100098, 2.0633630752563477, 8.094381332397461, -2.3494787216186523, -1.6424529552459717, -2.1823558807373047, 0.760986328125, -0.188232421875, -0.589599609375
27, 4026849331, -5.301126956939697, 2.081751585006714, 8.058028221130371, -2.3361854553222656, -1.5757827758789062, -2.1110756397247314, 0.760498046875, -0.191162109375, -0.589111328125
28, 4026865998, -5.300110340118408, 2.0630593299865723, 8.047432899475098, -2.345957040786743, -1.5854772329330444, -2.088818073272705, 0.760009765625, -0.188720703125, -0.588134765625
29, 4026882665, -5.283599853515625, 2.070941686630249, 8.069591522216797, -2.2929515838623047, -1.7072274684906006, -2.0615665912628174, 0.759521484375, -0.190673828125, -0.588623046875
30, 4026899332, -5.292327880859375, 2.0856449604034424, 8.078957557678223, -2.2489871978759766, -1.790635108947754, -2.0185494422912598, 0.760009765625, -0.188232421875, -0.588623046875
31, 4026915999, -5.298669338226318, 2.056238889694214, 8.09263801574707, -2.3097660541534424, -1.8778207302093506, -1.9730230569839478, 0.762451171875, -0.190185546875, -0.589599609375
32, 4026932666, -5.289080619812012, 2.0820059776306152, 8.056392669677734, -2.1123690605163574, -1.8760662078857422, -1.7820931673049927, 0.760009765625, -0.190673828125, -0.588623046875
33, 4026949333, -5.2974066734313965, 2.0409653186798096, 8.056990623474121, -2.3368897438049316, -1.9682977199554443, -1.8145571947097778, 0.758056640625, -0.189208984375, -0.588134765625
34, 4026966000, -5.321249485015869, 2.0766637325286865, 8.072847366333008, -2.296921491622925, -2.0584158897399902, -1.7891367673873901, 0.760498046875, -0.190185546875, -0.588623046875
35, 4026982667, -5.312755584716797, 2.0828299522399902, 8.060904502868652, -2.263996124267578, -2.290966510772705, -1.5481853485107422, 0.759033203125, -0.190673828125, -0.592041015625
36, 4026999334, -5.304623603820801, 2.0791802406311035, 8.068655014038086, -2.2714109420776367, -2.494126319885254, -1.4652642011642456, 0.759033203125, -0.190673828125, -0.58642578125
37, 4027016001, -5.306724548339844, 2.077863931655884, 8.051315307617188, -2.377422332763672, -2.802375555038452, -1.3171460628509521, 0.75634765625, -0.190185546875, -0.588134765625
38, 4027032668, -5.20808219909668, 2.137775182723999, 8.038878440856934, -2.389780044555664, -2.943744659423828, -1.5385292768478394, 0.7568359375, -0.193115234375, -0.591064453125
39, 4027049335, -5.251045227050781, 2.1020047664642334, 8.073840141296387, -2.6542184352874756, -2.5477206707000732, -1.8586622476577759, 0.757080078125, -0.190185546875, -0.590087890625
40, 4027066002, -5.2333083152771, 2.079071283340454, 8.077609062194824, -2.543994665145874, -2.206777572631836, -1.9037154912948608, 0.75634765625, -0.191162109375, -0.588623046875
41, 4027082669, -5.2723188400268555, 2.042602062225342, 8.090807914733887, -2.5155386924743652, -2.017307758331299, -1.89664626121521, 0.759033203125, -0.191162109375, -0.590576171875
42, 4027099336, -5.284449100494385, 2.0828404426574707, 8.061701774597168, -2.4423885345458984, -2.1046340465545654, -1.885440707206726, 0.7568359375, -0.191650390625, -0.590087890625
43, 4027116003, -5.285058975219727, 2.073115587234497, 8.075468063354492, -2.455322742462158, -2.2916195392608643, -1.7247462272644043, 0.75634765625, -0.193115234375, -0.592041015625
44, 4027132670, -5.25817346572876, 2.096501588821411, 8.053079605102539, -2.391829490661621, -2.349107503890991, -1.809448003768921, 0.759033203125, -0.189697265625, -0.591552734375
45, 4027149337, -5.209718704223633, 2.087393283843994, 8.093045234680176, -2.3669466972351074, -2.172072410583496, -1.9951653480529785, 0.7568359375, -0.192626953125, -0.589111328125
46, 4027166004, -5.234023094177246, 2.1025238037109375, 8.090720176696777, -2.3651154041290283, -1.7717841863632202, -2.0402820110321045, 0.757080078125, -0.191162109375, -0.589111328125
47, 4027182671, -5.255469799041748, 2.0965287685394287, 8.077898979187012, -2.22348952293396, -1.5234177112579346, -2.0853731632232666, 0.7568359375, -0.191162109375, -0.591552734375
48, 4027199338, -5.238025665283203, 2.0861475467681885, 8.084128379821777, -2.3696742057800293, -1.387222170829773, -2.1939711570739746, 0.760498046875, -0.191650390625, -0.589599609375
49, 4027216005, -5.2788801193237305, 2.090085506439209, 8.062962532043457, -2.412524461746216, -1.3904238939285278, -2.3124682903289795, 0.75732421875, -0.192138671875, -0.591552734375
50, 4027232672, -5.2640862464904785, 2.070399045944214, 8.078413963317871, -2.4470374584198, -1.4822325706481934, -2.2101967334747314, 0.758056640625, -0.19384765625, -0.592529296875
51, 4027249339, -5.289462089538574, 2.077313184738159, 8.080867767333984, -2.3927509784698486, -1.6830488443374634, -2.060413360595703, 0.75634765625, -0.191162109375, -0.590576171875
52, 4027266006, -5.2740349769592285, 2.0890073776245117, 8.081025123596191, -2.506868839263916, -1.9160605669021606, -1.9161502122879028, 0.757080078125, -0.189208984375, -0.590576171875
53, 4027282673, -5.243047714233398, 2.091805934906006, 8.075328826904297, -2.4328737258911133, -1.8740429878234863, -2.158817768096924, 0.759521484375, -0.189208984375, -0.591064453125
54, 4027299340, -5.275390625, 2.091719388961792, 8.100937843322754, -2.432847738265991, -1.621411919593811, -2.131540060043335, 0.759033203125, -0.192626953125, -0.591552734375
55, 4027316007, -5.264257907867432, 2.085707902908325, 8.071098327636719, -2.3852977752685547, -1.6515835523605347, -2.0465826988220215, 0.759521484375, -0.190185546875, -0.592041015625
56, 4027332674, -5.289438724517822, 2.086259365081787, 8.073639869689941, -2.323289632797241, -1.793144941329956, -1.9717037677764893, 0.757080078125, -0.191650390625, -0.588134765625
57, 4027349341, -5.2601542472839355, 2.085418939590454, 8.081727027893066, -2.5445444583892822, -1.9766727685928345, -1.9729716777801514, 0.75634765625, -0.191162109375, -0.591064453125
58, 4027366008, -5.260756492614746, 2.0900518894195557, 8.081133842468262, -2.553957939147949, -2.0261569023132324, -2.0231988430023193, 0.759033203125, -0.190673828125, -0.59423828125
59, 4027382675, -5.250877857208252, 2.080505609512329, 8.082106590270996, -2.5280885696411133, -1.9150230884552002, -2.0994346141815186, 0.760498046875, -0.191650390625, -0.590576171875
60, 4027399342, -5.2355780601501465, 2.0816328525543213, 8.087676048278809, -2.494215726852417, -1.9400978088378906, -1.990708589553833, 0.75732421875, -0.192626953125, -0.59228515625
61, 4027416009, -5.259981632232666, 2.0847649574279785, 8.095062255859375, -2.346993923187256, -1.659536361694336, -1.964442491531372, 0.758056640625, -0.191650390625, -0.591552734375
62, 4027432676, -5.270363807678223, 2.08774995803833, 8.076974868774414, -2.2550957202911377, -1.7585806846618652, -1.9798232316970825, 0.755859375, -0.190185546875, -0.591064453125
63, 4027449343, -5.256196022033691, 2.088876485824585, 8.10152530670166, -2.3295390605926514, -1.8896920680999756, -1.9084277153015137, 0.75634765625, -0.192626953125, -0.590576171875
64, 4027466010, -5.233681678771973, 2.1180477142333984, 8.080554008483887, -2.249422788619995, -1.8302706480026245, -1.91435706615448, 0.7548828125, -0.191650390625, -0.589599609375
65, 4027482677, -5.242280960083008, 2.099135637283325, 8.095044136047363, -2.3871803283691406, -1.7388333082199097, -2.068878412246704, 0.755859375, -0.19482421875, -0.589599609375
66, 4027499344, -5.249871730804443, 2.0818910598754883, 8.042495727539062, -2.2833592891693115, -1.6953301429748535, -2.121307849884033, 0.7568359375, -0.190673828125, -0.591552734375
67, 4027516011, -5.257458686828613, 2.0795209407806396, 8.08538818359375, -2.2724480628967285, -1.6816529035568237, -2.1043648719787598, 0.75634765625, -0.192626953125, -0.591796875
68, 4027532678, -5.249250888824463, 2.098175048828125, 8.093369483947754, -2.2993927001953125, -1.7559298276901245, -2.0702743530273438, 0.758056640625, -0.191162109375, -0.592041015625
69, 4027549345, -5.278484344482422, 2.072788953781128, 8.072822570800781, -2.2307379245758057, -1.7022455930709839, -2.036081552505493, 0.758544921875, -0.192138671875, -0.592041015625
70, 4027566012, -5.260261535644531, 2.092343330383301, 8.0841064453125, -2.281067132949829, -1.8577916622161865, -2.046224355697632, 0.755859375, -0.191650390625, -0.591064453125
71, 4027582679, -5.24613094329834, 2.091721773147583, 8.084646224975586, -2.224668025970459, -1.7402547597885132, -1.9958182573318481, 0.759033203125, -0.192626953125, -0.591064453125
72, 4027599346, -5.244967460632324, 2.081610918045044, 8.06694507598877, -2.201040029525757, -1.7714511156082153, -1.9792338609695435, 0.758056640625, -0.1943359375, -0.59326171875
73, 4027616013, -5.254443168640137, 2.098684072494507, 8.077479362487793, -2.189565420150757, -1.7246694564819336, -1.8743501901626587, 0.7568359375, -0.192138671875, -0.592041015625
74, 4027632680, -5.222813129425049, 2.1111268997192383, 8.080928802490234, -2.3506052494049072, -1.7048451900482178, -1.9121159315109253, 0.757568359375, -0.193115234375, -0.592041015625
75, 4027649347, -5.2514238357543945, 2.094801902770996, 8.081111907958984, -2.333329916000366, -1.6594468355178833, -2.12554669380188, 0.7568359375, -0.1943359375, -0.591552734375
76, 4027666014, -5.261383056640625, 2.09881329536438, 8.090156555175781, -2.3971054553985596, -1.6996588706970215, -2.013017416000366, 0.75634765625, -0.192138671875, -0.591552734375
77, 4027682681, -5.2577738761901855, 2.092196464538574, 8.080887794494629, -2.4589345455169678, -1.783745288848877, -1.9846640825271606, 0.7568359375, -0.191650390625, -0.59228515625
78, 4027699348, -5.248929023742676, 2.0891504287719727, 8.08263111114502, -2.481781005859375, -1.7117865085601807, -2.165963649749756, 0.7568359375, -0.191650390625, -0.591796875
79, 4027716015, -5.228384017944336, 2.112924098968506, 8.087831497192383, -2.5206871032714844, -1.8229329586029053, -2.232633590698242, 0.75634765625, -0.193603515625, -0.59375
80, 4027732682, -5.239889621734619, 2.112119436264038, 8.09337043762207, -2.88249135017395, -1.7581708431243896, -2.455232858657837, 0.7568359375, -0.191650390625, -0.591064453125
81, 4027749349, -5.251194477081299, 2.079813003540039, 8.102216720581055, -2.794691562652588, -1.8032623529434204, -2.2162673473358154, 0.75439453125, -0.191650390625, -0.59326171875
82, 4027766016, -5.259841442108154, 2.079737901687622, 8.095515251159668, -2.5193932056427, -1.8592643737792969, -2.2304563522338867, 0.75634765625, -0.193603515625, -0.59375
83, 4027782683, -5.247560501098633, 2.067709445953369, 8.105252265930176, -2.4216039180755615, -1.8730442523956299, -2.0586464405059814, 0.758056640625, -0.192626953125, -0.590576171875
84, 4027799350, -5.2379045486450195, 2.0915141105651855, 8.071497917175293, -2.386706590652466, -1.6835227012634277, -2.073911428451538, 0.7568359375, -0.191650390625, -0.591552734375
85, 4027816017, -5.252220630645752, 2.094813585281372, 8.077741622924805, -2.2693235874176025, -1.64206862449646, -2.0567638874053955, 0.7548828125, -0.190673828125, -0.59423828125
86, 4027832684, -5.230627059936523, 2.0955095291137695, 8.084809303283691, -2.3666393756866455, -1.759400486946106, -2.0271942615509033, 0.75732421875, -0.194091796875, -0.591064453125
87, 4027849351, -5.252005100250244, 2.0886666774749756, 8.09595775604248, -2.267313241958618, -1.9190700054168701, -1.9510858058929443, 0.755859375, -0.193115234375, -0.5927734375
88, 4027866018, -5.227325916290283, 2.0880401134490967, 8.081114768981934, -2.4273669719696045, -1.9505863189697266, -2.0389630794525146, 0.7568359375, -0.190673828125, -0.59326171875
89, 4027882685, -5.227803707122803, 2.093151092529297, 8.095603942871094, -2.507368564605713, -2.005922794342041, -2.07556414604187, 0.7548828125, -0.194091796875, -0.591552734375
90, 4027899352, -5.232505798339844, 2.0896029472351074, 8.098758697509766, -2.5471575260162354, -1.9281882047653198, -2.0421648025512695, 0.75634765625, -0.194091796875, -0.5947265625
91, 4027916019, -5.238881587982178, 2.0910515785217285, 8.087984085083008, -2.382711172103882, -1.8381595611572266, -2.0446362495422363, 0.75537109375, -0.193115234375, -0.59375
92, 4027932686, -5.238768577575684, 2.0946781635284424, 8.08713436126709, -2.3865911960601807, -1.7914032936096191, -2.0921475887298584, 0.755859375, -0.194091796875, -0.59375
93, 4027949353, -5.246756076812744, 2.0950775146484375, 8.088711738586426, -2.32834792137146, -1.7100062370300293, -1.9415448904037476, 0.755859375, -0.192138671875, -0.59375
94, 4027966020, -5.252917289733887, 2.09598970413208, 8.080375671386719, -2.3330862522125244, -1.685456395149231, -1.9904652833938599, 0.75439453125, -0.191650390625, -0.59228515625
95, 4027982687, -5.235861778259277, 2.0803229808807373, 8.080181121826172, -2.3192555904388428, -1.775843858718872, -2.0347371101379395, 0.75537109375, -0.193603515625, -0.5927734375
96, 4027999354, -5.255794048309326, 2.0913097858428955, 8.090288162231445, -2.262395143508911, -1.7586703300476074, -1.9774668216705322, 0.75732421875, -0.193115234375, -0.59326171875
97, 4028016021, -5.233703136444092, 2.105605125427246, 8.124030113220215, -2.342288017272949, -1.9086008071899414, -1.8960250616073608, 0.75634765625, -0.193603515625, -0.59326171875
98, 4028032688, -5.222927093505859, 2.1067094802856445, 8.105846405029297, -2.2785441875457764, -1.8324096202850342, -1.99745774269104, 0.75634765625, -0.192138671875, -0.59423828125
99, 4028049355, -5.230576515197754, 2.1013612747192383, 8.093057632446289, -2.3639371395111084, -1.8156331777572632, -2.0509114265441895, 0.75439453125, -0.192138671875, -0.59375
100, 4028066022, -5.2311201095581055, 2.10023832321167, 8.088738441467285, -2.336031913757324, -1.8787169456481934, -2.049579381942749, 0.75537109375, -0.193603515625, -0.5947265625
101, 4028082689, -5.2302165031433105, 2.1028404235839844, 8.08366870880127, -2.310457706451416, -1.7436742782592773, -2.0800201892852783, 0.75537109375, -0.192626953125, -0.59423828125
102, 4028099356, -5.224869728088379, 2.133993148803711, 8.109539985656738, -2.457282543182373, -1.7382444143295288, -2.0675342082977295, 0.7548828125, -0.191650390625, -0.5947265625
103, 4028116023, -5.249753475189209, 2.053821325302124, 8.108518600463867, -2.3866939544677734, -1.6540042161941528, -2.169421434402466, 0.75341796875, -0.194091796875, -0.59423828125
104, 4028132690, -5.224495887756348, 2.0942132472991943, 8.10237979888916, -2.3620798587799072, -1.84714937210083, -2.1735832691192627, 0.75439453125, -0.193603515625, -0.59375
105, 4028149357, -5.223398685455322, 2.1159119606018066, 8.083663940429688, -2.4306838512420654, -1.7187530994415283, -2.1016244888305664, 0.75634765625, -0.192626953125, -0.59375
106, 4028166024, -5.236852169036865, 2.093135356903076, 8.096724510192871, -2.420886993408203, -1.5768332481384277, -2.143321990966797, 0.75634765625, -0.194091796875, -0.5927734375
107, 4028182691, -5.231811046600342, 2.0799195766448975, 8.104235649108887, -2.5347096920013428, -1.718432903289795, -2.1021111011505127, 0.755859375, -0.191162109375, -0.59423828125
108, 4028199358, -5.228312015533447, 2.096864700317383, 8.103979110717773, -2.4293136596679688, -1.7415740489959717, -2.0732967853546143, 0.7568359375, -0.193115234375, -0.592041015625
109, 4028216025, -5.242524147033691, 2.1057207584381104, 8.112436294555664, -2.362156629562378, -1.6555920839309692, -2.068174362182617, 0.75634765625, -0.193603515625, -0.59375
110, 4028232692, -5.22238302230835, 2.0953071117401123, 8.077232360839844, -2.413266897201538, -1.7019511461257935, -2.0556626319885254, 0.75537109375, -0.193115234375, -0.59521484375
111, 4028249359, -5.237225532531738, 2.101483106613159, 8.097331047058105, -2.3582639694213867, -1.701554298400879, -2.050360679626465, 0.7548828125, -0.193115234375, -0.59375
112, 4028266026, -5.247257709503174, 2.1113038063049316, 8.09415340423584, -2.3822500705718994, -1.7427650690078735, -2.064601182937622, 0.75732421875, -0.193115234375, -0.59423828125
113, 4028282693, -5.229747772216797, 2.0880043506622314, 8.093981742858887, -2.435767889022827, -1.8960955142974854, -2.03084397315979, 0.75439453125, -0.192626953125, -0.59326171875
114, 4028299360, -5.2281413078308105, 2.0911219120025635, 8.108278274536133, -2.487940549850464, -1.9908238649368286, -2.003783941268921, 0.75537109375, -0.191650390625, -0.59423828125
115, 4028316027, -5.227767467498779, 2.103273630142212, 8.106304168701172, -2.4545159339904785, -1.9466546773910522, -2.002912998199463, 0.755859375, -0.19482421875, -0.59521484375
116, 4028332694, -5.219902038574219, 2.1111788749694824, 8.102612495422363, -2.4201438426971436, -1.904047966003418, -2.1114468574523926, 0.75439453125, -0.193115234375, -0.59130859375
117, 4028349361, -5.213036060333252, 2.093751907348633, 8.136046409606934, -2.4997098445892334, -1.8304758071899414, -2.1036734580993652, 0.7568359375, -0.193603515625, -0.59375
118, 4028366028, -5.2236552238464355, 2.108081102371216, 8.113876342773438, -2.600778102874756, -1.7764842510223389, -2.20658540725708, 0.755859375, -0.194091796875, -0.5947265625
119, 4028382695, -5.212073802947998, 2.087916851043701, 8.109135627746582, -2.512951612472534, -1.7718994617462158, -2.210158348083496, 0.75634765625, -0.193115234375, -0.59521484375
120, 4028399362, -5.2263689041137695, 2.112189292907715, 8.100147247314453, -2.5096349716186523, -1.7535736560821533, -2.1972625255584717, 0.755859375, -0.192138671875, -0.5947265625
121, 4028416029, -5.22683048248291, 2.1002774238586426, 8.09804630279541, -2.5294077396392822, -1.582903265953064, -2.176439046859741, 0.75537109375, -0.192626953125, -0.59521484375
122, 4028432696, -5.209240913391113, 2.111976385116577, 8.10569953918457, -2.3538074493408203, -1.5657556056976318, -2.248807907104492, 0.75341796875, -0.193115234375, -0.5947265625
123, 4028449363, -5.2286272048950195, 2.1010360717773438, 8.108713150024414, -2.471997022628784, -1.4346058368682861, -2.1599061489105225, 0.75439453125, -0.193115234375, -0.59423828125
124, 4028466030, -5.238287448883057, 2.0896852016448975, 8.10731029510498, -2.434832811355591, -1.5443048477172852, -2.088933229446411, 0.75390625, -0.192138671875, -0.59423828125
125, 4028482697, -5.248042106628418, 2.0929250717163086, 8.101675033569336, -2.408400774002075, -1.639084815979004, -2.1563844680786133, 0.75439453125, -0.193115234375, -0.59423828125
126, 4028499364, -5.223624229431152, 2.0824570655822754, 8.091687202453613, -2.6320254802703857, -1.4523553848266602, -2.290479898452759, 0.75732421875, -0.1943359375, -0.59423828125
127, 4028516031, -5.1969895362854, 2.1101303100585938, 8.123685836791992, -2.634446144104004, -1.4720133543014526, -2.3335864543914795, 0.7548828125, -0.193115234375, -0.5927734375
128, 4028532698, -5.229089736938477, 2.0962870121002197, 8.11597728729248, -2.572821617126465, -1.3551424741744995, -2.298445224761963, 0.75537109375, -0.192626953125, -0.59423828125
129, 4028549365, -5.218282699584961, 2.100146770477295, 8.119085311889648, -2.5729877948760986, -1.325060248374939, -2.24761700630188, 0.75537109375, -0.19482421875, -0.5927734375
130, 4028566032, -5.228734016418457, 2.0893843173980713, 8.10142993927002, -2.453504800796509, -1.5633736848831177, -2.1899116039276123, 0.75537109375, -0.192138671875, -0.59619140625
131, 4028582699, -5.220438003540039, 2.0993130207061768, 8.110336303710938, -2.36660099029541, -1.6452702283859253, -2.1457295417785645, 0.7548828125, -0.194580078125, -0.5947265625
132, 4028599366, -5.205637454986572, 2.1169593334198, 8.11013412475586, -2.4359853267669678, -1.4435316324234009, -2.1456141471862793, 0.755859375, -0.194091796875, -0.5947265625
133, 4028616033, -5.235536575317383, 2.0946807861328125, 8.10960865020752, -2.4886839389801025, -1.5929564237594604, -2.3258252143859863, 0.7548828125, -0.192626953125, -0.59423828125
134, 4028632700, -5.2261576652526855, 2.100349187850952, 8.10707950592041, -2.5304322242736816, -1.5234179496765137, -2.305309534072876, 0.75537109375, -0.194091796875, -0.59326171875
135, 4028649367, -5.2336578369140625, 2.0912725925445557, 8.109597206115723, -2.6190013885498047, -1.4634071588516235, -2.331716537475586, 0.75390625, -0.191650390625, -0.59375
136, 4028666034, -5.251167297363281, 2.0820088386535645, 8.102426528930664, -2.534044027328491, -1.61699378490448, -2.2548911571502686, 0.755859375, -0.192138671875, -0.596923828125
137, 4028682701, -5.226607322692871, 2.0974693298339844, 8.115068435668945, -2.4186971187591553, -1.5892809629440308, -2.1858389377593994, 0.755859375, -0.193115234375, -0.59375
138, 4028699368, -5.224302291870117, 2.098255157470703, 8.116965293884277, -2.3884353637695312, -1.5596596002578735, -2.1682045459747314, 0.75390625, -0.194091796875, -0.59228515625
139, 4028716035, -5.21989107131958, 2.088637590408325, 8.097203254699707, -2.48740291595459, -1.617570161819458, -2.275752544403076, 0.75390625, -0.192138671875, -0.59228515625
140, 4028732702, -5.219672679901123, 2.085836410522461, 8.103595733642578, -2.4952149391174316, -1.5756677389144897, -2.3439464569091797, 0.75439453125, -0.194091796875, -0.59375
141, 4028749369, -5.24070405960083, 2.0768067836761475, 8.101256370544434, -2.525259017944336, -1.6217323541641235, -2.3704302310943604, 0.75341796875, -0.193115234375, -0.59375
142, 4028766036, -5.223484992980957, 2.089081048965454, 8.098367691040039, -2.4563732147216797, -1.7104802131652832, -2.30452823638916, 0.75390625, -0.193115234375, -0.59375
143, 4028782703, -5.199524402618408, 2.093561887741089, 8.100147247314453, -2.4405829906463623, -1.6063004732131958, -2.200169324874878, 0.75537109375, -0.192626953125, -0.5947265625
144, 4028799370, -5.211990833282471, 2.098973274230957, 8.13399887084961, -2.550999402999878, -1.5583791732788086, -2.32136869430542, 0.75390625, -0.192138671875, -0.59375
145, 4028816037, -5.2288007736206055, 2.089226484298706, 8.115777015686035, -2.693175792694092, -1.6836127042770386, -2.3607614040374756, 0.7548828125, -0.192626953125, -0.59228515625
146, 4028832704, -5.229922771453857, 2.0866570472717285, 8.100595474243164, -2.602327346801758, -1.6409547328948975, -2.315657377243042, 0.7548828125, -0.194091796875, -0.5927734375
147, 4028849371, -5.219658374786377, 2.076808452606201, 8.119294166564941, -2.4716386795043945, -1.6765562295913696, -2.321509599685669, 0.7548828125, -0.191162109375, -0.59375
148, 4028866038, -5.2181501388549805, 2.0860037803649902, 8.095263481140137, -2.5629990100860596, -1.6213735342025757, -2.22922682762146, 0.75341796875, -0.190673828125, -0.5947265625
149, 4028882705, -5.227662563323975, 2.1020188331604004, 8.101741790771484, -2.574831962585449, -1.59280264377594, -2.3009426593780518, 0.75537109375, -0.194091796875, -0.59326171875
150, 4028899372, -5.231714248657227, 2.095823049545288, 8.106633186340332, -2.513874053955078, -1.5881924629211426, -2.2874832153320312, 0.75732421875, -0.192626953125, -0.597412109375
151, 4028916039, -5.239045143127441, 2.0842905044555664, 8.110167503356934, -2.5754082202911377, -1.612281084060669, -2.3873085975646973, 0.75390625, -0.192138671875, -0.59375
152, 4028932706, -5.237475395202637, 2.059727191925049, 8.097027778625488, -2.5534582138061523, -1.6256892681121826, -2.2952821254730225, 0.75390625, -0.192626953125, -0.59521484375
153, 4028949373, -5.188350200653076, 2.12198805809021, 8.102328300476074, -2.469128370285034, -1.648074984550476, -2.263087034225464, 0.7568359375, -0.192626953125, -0.59521484375
154, 4028966040, -5.215786457061768, 2.098694086074829, 8.104406356811523, -2.459920883178711, -1.6277767419815063, -2.331012010574341, 0.75732421875, -0.192138671875, -0.59375
155, 4028982707, -5.226414203643799, 2.0589911937713623, 8.104913711547852, -2.3470451831817627, -1.4404710531234741, -2.251087188720703, 0.755859375, -0.194091796875, -0.59521484375
156, 4028999374, -5.23420524597168, 2.078122615814209, 8.118440628051758, -2.5141940116882324, -1.3138163089752197, -2.3260557651519775, 0.755859375, -0.191650390625, -0.59423828125
157, 4029016041, -5.2256855964660645, 2.0843453407287598, 8.096344947814941, -2.479706287384033, -1.388656497001648, -2.3098816871643066, 0.75439453125, -0.192626953125, -0.59423828125
158, 4029032708, -5.228303909301758, 2.084040403366089, 8.102550506591797, -2.5332627296447754, -1.4315835237503052, -2.4060826301574707, 0.7529296875, -0.191650390625, -0.596435546875
159, 4029049375, -5.223536968231201, 2.076910972595215, 8.099593162536621, -2.5726423263549805, -1.3759270906448364, -2.507624626159668, 0.75537109375, -0.191650390625, -0.595703125
160, 4029066042, -5.217855453491211, 2.081228017807007, 8.10230827331543, -2.5307140350341797, -1.3534647226333618, -2.452057361602783, 0.7568359375, -0.191650390625, -0.5947265625
161, 4029082709, -5.214361667633057, 2.0876283645629883, 8.0980863571167, -2.511350631713867, -1.2719651460647583, -2.3223929405212402, 0.7548828125, -0.191162109375, -0.59423828125
162, 4029099376, -5.231800079345703, 2.101604700088501, 8.09591007232666, -2.5011181831359863, -1.1133840084075928, -2.404353380203247, 0.75634765625, -0.191650390625, -0.59423828125
163, 4029116043, -5.233489990234375, 2.070317506790161, 8.108064651489258, -2.4988391399383545, -1.1158045530319214, -2.4100399017333984, 0.7568359375, -0.191162109375, -0.5947265625
164, 4029132710, -5.228071689605713, 2.0648176670074463, 8.107145309448242, -2.46071457862854, -1.1768139600753784, -2.5251946449279785, 0.755859375, -0.190185546875, -0.5966796875
165, 4029149377, -5.247654438018799, 2.045257806777954, 8.109851837158203, -2.250485420227051, -1.2283337116241455, -2.3344950675964355, 0.7548828125, -0.190185546875, -0.59326171875
166, 4029166044, -5.243525505065918, 2.065253973007202, 8.10478687286377, -2.3359551429748535, -1.1818851232528687, -2.2760467529296875, 0.758056640625, -0.192138671875, -0.59521484375
167, 4029182711, -5.235227108001709, 2.0857298374176025, 8.093071937561035, -2.3728373050689697, -1.3693188428878784, -2.258732795715332, 0.75537109375, -0.191162109375, -0.5966796875
168, 4029199378, -5.2248663902282715, 2.083963632583618, 8.06480598449707, -2.4459617137908936, -1.4578620195388794, -2.238754987716675, 0.755859375, -0.188720703125, -0.59228515625
169, 4029216045, -5.214132308959961, 2.0994977951049805, 8.123392105102539, -2.5096988677978516, -1.3650161027908325, -2.387385606765747, 0.75634765625, -0.191162109375, -0.59326171875
170, 4029232712, -5.222901344299316, 2.078077793121338, 8.106245040893555, -2.5712461471557617, -1.2456096410751343, -2.426175832748413, 0.758056640625, -0.192626953125, -0.5927734375
171, 4029249379, -5.248180389404297, 2.0769245624542236, 8.105642318725586, -2.5675837993621826, -1.1979572772979736, -2.437586545944214, 0.758544921875, -0.192626953125, -0.5947265625
172, 4029266046, -5.2621846199035645, 2.0613439083099365, 8.092121124267578, -2.5361437797546387, -1.3135087490081787, -2.383312702178955, 0.7568359375, -0.190673828125, -0.5966796875
173, 4029282713, -5.247992515563965, 2.074388027191162, 8.080741882324219, -2.500657320022583, -1.518282413482666, -2.369750738143921, 0.759521484375, -0.192626953125, -0.59521484375
174, 4029299380, -5.248835563659668, 2.0702245235443115, 8.120532035827637, -2.418466567993164, -1.5358145236968994, -2.377166271209717, 0.75537109375, -0.190185546875, -0.59423828125
175, 4029316047, -5.221441268920898, 2.0925989151000977, 8.117110252380371, -2.491847038269043, -1.3696136474609375, -2.3301923274993896, 0.7568359375, -0.190673828125, -0.595703125
176, 4029332714, -5.222242832183838, 2.0692341327667236, 8.118837356567383, -2.368931293487549, -1.2308952808380127, -2.4052634239196777, 0.7568359375, -0.189697265625, -0.59375
177, 4029349381, -5.2552080154418945, 2.0365517139434814, 8.11942195892334, -2.4814608097076416, -1.4384733438491821, -2.4504055976867676, 0.7578125, -0.190673828125, -0.59375
178, 4029366048, -5.251824378967285, 2.0754618644714355, 8.089336395263672, -2.4719204902648926, -1.5514382123947144, -2.356189250946045, 0.75732421875, -0.193115234375, -0.59423828125
179, 4029382715, -5.23632287979126, 2.06679105758667, 8.08694839477539, -2.366536855697632, -1.4540458917617798, -2.297651529312134, 0.759033203125, -0.189697265625, -0.5927734375
180, 4029399382, -5.236407279968262, 2.0715041160583496, 8.108537673950195, -2.344036102294922, -1.4185467958450317, -2.3553824424743652, 0.755859375, -0.189208984375, -0.59521484375
181, 4029416049, -5.2420759201049805, 2.065373182296753, 8.102218627929688, -2.3384392261505127, -1.3765543699264526, -2.2637269496917725, 0.758056640625, -0.189697265625, -0.59326171875
182, 4029432716, -5.248544216156006, 2.063047170639038, 8.115211486816406, -2.3896777629852295, -1.39110267162323, -2.369661331176758, 0.7568359375, -0.191162109375, -0.598388671875
183, 4029449383, -5.248469829559326, 2.067798376083374, 8.103839874267578, -2.3964526653289795, -1.4146791696548462, -2.2382431030273438, 0.7568359375, -0.189208984375, -0.59423828125
184, 4029466050, -5.234669208526611, 2.0759217739105225, 8.101584434509277, -2.38254451751709, -1.4379353523254395, -2.2966270446777344, 0.7568359375, -0.190185546875, -0.5927734375
185, 4029482717, -5.24923849105835, 2.0710995197296143, 8.105671882629395, -2.370032787322998, -1.536198616027832, -2.298701524734497, 0.75537109375, -0.190185546875, -0.5927734375
186, 4029499384, -5.256157875061035, 2.0657246112823486, 8.100417137145996, -2.3477113246917725, -1.4412009716033936, -2.2156782150268555, 0.757568359375, -0.191650390625, -0.5927734375
187, 4029516051, -5.260294437408447, 2.0704405307769775, 8.10644245147705, -2.3352251052856445, -1.458963394165039, -2.203883171081543, 0.75732421875, -0.190185546875, -0.59375
188, 4029532718, -5.2320122718811035, 2.0748417377471924, 8.098003387451172, -2.3580973148345947, -1.4978435039520264, -2.2204036712646484, 0.7568359375, -0.188232421875, -0.59228515625
189, 4029549385, -5.244400501251221, 2.069296360015869, 8.101317405700684, -2.3689188957214355, -1.4379996061325073, -2.279658794403076, 0.75732421875, -0.189208984375, -0.59228515625
190, 4029566052, -5.244807720184326, 2.07525634765625, 8.110222816467285, -2.4009857177734375, -1.2923400402069092, -2.3526546955108643, 0.75634765625, -0.192138671875, -0.59423828125
191, 4029582719, -5.244457721710205, 2.054842948913574, 8.110589981079102, -2.2886743545532227, -1.30874502658844, -2.368739366531372, 0.75732421875, -0.192138671875, -0.592041015625
192, 4029599386, -5.2664475440979, 2.060774326324463, 8.103418350219727, -2.028769016265869, -1.2311897277832031, -2.200591802597046, 0.75537109375, -0.189208984375, -0.5927734375
193, 4029616053, -5.2454423904418945, 2.0744481086730957, 8.105937004089355, -2.1780142784118652, -1.245686411857605, -2.2152936458587646, 0.757568359375, -0.189697265625, -0.590576171875
194, 4029632720, -5.24129581451416, 2.062579393386841, 8.07795524597168, -2.335404396057129, -1.3865946531295776, -2.32944917678833, 0.75732421875, -0.190673828125, -0.59375
195, 4029649387, -5.251422882080078, 2.091031312942505, 8.092473983764648, -2.3893959522247314, -1.4922600984573364, -2.241495370864868, 0.75634765625, -0.190673828125, -0.59228515625
196, 4029666054, -5.242529392242432, 2.070655107498169, 8.097756385803223, -2.4117937088012695, -1.5096124410629272, -2.292963981628418, 0.757568359375, -0.188232421875, -0.590087890625
197, 4029682721, -5.218908309936523, 2.06736159324646, 8.099868774414062, -2.449906349182129, -1.4569016695022583, -2.364961624145508, 0.757568359375, -0.190185546875, -0.5927734375
198, 4029699388, -5.249911308288574, 2.0722603797912598, 8.079692840576172, -2.4738540649414062, -1.2610924243927002, -2.4133565425872803, 0.757568359375, -0.190673828125, -0.591552734375
199, 4029716055, -5.266666412353516, 2.0583932399749756, 8.106173515319824, -2.4546189308166504, -1.3170946836471558, -2.345278263092041, 0.75732421875, -0.190673828125, -0.5927734375
200, 4029732722, -5.270352363586426, 2.061450481414795, 8.076301574707031, -2.355600118637085, -1.4565173387527466, -2.3478264808654785, 0.758056640625, -0.191650390625, -0.59521484375
201, 4029749389, -5.268428802490234, 2.0573062896728516, 8.082453727722168, -2.3264272212982178, -1.3644399642944336, -2.3281946182250977, 0.755859375, -0.189697265625, -0.5927734375
202, 4029766056, -5.252374649047852, 2.078634738922119, 8.105053901672363, -2.454183340072632, -1.3154940605163574, -2.2867789268493652, 0.75634765625, -0.191162109375, -0.59375
203, 4029782723, -5.26595401763916, 2.056001901626587, 8.089275360107422, -2.355766534805298, -1.3306565284729004, -2.3428449630737305, 0.759033203125, -0.189697265625, -0.5927734375
204, 4029799390, -5.281099796295166, 2.053675889968872, 8.090839385986328, -2.291978120803833, -1.4994184970855713, -2.243685245513916, 0.7568359375, -0.190185546875, -0.59228515625
205, 4029816057, -5.246078968048096, 2.06832218170166, 8.11177921295166, -2.2897112369537354, -1.5626307725906372, -2.182675838470459, 0.75732421875, -0.189697265625, -0.59228515625
206, 4029832724, -5.255402088165283, 2.0643022060394287, 8.093748092651367, -2.2619340419769287, -1.5812382698059082, -2.2209153175354004, 0.758056640625, -0.188232421875, -0.59326171875
207, 4029849391, -5.245899200439453, 2.0799031257629395, 8.085570335388184, -2.255582332611084, -1.4768922328948975, -2.2618443965911865, 0.759521484375, -0.188232421875, -0.59423828125
208, 4029866058, -5.245723724365234, 2.0819008350372314, 8.0831298828125, -2.249704360961914, -1.2962459325790405, -2.291299343109131, 0.7568359375, -0.189697265625, -0.5927734375
209, 4029882725, -5.250866889953613, 2.0650503635406494, 8.100415229797363, -2.383671522140503, -1.1857911348342896, -2.515897274017334, 0.75634765625, -0.192138671875, -0.59228515625
210, 4029899392, -5.260721683502197, 2.0730648040771484, 8.096302032470703, -2.36733078956604, -1.0681393146514893, -2.5025784969329834, 0.757568359375, -0.191650390625, -0.592041015625
211, 4029916059, -5.23012638092041, 2.05836820602417, 8.057193756103516, -2.2717695236206055, -1.1483324766159058, -2.4374451637268066, 0.757080078125, -0.189697265625, -0.590087890625
212, 4029932726, -5.270847320556641, 2.064481735229492, 8.093798637390137, -2.2298033237457275, -1.1837036609649658, -2.4377782344818115, 0.75732421875, -0.189697265625, -0.591796875
213, 4029949393, -5.263772487640381, 2.083608627319336, 8.058891296386719, -2.1606361865997314, -1.3102562427520752, -2.4195425510406494, 0.75634765625, -0.1875, -0.59228515625
214, 4029966060, -5.277431964874268, 2.0441665649414062, 8.096772193908691, -2.2801451683044434, -1.2168465852737427, -2.533198595046997, 0.758544921875, -0.190185546875, -0.592041015625
215, 4029982727, -5.280473232269287, 2.0659236907958984, 8.072357177734375, -1.8954166173934937, -1.7263600826263428, -2.247399091720581, 0.7568359375, -0.188232421875, -0.590576171875
216, 4029999394, -5.2712812423706055, 2.0718350410461426, 8.091978073120117, -2.319575786590576, -1.467159390449524, -2.359339714050293, 0.759033203125, -0.188720703125, -0.59228515625
217, 4030016061, -5.271055698394775, 2.056802988052368, 8.096261024475098, -2.4697811603546143, -1.4404966831207275, -2.414137363433838, 0.758056640625, -0.189208984375, -0.591552734375
218, 4030032728, -5.256793975830078, 2.070221185684204, 8.088829040527344, -2.5040640830993652, -1.4566583633422852, -2.387718439102173, 0.760498046875, -0.189208984375, -0.591552734375
219, 4030049395, -5.277346611022949, 2.048006534576416, 8.063291549682617, -2.4261889457702637, -1.4182522296905518, -2.3585329055786133, 0.757568359375, -0.189208984375, -0.591796875
220, 4030066062, -5.239529132843018, 2.095130443572998, 8.070145606994629, -2.390535593032837, -1.3272500038146973, -2.564253568649292, 0.758056640625, -0.18701171875, -0.5927734375
221, 4030082729, -5.293501853942871, 2.04929256439209, 8.107061386108398, -2.2749199867248535, -1.2250298261642456, -2.5533556938171387, 0.75732421875, -0.189697265625, -0.591796875
222, 4030099396, -5.274031639099121, 2.0422301292419434, 8.06686019897461, -2.1496613025665283, -1.4321212768554688, -2.3485183715820312, 0.759033203125, -0.188232421875, -0.5927734375
223, 4030116063, -5.249144554138184, 2.0604307651519775, 8.094372749328613, -2.2080705165863037, -1.4598597288131714, -2.3295648097991943, 0.75732421875, -0.189208984375, -0.59326171875
224, 4030132730, -5.244029998779297, 2.0602598190307617, 8.07371711730957, -2.2864842414855957, -1.3479324579238892, -2.3264272212982178, 0.757568359375, -0.1875, -0.591552734375
225, 4030149397, -5.285880088806152, 2.066545009613037, 8.086021423339844, -2.3630661964416504, -1.2455072402954102, -2.39093279838562, 0.760498046875, -0.190185546875, -0.59326171875
226, 4030166064, -5.296802520751953, 2.0547375679016113, 8.119653701782227, -2.2771353721618652, -1.3072848320007324, -2.4004604816436768, 0.758056640625, -0.188232421875, -0.589599609375
227, 4030182731, -5.288434028625488, 2.061624526977539, 8.07703685760498, -2.137225866317749, -1.469989538192749, -2.2592575550079346, 0.75732421875, -0.188720703125, -0.591552734375
228, 4030199398, -5.270213603973389, 2.0722994804382324, 8.089338302612305, -2.2246291637420654, -1.6287370920181274, -2.305065870285034, 0.75732421875, -0.188720703125, -0.59375
229, 4030216065, -5.263371467590332, 2.0767154693603516, 8.092761993408203, -2.2970752716064453, -1.553820013999939, -2.374361515045166, 0.758056640625, -0.190185546875, -0.591552734375
230, 4030232732, -5.2802653312683105, 2.0306410789489746, 8.070430755615234, -2.2115159034729004, -1.5964781045913696, -2.276034355163574, 0.759521484375, -0.188720703125, -0.590576171875
231, 4030249399, -5.2724738121032715, 2.0657644271850586, 8.048775672912598, -2.1907436847686768, -1.5309478044509888, -2.229508399963379, 0.757568359375, -0.188720703125, -0.590087890625
232, 4030266066, -5.283284664154053, 2.062513828277588, 8.086496353149414, -2.1882336139678955, -1.6427985429763794, -2.239382266998291, 0.760009765625, -0.189208984375, -0.589599609375
233, 4030282733, -5.276958465576172, 2.0681629180908203, 8.083645820617676, -2.20039963722229, -1.656053066253662, -2.0737192630767822, 0.759521484375, -0.189208984375, -0.59326171875
234, 4030299400, -5.2725677490234375, 2.0718283653259277, 8.090371131896973, -2.250767230987549, -1.8338309526443481, -2.110473871231079, 0.757568359375, -0.188720703125, -0.591064453125
235, 4030316067, -5.271919250488281, 2.0662903785705566, 8.072192192077637, -2.2850499153137207, -1.747067928314209, -2.1113059520721436, 0.7568359375, -0.190185546875, -0.59326171875
236, 4030332734, -5.262174129486084, 2.061018705368042, 8.097841262817383, -2.3957607746124268, -1.693780779838562, -2.112560987472534, 0.758544921875, -0.189208984375, -0.59326171875
237, 4030349401, -5.262002944946289, 2.0696685314178467, 8.07455825805664, -2.3018133640289307, -1.7537784576416016, -2.106900691986084, 0.760009765625, -0.1865234375, -0.59326171875
238, 4030366068, -5.259314060211182, 2.059248685836792, 8.077704429626465, -2.252829074859619, -1.7140403985977173, -2.186697006225586, 0.758544921875, -0.189697265625, -0.5927734375
239, 4030382735, -5.2925214767456055, 2.0490312576293945, 8.089070320129395, -2.1920371055603027, -1.634909749031067, -2.129657506942749, 0.759521484375, -0.188720703125, -0.591064453125
240, 4030399402, -5.2866902351379395, 2.040353775024414, 8.072196960449219, -2.0706841945648193, -1.6833049058914185, -2.091776132583618, 0.757568359375, -0.190673828125, -0.5927734375
241, 4030416069, -5.256399631500244, 2.083603858947754, 8.06491470336914, -2.042151689529419, -1.6115381717681885, -1.995690107345581, 0.758056640625, -0.1875, -0.591552734375
242, 4030432736, -5.279490947723389, 2.0795726776123047, 8.091264724731445, -1.291943073272705, -2.169370412826538, -1.786665439605713, 0.758056640625, -0.189208984375, -0.592041015625
243, 4030449403, -5.248074531555176, 2.0581023693084717, 8.076556205749512, -2.05694317817688, -1.5050277709960938, -1.9664149284362793, 0.759033203125, -0.191162109375, -0.590576171875
244, 4030466070, -5.2657575607299805, 2.0734026432037354, 8.075053215026855, -1.885440707206726, -1.4629976749420166, -1.865513801574707, 0.75732421875, -0.189208984375, -0.5927734375
245, 4030482737, -5.279380798339844, 2.071964979171753, 8.069596290588379, -1.8606088161468506, -1.44205904006958, -1.8414121866226196, 0.758544921875, -0.190185546875, -0.590087890625
246, 4030499404, -5.285576343536377, 2.0617456436157227, 8.076471328735352, -1.9000012874603271, -1.5630407333374023, -1.723568320274353, 0.759521484375, -0.191162109375, -0.591064453125
247, 4030516071, -5.262170791625977, 2.0827088356018066, 8.071958541870117, -1.7965645790100098, -1.6544523239135742, -1.7655731439590454, 0.7568359375, -0.191162109375, -0.589599609375
248, 4030532738, -5.249032497406006, 2.113076686859131, 8.054976463317871, -1.8047220706939697, -1.6487280130386353, -1.923667550086975, 0.757568359375, -0.193603515625, -0.591064453125
249, 4030549405, -5.259199142456055, 2.0851173400878906, 8.08001708984375, -2.0001471042633057, -1.466173529624939, -1.8469833135604858, 0.755859375, -0.192138671875, -0.590576171875
250, 4030566072, -5.277172088623047, 2.0848731994628906, 8.0813627243042, -2.0747313499450684, -1.4067137241363525, -1.892906904220581, 0.758544921875, -0.191650390625, -0.5947265625
251, 4030582739, -5.283578395843506, 2.10644268989563, 8.074654579162598, -2.1256489753723145, -1.4828215837478638, -2.036081552505493, 0.757568359375, -0.190673828125, -0.590087890625
252, 4030599406, -5.26323938369751, 2.085057258605957, 8.079901695251465, -2.1317834854125977, -1.6237554550170898, -2.002836227416992, 0.759033203125, -0.192138671875, -0.592041015625
253, 4030616073, -5.263495922088623, 2.083277463912964, 8.082416534423828, -2.14216947555542, -1.4275493621826172, -2.0528578758239746, 0.758056640625, -0.189697265625, -0.590087890625
254, 4030632740, -5.256471633911133, 2.09676456451416, 8.073812484741211, -2.104031801223755, -1.41771399974823, -2.021674394607544, 0.758544921875, -0.192626953125, -0.5947265625
255, 4030649407, -5.251351356506348, 2.0862412452697754, 8.08269214630127, -2.186159133911133, -1.3582415580749512, -2.0490543842315674, 0.757080078125, -0.191650390625, -0.589599609375
256, 4030666074, -5.277161121368408, 2.072870969772339, 8.073332786560059, -2.146792411804199, -1.3384044170379639, -2.04259991645813, 0.757080078125, -0.192138671875, -0.590087890625
257, 4030682741, -5.272756099700928, 2.106163263320923, 8.07120418548584, -2.1457040309906006, -1.3589458465576172, -2.074526309967041, 0.759033203125, -0.192138671875, -0.590576171875
258, 4030699408, -5.2642436027526855, 2.109379291534424, 8.061206817626953, -2.1115620136260986, -1.478416085243225, -2.073911428451538, 0.759521484375, -0.191650390625, -0.591064453125
259, 4030716075, -5.286499977111816, 2.0829365253448486, 8.071637153625488, -2.2772891521453857, -1.5119303464889526, -2.1550395488739014, 0.758056640625, -0.190673828125, -0.590087890625
260, 4030732742, -5.27299690246582, 2.0983896255493164, 8.086445808410645, -2.163799285888672, -1.6423887014389038, -2.061924695968628, 0.759033203125, -0.192138671875, -0.591552734375
261, 4030749409, -5.278205871582031, 2.092367649078369, 8.094576835632324, -2.218508005142212, -1.6898233890533447, -2.0894455909729004, 0.759521484375, -0.193359375, -0.588623046875
262, 4030766076, -5.265421390533447, 2.0993127822875977, 8.095151901245117, -2.2250008583068848, -1.7020279169082642, -2.0945680141448975, 0.757568359375, -0.191650390625, -0.591064453125
263, 4030782743, -5.232593059539795, 2.1090736389160156, 8.070353507995605, -2.2856388092041016, -1.7097628116607666, -2.1165950298309326, 0.757080078125, -0.192626953125, -0.588623046875
264, 4030799410, -5.267869472503662, 2.0957748889923096, 8.093986511230469, -2.284832239151001, -1.6184922456741333, -2.1529781818389893, 0.759033203125, -0.190673828125, -0.591064453125
265, 4030816077, -5.270711421966553, 2.0927951335906982, 8.07156753540039, -2.2201344966888428, -1.519703984260559, -2.0519614219665527, 0.7568359375, -0.192138671875, -0.591552734375
266, 4030832744, -5.260011672973633, 2.1021010875701904, 8.073945999145508, -2.1964809894561768, -1.5789332389831543, -2.0982437133789062, 0.758056640625, -0.193115234375, -0.592529296875
267, 4030849411, -5.257285118103027, 2.107182502746582, 8.087785720825195, -2.1812543869018555, -1.6765176057815552, -2.126417636871338, 0.757080078125, -0.192626953125, -0.589599609375
268, 4030866078, -5.2674665451049805, 2.110689640045166, 8.068540573120117, -2.2969212532043457, -1.5842734575271606, -2.155219078063965, 0.755859375, -0.192138671875, -0.590576171875
269, 4030882745, -5.26522970199585, 2.105151653289795, 8.07335376739502, -2.2168688774108887, -1.5546525716781616, -2.2165231704711914, 0.759033203125, -0.1943359375, -0.591552734375
270, 4030899412, -5.271676063537598, 2.11141037940979, 8.088934898376465, -2.3219704627990723, -1.463240623474121, -2.2302896976470947, 0.760498046875, -0.19482421875, -0.588623046875
271, 4030916079, -5.287949562072754, 2.1062026023864746, 8.072846412658691, -2.292310953140259, -1.5720818042755127, -2.1786160469055176, 0.7568359375, -0.193603515625, -0.592041015625
272, 4030932746, -5.276956558227539, 2.085448741912842, 8.057302474975586, -2.3235459327697754, -1.5542171001434326, -2.2617037296295166, 0.757568359375, -0.192626953125, -0.588134765625
273, 4030949413, -5.261861324310303, 2.096611738204956, 8.056644439697266, -2.300916910171509, -1.7159485816955566, -2.1055305004119873, 0.757080078125, -0.190673828125, -0.589599609375
274, 4030966080, -5.266726493835449, 2.10658597946167, 8.085415840148926, -2.287418842315674, -1.5866297483444214, -2.081761598587036, 0.760009765625, -0.192626953125, -0.590087890625
275, 4030982747, -5.254865646362305, 2.119537353515625, 8.055387496948242, -2.214205026626587, -1.7098780870437622, -2.059645175933838, 0.758544921875, -0.191650390625, -0.588134765625
276, 4030999414, -5.273687839508057, 2.0989937782287598, 8.095049858093262, -2.24885892868042, -1.6304529905319214, -2.021648645401001, 0.756591796875, -0.193603515625, -0.587158203125
277, 4031016081, -5.2708282470703125, 2.1082751750946045, 8.073880195617676, -2.290492534637451, -1.5902668237686157, -1.9519948959350586, 0.756591796875, -0.194091796875, -0.587646484375
278, 4031032748, -5.27697229385376, 2.113279342651367, 8.06086254119873, -2.1796789169311523, -1.690002679824829, -1.966081976890564, 0.75634765625, -0.193115234375, -0.590087890625
279, 4031049415, -5.25077486038208, 2.117825984954834, 8.111129760742188, -2.2168431282043457, -1.6876590251922607, -2.0585949420928955, 0.757568359375, -0.192138671875, -0.590087890625
280, 4031066082, -5.257199764251709, 2.114626407623291, 8.088202476501465, -2.244389533996582, -1.5551005601882935, -2.084092378616333, 0.755859375, -0.192138671875, -0.591064453125
281, 4031082749, -5.2769389152526855, 2.107173442840576, 8.068306922912598, -2.2737927436828613, -1.4689137935638428, -2.1061577796936035, 0.759521484375, -0.192626953125, -0.590576171875
282, 4031099416, -5.288606643676758, 2.105048656463623, 8.058164596557617, -2.253084897994995, -1.5645902156829834, -2.0100717544555664, 0.759033203125, -0.192138671875, -0.588623046875
283, 4031116083, -5.273029804229736, 2.092012882232666, 8.068947792053223, -2.3121352195739746, -1.6782336235046387, -2.026963233947754, 0.757568359375, -0.192626953125, -0.591064453125
284, 4031132750, -5.261316776275635, 2.1048977375030518, 8.074932098388672, -2.2796454429626465, -1.7840524911880493, -1.890703797340393, 0.755859375, -0.194091796875, -0.5927734375
285, 4031149417, -5.265346527099609, 2.1100382804870605, 8.086965560913086, -2.207648277282715, -1.6891831159591675, -1.9566820859909058, 0.758056640625, -0.193115234375, -0.589599609375
286, 4031166084, -5.269740104675293, 2.108656644821167, 8.081997871398926, -2.321509599685669, -1.7702603340148926, -2.049579381942749, 0.75732421875, -0.192626953125, -0.592041015625
287, 4031182751, -5.2640533447265625, 2.1185860633850098, 8.067883491516113, -2.406031608581543, -1.9007697105407715, -2.143296241760254, 0.760009765625, -0.19384765625, -0.589599609375
288, 4031199418, -5.260820388793945, 2.103098154067993, 8.071971893310547, -2.447357654571533, -1.7946947813034058, -2.0844128131866455, 0.759033203125, -0.192626953125, -0.590576171875
289, 4031216085, -5.27496337890625, 2.116790771484375, 8.088605880737305, -2.416186809539795, -1.7475290298461914, -2.127736806869507, 0.7568359375, -0.193603515625, -0.591552734375
290, 4031232752, -5.269565582275391, 2.0952181816101074, 8.062755584716797, -2.223041534423828, -1.786293864250183, -1.9764297008514404, 0.757568359375, -0.1953125, -0.588134765625
291, 4031249419, -5.266806125640869, 2.110877513885498, 8.069794654846191, -2.2417385578155518, -1.8083205223083496, -2.0255420207977295, 0.758056640625, -0.1953125, -0.590576171875
292, 4031266086, -5.25704288482666, 2.113614320755005, 8.069587707519531, -2.251112699508667, -1.734709620475769, -2.0531394481658936, 0.757080078125, -0.192626953125, -0.589111328125
293, 4031282753, -5.268912315368652, 2.102545976638794, 8.071187973022461, -2.16532301902771, -1.6344486474990845, -2.0459039211273193, 0.75634765625, -0.192626953125, -0.589599609375
294, 4031299420, -5.265319347381592, 2.0987229347229004, 8.074636459350586, -2.2744460105895996, -1.6229230165481567, -2.0116469860076904, 0.75732421875, -0.193115234375, -0.592041015625
295, 4031316087, -5.263023376464844, 2.105146646499634, 8.084877014160156, -2.1286070346832275, -1.6927815675735474, -2.0109169483184814, 0.759033203125, -0.19384765625, -0.590087890625
296, 4031332754, -5.256860256195068, 2.1023964881896973, 8.070959091186523, -2.20900559425354, -1.7859734296798706, -2.029998302459717, 0.75537109375, -0.19482421875, -0.588134765625
297, 4031349421, -5.250498294830322, 2.1218206882476807, 8.079183578491211, -2.2455294132232666, -1.8396320343017578, -1.9778510332107544, 0.757080078125, -0.193603515625, -0.588623046875
298, 4031366088, -5.261844158172607, 2.1170787811279297, 8.074678421020508, -2.20900559425354, -1.7690434455871582, -2.086141586303711, 0.757568359375, -0.193115234375, -0.591552734375
299, 4031382755, -5.246400833129883, 2.0997447967529297, 8.069189071655273, -2.139479875564575, -1.6197086572647095, -2.0092649459838867, 0.757080078125, -0.1943359375, -0.590087890625
300, 4031399422, -5.257059574127197, 2.1075196266174316, 8.07107162475586, -2.0572378635406494, -1.509958267211914, -2.060234308242798, 0.75537109375, -0.19482421875, -0.592041015625
301, 4031416089, -5.272826194763184, 2.1066884994506836, 8.068194389343262, -2.0779073238372803, -1.4300724267959595, -1.98775053024292, 0.758056640625, -0.19482421875, -0.591064453125
302, 4031432756, -5.267391204833984, 2.1126222610473633, 8.061394691467285, -2.0617966651916504, -1.4903644323349, -1.9475512504577637, 0.758544921875, -0.1943359375, -0.589599609375
303, 4031449423, -5.262701034545898, 2.112064838409424, 8.08415699005127, -2.031240701675415, -1.5380553007125854, -1.8831226825714111, 0.760009765625, -0.1943359375, -0.590087890625
304, 4031466090, -5.254602909088135, 2.125441074371338, 8.065433502197266, -1.91826331615448, -1.4693238735198975, -1.879818320274353, 0.75537109375, -0.194580078125, -0.591552734375
305, 4031482757, -5.283961772918701, 2.090271234512329, 8.072031021118164, -1.797512173652649, -1.5739774703979492, -1.8677167892456055, 0.75634765625, -0.194091796875, -0.589599609375
306, 4031499424, -5.307486057281494, 2.065593719482422, 8.072779655456543, -1.3756839036941528, -1.5191020965576172, -1.449986219406128, 0.758544921875, -0.19580078125, -0.591552734375
307, 4031516091, -5.20374059677124, 2.1712820529937744, 8.096166610717773, -1.697904348373413, -1.4064061641693115, -1.5431267023086548, 0.75634765625, -0.19482421875, -0.589599609375
308, 4031532758, -5.2804131507873535, 2.089237928390503, 8.069962501525879, -1.681742548942566, -1.5877697467803955, -1.7458511590957642, 0.758544921875, -0.1962890625, -0.592041015625
309, 4031549425, -5.258918762207031, 2.1433489322662354, 8.064752578735352, -1.6984678506851196, -1.6286859512329102, -1.590625524520874, 0.757568359375, -0.19580078125, -0.588623046875
310, 4031566092, -5.3270111083984375, 2.1439507007598877, 8.129656791687012, -1.1194031238555908, -2.1040194034576416, -1.4776991605758667, 0.758544921875, -0.19482421875, -0.590087890625
311, 4031582759, -5.178885459899902, 2.1276650428771973, 8.004860877990723, -1.3865947723388672, -2.042484760284424, -1.2753971815109253, 0.75537109375, -0.19580078125, -0.591552734375
312, 4031599426, -5.241382122039795, 2.1495888233184814, 8.076766967773438, -1.7015156745910645, -1.860929250717163, -1.492951512336731, 0.757568359375, -0.19775390625, -0.589599609375
313, 4031616093, -5.268547058105469, 2.1349737644195557, 8.074270248413086, -1.7781744003295898, -1.9803738594055176, -1.1215288639068604, 0.75634765625, -0.19775390625, -0.589599609375
314, 4031632760, -5.2680344581604, 2.188521385192871, 8.060478210449219, -1.9987125396728516, -2.2268576622009277, -1.2872557640075684, 0.755859375, -0.1962890625, -0.591064453125
315, 4031649427, -5.25346565246582, 2.1539580821990967, 8.040844917297363, -2.1625826358795166, -2.370929002761841, -1.4552751779556274, 0.75537109375, -0.197265625, -0.591552734375
316, 4031666094, -5.247664451599121, 2.1366543769836426, 8.087656021118164, -2.151710033416748, -2.445128917694092, -1.6241267919540405, 0.755859375, -0.197265625, -0.592041015625
317, 4031682761, -5.256862640380859, 2.130345106124878, 8.098834037780762, -2.169856548309326, -2.401792049407959, -1.6496113538742065, 0.75537109375, -0.19775390625, -0.592041015625
318, 4031699428, -5.262905597686768, 2.136338472366333, 8.090144157409668, -2.1312716007232666, -2.3484671115875244, -1.6922951936721802, 0.7568359375, -0.19873046875, -0.590576171875
319, 4031716095, -5.225828647613525, 2.1551356315612793, 8.067747116088867, -2.086026191711426, -2.448394775390625, -1.646051287651062, 0.7548828125, -0.1953125, -0.5927734375
320, 4031732762, -5.223200798034668, 2.1504766941070557, 8.094178199768066, -2.066816806793213, -2.4431183338165283, -1.7266929149627686, 0.7548828125, -0.19775390625, -0.592041015625
321, 4031749429, -5.223447322845459, 2.1285560131073, 8.079949378967285, -2.0040273666381836, -2.272601842880249, -1.7653168439865112, 0.75537109375, -0.19873046875, -0.592041015625
322, 4031766096, -5.221122741699219, 2.1830649375915527, 8.076447486877441, -2.0542151927948, -2.0943374633789062, -1.7295998334884644, 0.7548828125, -0.2001953125, -0.590576171875
323, 4031782763, -5.200685501098633, 2.179807662963867, 8.093334197998047, -2.237076997756958, -1.9428128004074097, -1.874670147895813, 0.7529296875, -0.2001953125, -0.5927734375
324, 4031799430, -5.218204975128174, 2.1737139225006104, 8.085838317871094, -2.3089592456817627, -1.886887550354004, -2.018690824508667, 0.7568359375, -0.1982421875, -0.592041015625
325, 4031816097, -5.2166523933410645, 2.159449338912964, 8.082891464233398, -2.38291597366333, -1.861364722251892, -2.094773054122925, 0.75341796875, -0.197265625, -0.590087890625
326, 4031832764, -5.219377517700195, 2.1683599948883057, 8.077614784240723, -2.4292750358581543, -1.770439624786377, -2.2712700366973877, 0.75537109375, -0.19970703125, -0.592041015625
327, 4031849431, -5.223917007446289, 2.1568491458892822, 8.051850318908691, -2.4606375694274902, -1.6919108629226685, -2.306410551071167, 0.75341796875, -0.2001953125, -0.590576171875
328, 4031866098, -5.230964183807373, 2.141838312149048, 8.065561294555664, -2.4095535278320312, -1.5659477710723877, -2.299290657043457, 0.75390625, -0.19775390625, -0.591552734375
329, 4031882765, -5.2255859375, 2.155919075012207, 8.062880516052246, -2.346879005432129, -1.590664029121399, -2.2368085384368896, 0.75390625, -0.19873046875, -0.591064453125
330, 4031899432, -5.2183003425598145, 2.154204845428467, 8.064142227172852, -2.3288731575012207, -1.4920423030853271, -2.1313352584838867, 0.755859375, -0.20068359375, -0.591064453125
331, 4031916099, -5.209869861602783, 2.1670632362365723, 8.085238456726074, -2.350682258605957, -1.4384475946426392, -2.1531572341918945, 0.75244140625, -0.19873046875, -0.590576171875
332, 4031932766, -5.216510772705078, 2.1737160682678223, 8.093825340270996, -2.4792840480804443, -1.4106836318969727, -2.266301393508911, 0.75244140625, -0.1982421875, -0.591552734375
333, 4031949433, -5.232909679412842, 2.1468091011047363, 8.067712783813477, -2.5253100395202637, -1.3417469263076782, -2.3161563873291016, 0.75732421875, -0.19775390625, -0.592041015625
334, 4031966100, -5.234503269195557, 2.1592698097229004, 8.088977813720703, -2.5843982696533203, -1.3788212537765503, -2.373605728149414, 0.75390625, -0.19873046875, -0.5927734375
335, 4031982767, -5.226934909820557, 2.1491498947143555, 8.065556526184082, -2.6344711780548096, -1.3646448850631714, -2.4556820392608643, 0.75439453125, -0.20068359375, -0.592529296875
336, 4031999434, -5.238498210906982, 2.1578900814056396, 8.10645580291748, -2.5827207565307617, -1.3217434883117676, -2.436190366744995, 0.75439453125, -0.1982421875, -0.591552734375
337, 4032016101, -5.228208541870117, 2.1580564975738525, 8.078200340270996, -2.627427816390991, -1.259018063545227, -2.501771926879883, 0.75439453125, -0.19775390625, -0.590576171875
338, 4032032768, -5.237082481384277, 2.1614487171173096, 8.082216262817383, -2.6120731830596924, -1.3236132860183716, -2.525681734085083, 0.75341796875, -0.19873046875, -0.591552734375
339, 4032049435, -5.240361213684082, 2.164762258529663, 8.082812309265137, -2.5682106018066406, -1.3122667074203491, -2.4202847480773926, 0.75439453125, -0.1982421875, -0.591064453125
340, 4032066102, -5.246840000152588, 2.138977289199829, 8.07310962677002, -2.540933609008789, -1.2430099248886108, -2.436382532119751, 0.755859375, -0.19970703125, -0.59375
341, 4032082769, -5.217250347137451, 2.165696144104004, 8.077173233032227, -2.40409779548645, -1.2369654178619385, -2.4301462173461914, 0.7548828125, -0.197265625, -0.590087890625
342, 4032099436, -5.255383491516113, 2.1575469970703125, 8.080642700195312, -2.41534161567688, -1.3359968662261963, -2.30961275100708, 0.75537109375, -0.197265625, -0.591064453125
343, 4032116103, -5.258386611938477, 2.168257474899292, 8.049553871154785, -2.4471399784088135, -1.3530678749084473, -2.3099453449249268, 0.7548828125, -0.197265625, -0.590576171875
344, 4032132770, -5.245248317718506, 2.167896270751953, 8.087666511535645, -2.570797920227051, -1.4014501571655273, -2.3455214500427246, 0.755859375, -0.19921875, -0.59326171875
345, 4032149437, -5.216003894805908, 2.1673495769500732, 8.084321975708008, -2.6297717094421387, -1.4469640254974365, -2.490079879760742, 0.75634765625, -0.2001953125, -0.591552734375
346, 4032166104, -5.224067211151123, 2.147751569747925, 8.073673248291016, -2.5936827659606934, -1.2557393312454224, -2.4063644409179688, 0.75537109375, -0.19921875, -0.5947265625
347, 4032182771, -5.256581783294678, 2.1513168811798096, 8.080324172973633, -2.4093356132507324, -1.372162103652954, -2.268709182739258, 0.75634765625, -0.1982421875, -0.590087890625
348, 4032199438, -5.248969554901123, 2.1489148139953613, 8.063647270202637, -2.466758966445923, -1.391409993171692, -2.3515405654907227, 0.7568359375, -0.19775390625, -0.592529296875
349, 4032216105, -5.218074798583984, 2.159389019012451, 8.083959579467773, -2.5279734134674072, -1.3203474283218384, -2.3805336952209473, 0.75634765625, -0.1962890625, -0.592041015625
350, 4032232772, -5.245776653289795, 2.134714126586914, 8.097789764404297, -2.504025936126709, -1.3375465869903564, -2.4110515117645264, 0.75634765625, -0.1982421875, -0.590087890625
351, 4032249439, -5.2395853996276855, 2.1416471004486084, 8.07303524017334, -2.5206096172332764, -1.2688401937484741, -2.4812302589416504, 0.75634765625, -0.19677734375, -0.591552734375
352, 4032266106, -5.268476486206055, 2.1365842819213867, 8.073709487915039, -2.4965081214904785, -1.3803964853286743, -2.3246984481811523, 0.75634765625, -0.1982421875, -0.589599609375
353, 4032282773, -5.256030082702637, 2.145195484161377, 8.06753158569336, -2.514347553253174, -1.4462339878082275, -2.1813440322875977, 0.757568359375, -0.19775390625, -0.592529296875
354, 4032299440, -5.224746227264404, 2.1654810905456543, 8.056910514831543, -2.53305721282959, -1.445055603981018, -2.27481746673584, 0.757080078125, -0.19775390625, -0.588134765625
355, 4032316107, -5.233992576599121, 2.1556973457336426, 8.086686134338379, -2.567404270172119, -1.3216923475265503, -2.3711981773376465, 0.75439453125, -0.197265625, -0.590087890625
356, 4032332774, -5.262386798858643, 2.1256985664367676, 8.075850486755371, -2.450815439224243, -1.3262768983840942, -2.3906893730163574, 0.755859375, -0.19775390625, -0.592041015625
357, 4032349441, -5.274444580078125, 2.1240906715393066, 8.078027725219727, -2.367868423461914, -1.428586721420288, -2.232748508453369, 0.75634765625, -0.197265625, -0.589599609375
358, 4032366108, -5.258960723876953, 2.1440470218658447, 8.073543548583984, -2.300507068634033, -1.5748095512390137, -2.121781587600708, 0.755859375, -0.1982421875, -0.592041015625
359, 4032382775, -5.22433614730835, 2.1615235805511475, 8.053683280944824, -2.3279001712799072, -1.604136347770691, -2.195213556289673, 0.755859375, -0.19775390625, -0.589111328125
360, 4032399442, -5.256316184997559, 2.153280258178711, 8.076159477233887, -2.496572256088257, -1.4251545667648315, -2.3088696002960205, 0.758056640625, -0.19775390625, -0.588134765625
361, 4032416109, -5.250711917877197, 2.1458470821380615, 8.090377807617188, -2.496098756790161, -1.418188214302063, -2.2492947578430176, 0.755859375, -0.19580078125, -0.591064453125
362, 4032432776, -5.252392292022705, 2.138408660888672, 8.077850341796875, -2.430248260498047, -1.5101631879806519, -2.28916072845459, 0.757568359375, -0.1982421875, -0.589599609375
363, 4032449443, -5.252964973449707, 2.149296283721924, 8.08927059173584, -2.3825058937072754, -1.5040929317474365, -2.303990364074707, 0.7548828125, -0.1982421875, -0.590576171875
364, 4032466110, -5.256277084350586, 2.152153253555298, 8.068808555603027, -2.507009506225586, -1.5041826963424683, -2.3427810668945312, 0.757080078125, -0.197265625, -0.589111328125
365, 4032482777, -5.257801055908203, 2.1531455516815186, 8.071308135986328, -2.5497701168060303, -1.405458688735962, -2.454836845397949, 0.757080078125, -0.1962890625, -0.589599609375
366, 4032499444, -5.257388591766357, 2.1631977558135986, 8.074289321899414, -2.530560255050659, -1.5043492317199707, -2.2562355995178223, 0.7568359375, -0.197265625, -0.591552734375
367, 4032516111, -5.267329692840576, 2.1586649417877197, 8.068467140197754, -2.6240596771240234, -1.5353918075561523, -2.3862459659576416, 0.758056640625, -0.19580078125, -0.593017578125
368, 4032532778, -5.2299299240112305, 2.146509885787964, 8.087613105773926, -2.55476450920105, -1.5251853466033936, -2.4036242961883545, 0.7568359375, -0.197265625, -0.590576171875
369, 4032549445, -5.254680156707764, 2.128140687942505, 8.083032608032227, -2.547119140625, -1.470028281211853, -2.4140610694885254, 0.755859375, -0.19775390625, -0.589599609375
370, 4032566112, -5.263401031494141, 2.1172571182250977, 8.079463005065918, -2.5219032764434814, -1.588525414466858, -2.41005277633667, 0.7568359375, -0.194091796875, -0.59326171875
371, 4032582779, -5.262360095977783, 2.128631114959717, 8.093950271606445, -2.54521107673645, -1.531793236732483, -2.3216376304626465, 0.7548828125, -0.19873046875, -0.590576171875
372, 4032599446, -5.250550746917725, 2.1525943279266357, 8.05726432800293, -2.6244313716888428, -1.742957353591919, -2.3653078079223633, 0.755859375, -0.19677734375, -0.591552734375
373, 4032616113, -5.251227855682373, 2.142402410507202, 8.080757141113281, -2.555866241455078, -1.6651073694229126, -2.34013032913208, 0.755859375, -0.19873046875, -0.591064453125
374, 4032632780, -5.243866920471191, 2.1203207969665527, 8.070250511169434, -2.5974605083465576, -1.746811866760254, -2.382659912109375, 0.75244140625, -0.197265625, -0.589111328125
375, 4032649447, -5.247901439666748, 2.151632785797119, 8.083558082580566, -2.5928893089294434, -1.6576669216156006, -2.3241350650787354, 0.755859375, -0.19775390625, -0.591552734375
376, 4032666114, -5.247650623321533, 2.145887851715088, 8.078751564025879, -2.563856601715088, -1.568111777305603, -2.2717952728271484, 0.757568359375, -0.19677734375, -0.593017578125
377, 4032682781, -5.26106595993042, 2.155825138092041, 8.061345100402832, -2.522364854812622, -1.641249179840088, -2.3376715183258057, 0.75634765625, -0.19677734375, -0.590576171875
378, 4032699448, -5.251521110534668, 2.145399332046509, 8.081826210021973, -2.600778102874756, -1.661393642425537, -2.3190383911132812, 0.7568359375, -0.19580078125, -0.590576171875
379, 4032716115, -5.243953704833984, 2.134387493133545, 8.080821990966797, -2.762918710708618, -1.7672761678695679, -2.5070862770080566, 0.75634765625, -0.1962890625, -0.590087890625
380, 4032732782, -5.25063943862915, 2.1268508434295654, 8.069272994995117, -2.6646177768707275, -1.7856409549713135, -2.372030735015869, 0.7548828125, -0.1962890625, -0.591064453125
381, 4032749449, -5.223889350891113, 2.143435478210449, 8.080223083496094, -2.6358160972595215, -1.8047735691070557, -2.235976457595825, 0.757080078125, -0.1962890625, -0.590087890625
382, 4032766116, -5.256479263305664, 2.151881217956543, 8.081079483032227, -2.60528564453125, -1.6181977987289429, -2.3583152294158936, 0.75732421875, -0.19677734375, -0.591064453125
383, 4032782783, -5.2503814697265625, 2.1563148498535156, 8.07349681854248, -2.544250249862671, -1.5509001016616821, -2.351860523223877, 0.758056640625, -0.19580078125, -0.590576171875
384, 4032799450, -5.271244049072266, 2.118110418319702, 8.07927417755127, -2.796715021133423, -1.6262915134429932, -2.3365957736968994, 0.7568359375, -0.194091796875, -0.590087890625
385, 4032816117, -5.257369518280029, 2.121586322784424, 8.076401710510254, -2.5404856204986572, -1.699338674545288, -2.280811309814453, 0.7568359375, -0.1982421875, -0.589111328125
386, 4032832784, -5.238544940948486, 2.1274044513702393, 8.059999465942383, -2.5571467876434326, -1.7302405834197998, -2.2289199829101562, 0.75537109375, -0.1953125, -0.590576171875
387, 4032849451, -5.2422590255737305, 2.1410064697265625, 8.075313568115234, -2.602365732192993, -1.7806720733642578, -2.3000080585479736, 0.757080078125, -0.1982421875, -0.589599609375
388, 4032866118, -5.246364116668701, 2.1370725631713867, 8.079414367675781, -2.514078378677368, -1.5633606910705566, -2.2333762645721436, 0.75634765625, -0.1962890625, -0.591064453125
389, 4032882785, -5.257318496704102, 2.1403303146362305, 8.081871032714844, -2.5747807025909424, -1.6126651763916016, -2.2398178577423096, 0.7578125, -0.19677734375, -0.59326171875
390, 4032899452, -5.2630791664123535, 2.130016803741455, 8.089631080627441, -2.5368614196777344, -1.60824716091156, -2.3188588619232178, 0.7548828125, -0.1962890625, -0.591064453125
391, 4032916119, -5.236819744110107, 2.1003360748291016, 8.086981773376465, -2.3996922969818115, -1.7500518560409546, -2.2211971282958984, 0.7548828125, -0.19580078125, -0.588623046875
392, 4032932786, -5.253107070922852, 2.135434150695801, 8.075803756713867, -2.4127676486968994, -1.6795785427093506, -2.139467239379883, 0.755859375, -0.19482421875, -0.590576171875
393, 4032949453, -5.249383449554443, 2.134331226348877, 8.062475204467773, -2.409259080886841, -1.557111382484436, -2.1762726306915283, 0.75732421875, -0.193603515625, -0.591552734375
394, 4032966120, -5.251499652862549, 2.1247565746307373, 8.093595504760742, -2.3652431964874268, -1.622154712677002, -2.201718807220459, 0.75732421875, -0.19580078125, -0.59375
395, 4032982787, -5.2538957595825195, 2.120697259902954, 8.082647323608398, -2.2568886280059814, -1.6475112438201904, -2.265148639678955, 0.75390625, -0.194580078125, -0.591064453125
396, 4032999454, -5.255270004272461, 2.140249490737915, 8.06290054321289, -2.2383577823638916, -1.644027829170227, -2.1347928047180176, 0.7568359375, -0.19677734375, -0.592529296875
397, 4033016121, -5.273401260375977, 2.117500066757202, 8.068281173706055, -2.2419307231903076, -1.7387309074401855, -2.0447514057159424, 0.75634765625, -0.1953125, -0.587158203125
398, 4033032788, -5.232241153717041, 2.143566131591797, 8.085600852966309, -2.264021873474121, -1.789328932762146, -2.1188106536865234, 0.7568359375, -0.1953125, -0.589599609375
399, 4033049455, -5.243997097015381, 2.1268632411956787, 8.088687896728516, -2.250741481781006, -1.6148936748504639, -2.1083478927612305, 0.75634765625, -0.1943359375, -0.592041015625
400, 4033066122, -5.238363265991211, 2.126091241836548, 8.086342811584473, -2.211451530456543, -1.7246181964874268, -2.1372387409210205, 0.75439453125, -0.194580078125, -0.591796875
401, 4033082789, -5.226650714874268, 2.128976345062256, 8.065561294555664, -2.184532642364502, -1.7180101871490479, -2.1054534912109375, 0.75537109375, -0.19677734375, -0.59228515625
402, 4033099456, -5.229219436645508, 2.1388771533966064, 8.089700698852539, -2.248385429382324, -1.6000254154205322, -2.151569366455078, 0.75634765625, -0.197265625, -0.59326171875
403, 4033116123, -5.233514308929443, 2.134211301803589, 8.076231002807617, -2.219776153564453, -1.4887254238128662, -2.268632173538208, 0.7529296875, -0.1962890625, -0.59228515625
404, 4033132790, -5.230854511260986, 2.1475906372070312, 8.063779830932617, -2.264329433441162, -1.3728152513504028, -2.1692421436309814, 0.75634765625, -0.1962890625, -0.590576171875
405, 4033149457, -5.237728118896484, 2.1400232315063477, 8.096017837524414, -2.3016340732574463, -1.3660659790039062, -2.240957260131836, 0.75634765625, -0.197265625, -0.590087890625
406, 4033166124, -5.256205081939697, 2.127624750137329, 8.063892364501953, -2.337722063064575, -1.4817073345184326, -2.1798582077026367, 0.755859375, -0.1982421875, -0.592041015625
407, 4033182791, -5.233067035675049, 2.1442062854766846, 8.069197654724121, -2.3800344467163086, -1.555087924003601, -2.233786106109619, 0.757568359375, -0.19580078125, -0.591064453125
408, 4033199458, -5.254217147827148, 2.1342828273773193, 8.07137393951416, -2.3240835666656494, -1.5368387699127197, -2.1352152824401855, 0.755859375, -0.1962890625, -0.590576171875
409, 4033216125, -5.237030506134033, 2.147632598876953, 8.074423789978027, -2.3413846492767334, -1.522265076637268, -2.1345622539520264, 0.7548828125, -0.1982421875, -0.5927734375
410, 4033232792, -5.241057872772217, 2.131042718887329, 8.08559799194336, -2.4768378734588623, -1.5152729749679565, -2.168332815170288, 0.7568359375, -0.19580078125, -0.592529296875
411, 4033249459, -5.2613091468811035, 2.1274845600128174, 8.078744888305664, -2.3085880279541016, -1.5331891775131226, -2.238332509994507, 0.75634765625, -0.1962890625, -0.589599609375
412, 4033266126, -5.233288288116455, 2.1344969272613525, 8.070274353027344, -2.303785562515259, -1.5183464288711548, -2.1645803451538086, 0.75634765625, -0.19775390625, -0.590576171875
413, 4033282793, -5.241730690002441, 2.143101215362549, 8.060999870300293, -2.2932586669921875, -1.5326383113861084, -2.172571897506714, 0.75390625, -0.19580078125, -0.591552734375
414, 4033299460, -5.249960899353027, 2.1246654987335205, 8.058491706848145, -2.3157975673675537, -1.4371540546417236, -2.1877212524414062, 0.75732421875, -0.197265625, -0.592041015625
415, 4033316127, -5.244933605194092, 2.12964129447937, 8.085638999938965, -2.2830004692077637, -1.4964090585708618, -2.183405637741089, 0.7568359375, -0.1953125, -0.592041015625
416, 4033332794, -5.255135536193848, 2.1397955417633057, 8.103766441345215, -2.3328046798706055, -1.578292965888977, -2.1046082973480225, 0.755859375, -0.197265625, -0.590576171875
417, 4033349461, -5.252553462982178, 2.110307455062866, 8.108795166015625, -2.2513561248779297, -1.6402243375778198, -2.0977697372436523, 0.7568359375, -0.19580078125, -0.590576171875
418, 4033366128, -5.247929573059082, 2.1514084339141846, 8.078072547912598, -2.2846908569335938, -1.6123063564300537, -2.0918402671813965, 0.75732421875, -0.1953125, -0.592529296875
419, 4033382795, -5.227766036987305, 2.151549816131592, 8.107307434082031, -2.314056158065796, -1.4986886978149414, -2.1876189708709717, 0.75634765625, -0.1962890625, -0.591064453125
420, 4033399462, -5.239137649536133, 2.1398017406463623, 8.106589317321777, -2.2109906673431396, -1.4258718490600586, -2.166616678237915, 0.75634765625, -0.19775390625, -0.591064453125
421, 4033416129, -5.260799407958984, 2.1460907459259033, 8.07845401763916, -2.3339829444885254, -1.2977186441421509, -2.122293710708618, 0.75341796875, -0.19775390625, -0.591064453125
422, 4033432796, -5.262924671173096, 2.1430227756500244, 8.07968807220459, -2.3176162242889404, -1.3435909748077393, -2.174851179122925, 0.75537109375, -0.19677734375, -0.590087890625
423, 4033449463, -5.251389503479004, 2.1189982891082764, 8.071150779724121, -2.202730655670166, -1.511431097984314, -2.0376698970794678, 0.7568359375, -0.19677734375, -0.589599609375
424, 4033466130, -5.2371368408203125, 2.1490426063537598, 8.067745208740234, -2.189795732498169, -1.5965675115585327, -2.0265278816223145, 0.75634765625, -0.1962890625, -0.592041015625
425, 4033482797, -5.25460958480835, 2.1494531631469727, 8.085994720458984, -2.204958915710449, -1.4616782665252686, -1.99370539188385, 0.7548828125, -0.1953125, -0.590576171875
426, 4033499464, -5.258235454559326, 2.150184154510498, 8.062413215637207, -2.2135775089263916, -1.550234079360962, -2.097987413406372, 0.757080078125, -0.1962890625, -0.590576171875
427, 4033516131, -5.246120452880859, 2.1312003135681152, 8.069036483764648, -2.2325949668884277, -1.6487535238265991, -1.9671320915222168, 0.75537109375, -0.1953125, -0.591552734375
428, 4033532798, -5.250494003295898, 2.1392593383789062, 8.078140258789062, -2.1845200061798096, -1.5830824375152588, -2.0324573516845703, 0.758056640625, -0.1982421875, -0.590576171875
429, 4033549465, -5.244897365570068, 2.1210975646972656, 8.076239585876465, -2.2065086364746094, -1.5795094966888428, -1.9716912508010864, 0.7548828125, -0.1962890625, -0.588623046875
430, 4033566132, -5.243553638458252, 2.147045612335205, 8.092432022094727, -2.1492252349853516, -1.5830823183059692, -1.9439139366149902, 0.757568359375, -0.19775390625, -0.592041015625
431, 4033582799, -5.256683826446533, 2.144977331161499, 8.093024253845215, -2.1872220039367676, -1.4554800987243652, -1.9923096895217896, 0.7548828125, -0.197265625, -0.5966796875
432, 4033599466, -5.251855850219727, 2.145620822906494, 8.089012145996094, -2.2250263690948486, -1.523315191268921, -2.010455846786499, 0.755859375, -0.197265625, -0.591552734375
433, 4033616133, -5.237941741943359, 2.1305301189422607, 8.09039306640625, -2.196519374847412, -1.42918860912323, -2.0621933937072754, 0.75390625, -0.197265625, -0.5927734375
434, 4033632800, -5.256789207458496, 2.138408660888672, 8.088661193847656, -2.146343946456909, -1.5596338510513306, -2.0434834957122803, 0.755859375, -0.197265625, -0.590576171875
435, 4033649467, -5.238101959228516, 2.156008720397949, 8.046941757202148, -2.062885284423828, -1.6425681114196777, -1.931581735610962, 0.755859375, -0.19677734375, -0.590087890625
436, 4033666134, -5.258489608764648, 2.145883798599243, 8.066036224365234, -2.1059017181396484, -1.7477720975875854, -1.9578090906143188, 0.7568359375, -0.197265625, -0.590087890625
437, 4033682801, -5.237104415893555, 2.1411876678466797, 8.082645416259766, -2.1978256702423096, -1.8369426727294922, -1.8902170658111572, 0.757568359375, -0.19921875, -0.591064453125
438, 4033699468, -5.2158708572387695, 2.175750970840454, 8.064570426940918, -2.159585952758789, -1.6693204641342163, -2.0380280017852783, 0.75537109375, -0.19921875, -0.591552734375
439, 4033716135, -5.225417137145996, 2.1521928310394287, 8.079671859741211, -2.1646316051483154, -1.3390703201293945, -2.041447401046753, 0.755859375, -0.19921875, -0.589599609375
440, 4033732802, -5.2393364906311035, 2.1494598388671875, 8.055486679077148, -2.0025806427001953, -1.183114767074585, -2.0296273231506348, 0.75537109375, -0.1982421875, -0.588623046875
441, 4033749469, -5.240177631378174, 2.1515517234802246, 8.064970970153809, -1.8717122077941895, -1.127381443977356, -2.009661912918091, 0.758056640625, -0.2001953125, -0.591064453125
442, 4033766136, -5.245509624481201, 2.1612961292266846, 8.089591026306152, -1.9084407091140747, -1.218767523765564, -2.046429395675659, 0.75537109375, -0.20068359375, -0.590087890625
443, 4033782803, -5.26756477355957, 2.1678807735443115, 8.064767837524414, -2.101252794265747, -1.3409783840179443, -2.1354329586029053, 0.75634765625, -0.19873046875, -0.589599609375
444, 4033799470, -5.263383865356445, 2.160998821258545, 8.052779197692871, -2.1828420162200928, -1.4541738033294678, -2.1617887020111084, 0.75537109375, -0.19921875, -0.590576171875
445, 4033816137, -5.260416030883789, 2.1390633583068848, 8.0874605178833, -2.2291245460510254, -1.643771767616272, -2.0708508491516113, 0.7548828125, -0.19873046875, -0.591552734375
446, 4033832804, -5.22877836227417, 2.1730587482452393, 8.074400901794434, -2.2182390689849854, -1.6397123336791992, -2.0417935848236084, 0.75439453125, -0.19775390625, -0.590087890625
447, 4033849471, -5.24188232421875, 2.1714510917663574, 8.078226089477539, -2.22731876373291, -1.5149911642074585, -2.1890275478363037, 0.757080078125, -0.19921875, -0.589111328125
448, 4033866138, -5.247380256652832, 2.1683058738708496, 8.08979606628418, -2.2437875270843506, -1.421555995941162, -2.2225801944732666, 0.75439453125, -0.19677734375, -0.591552734375
449, 4033882805, -5.264523029327393, 2.1509439945220947, 8.069692611694336, -2.219865560531616, -1.546251654624939, -2.1131374835968018, 0.7548828125, -0.19775390625, -0.590087890625
450, 4033899472, -5.253804683685303, 2.1418356895446777, 8.070021629333496, -2.1741979122161865, -1.5462899208068848, -2.142937660217285, 0.75634765625, -0.19775390625, -0.590087890625
451, 4033916139, -5.254551410675049, 2.1700003147125244, 8.09257984161377, -2.262305498123169, -1.6259709596633911, -2.1541049480438232, 0.75634765625, -0.20068359375, -0.592041015625
452, 4033932806, -5.249096393585205, 2.1690351963043213, 8.085307121276855, -2.30635929107666, -1.5662933588027954, -2.1427457332611084, 0.75537109375, -0.19970703125, -0.589599609375
453, 4033949473, -5.26277494430542, 2.154545307159424, 8.057971000671387, -2.231083631515503, -1.6448858976364136, -2.0772154331207275, 0.7568359375, -0.1982421875, -0.589111328125
454, 4033966140, -5.251959323883057, 2.1612982749938965, 8.062095642089844, -2.295435905456543, -1.7676349878311157, -2.1624677181243896, 0.75390625, -0.197265625, -0.590576171875
455, 4033982807, -5.238043785095215, 2.1508965492248535, 8.066712379455566, -2.2884180545806885, -1.8882834911346436, -2.106106996536255, 0.75634765625, -0.19775390625, -0.590576171875
456, 4033999474, -5.242489814758301, 2.1630966663360596, 8.060914993286133, -2.37255597114563, -1.8165807723999023, -2.1757092475891113, 0.755859375, -0.19677734375, -0.589599609375
457, 4034016141, -5.252978324890137, 2.1558539867401123, 8.07141399383545, -2.3847732543945312, -1.7363874912261963, -2.1408891677856445, 0.75634765625, -0.19677734375, -0.5927734375
458, 4034032808, -5.244139194488525, 2.170973539352417, 8.085663795471191, -2.4449117183685303, -1.8568310737609863, -2.093812942504883, 0.75439453125, -0.19970703125, -0.59326171875
459, 4034049475, -5.251272201538086, 2.1677114963531494, 8.070913314819336, -2.33585262298584, -1.7282809019088745, -2.180652379989624, 0.75634765625, -0.2001953125, -0.589599609375
460, 4034066142, -5.24567985534668, 2.1450767517089844, 8.069963455200195, -2.382493257522583, -1.751754879951477, -2.1190154552459717, 0.75537109375, -0.19921875, -0.589599609375
461, 4034082809, -5.25208044052124, 2.144381046295166, 8.093841552734375, -2.2555441856384277, -1.7874975204467773, -2.072835922241211, 0.75634765625, -0.200927734375, -0.589111328125
462, 4034099476, -5.256651878356934, 2.1585021018981934, 8.07938289642334, -2.20540714263916, -1.8773338794708252, -1.9132301807403564, 0.75537109375, -0.19873046875, -0.590087890625
463, 4034116143, -5.2405924797058105, 2.179441213607788, 8.088922500610352, -2.1932921409606934, -1.841002345085144, -1.9289820194244385, 0.7568359375, -0.19921875, -0.589599609375
464, 4034132810, -5.21925687789917, 2.15862774848938, 8.083107948303223, -2.266185760498047, -1.731290340423584, -1.99612557888031, 0.756591796875, -0.2001953125, -0.587890625
465, 4034149477, -5.251283168792725, 2.162783622741699, 8.08260440826416, -2.229931116104126, -1.7495266199111938, -1.9867388010025024, 0.757080078125, -0.19775390625, -0.589599609375
466, 4034166144, -5.241084575653076, 2.1884639263153076, 8.099397659301758, -2.404289722442627, -1.6988393068313599, -2.060720920562744, 0.75537109375, -0.1982421875, -0.590087890625
467, 4034182811, -5.233231067657471, 2.180046796798706, 8.086585998535156, -2.4634552001953125, -1.7095069885253906, -2.0751922130584717, 0.7568359375, -0.1982421875, -0.589599609375
468, 4034199478, -5.24183464050293, 2.1465260982513428, 8.087149620056152, -2.5811197757720947, -1.730983018875122, -2.1482393741607666, 0.7548828125, -0.19970703125, -0.5927734375
469, 4034216145, -5.247652530670166, 2.161885976791382, 8.077173233032227, -2.3688290119171143, -1.7601943016052246, -2.101701259613037, 0.755859375, -0.19873046875, -0.589599609375
470, 4034232812, -5.218942642211914, 2.1782758235931396, 8.08717155456543, -2.3022103309631348, -1.6804620027542114, -2.0534980297088623, 0.7568359375, -0.19970703125, -0.590087890625
471, 4034249479, -5.229048252105713, 2.184016466140747, 8.059465408325195, -2.277494192123413, -1.6519166231155396, -2.063102960586548, 0.7568359375, -0.19677734375, -0.591552734375
472, 4034266146, -5.245441913604736, 2.1648037433624268, 8.072565078735352, -2.30401611328125, -1.728255271911621, -2.022071599960327, 0.75537109375, -0.2001953125, -0.589599609375
473, 4034282813, -5.2336931228637695, 2.169834613800049, 8.079704284667969, -2.517638683319092, -1.7831690311431885, -2.126699447631836, 0.7548828125, -0.19775390625, -0.59326171875
474, 4034299480, -5.229844093322754, 2.1735191345214844, 8.066922187805176, -2.5949888229370117, -1.7107747793197632, -2.0863850116729736, 0.7548828125, -0.20068359375, -0.591064453125
475, 4034316147, -5.241351127624512, 2.1793837547302246, 8.093670845031738, -2.6176183223724365, -1.800355315208435, -2.193331003189087, 0.7548828125, -0.19921875, -0.592041015625
476, 4034332814, -5.222825050354004, 2.15993595123291, 8.086236953735352, -2.601597309112549, -1.7825671434402466, -2.2485134601593018, 0.755859375, -0.19873046875, -0.592529296875
477, 4034349481, -5.230212211608887, 2.1612331867218018, 8.071816444396973, -2.657177209854126, -1.768736481666565, -2.2461702823638916, 0.7568359375, -0.2001953125, -0.591552734375
478, 4034366148, -5.22346305847168, 2.1883316040039062, 8.070497512817383, -2.801568031311035, -1.8327935934066772, -2.3374276161193848, 0.755859375, -0.2001953125, -0.591064453125
479, 4034382815, -5.249174118041992, 2.1521811485290527, 8.065183639526367, -2.8266050815582275, -1.7386672496795654, -2.2625491619110107, 0.75390625, -0.2001953125, -0.591064453125
480, 4034399482, -5.216921329498291, 2.1619975566864014, 8.062029838562012, -2.614993095397949, -1.7989083528518677, -2.317680835723877, 0.7548828125, -0.200927734375, -0.591064453125
481, 4034416149, -5.227883815765381, 2.165771961212158, 8.051165580749512, -2.616926670074463, -1.6553617715835571, -2.2748818397521973, 0.75537109375, -0.19775390625, -0.590576171875
482, 4034432816, -5.23377799987793, 2.1650969982147217, 8.084911346435547, -2.4941649436950684, -1.665811538696289, -2.2095563411712646, 0.75390625, -0.19873046875, -0.590087890625
483, 4034449483, -5.231094837188721, 2.1685373783111572, 8.094132423400879, -2.5119524002075195, -1.5038752555847168, -2.2681965827941895, 0.7548828125, -0.19921875, -0.591552734375
484, 4034466150, -5.254227638244629, 2.145249366760254, 8.078142166137695, -2.4171855449676514, -1.4501910209655762, -2.207878828048706, 0.7548828125, -0.19873046875, -0.592041015625
485, 4034482817, -5.236771583557129, 2.1649816036224365, 8.088130950927734, -2.3702118396759033, -1.4613069295883179, -2.0514745712280273, 0.75537109375, -0.2001953125, -0.592041015625
486, 4034499484, -5.2692060470581055, 2.1583919525146484, 8.095636367797852, -2.3501827716827393, -1.6223467588424683, -2.089689016342163, 0.75634765625, -0.200927734375, -0.592041015625
487, 4034516151, -5.246928691864014, 2.1727945804595947, 8.074503898620605, -2.2742669582366943, -1.8745934963226318, -1.9838699102401733, 0.75439453125, -0.19677734375, -0.587646484375
488, 4034532818, -5.221415996551514, 2.1714107990264893, 8.063304901123047, -2.3231232166290283, -1.8525280952453613, -2.0641019344329834, 0.755859375, -0.20068359375, -0.589111328125
489, 4034549485, -5.221405982971191, 2.1467883586883545, 8.083066940307617, -2.3954789638519287, -1.6929353475570679, -1.9818081855773926, 0.75537109375, -0.19873046875, -0.591064453125
490, 4034566152, -5.234516620635986, 2.1541550159454346, 8.087554931640625, -2.3328559398651123, -1.6829591989517212, -2.0585949420928955, 0.75537109375, -0.1982421875, -0.592041015625
491, 4034582819, -5.241138458251953, 2.155571460723877, 8.081936836242676, -2.3056421279907227, -1.5722354650497437, -2.06907057762146, 0.75341796875, -0.19970703125, -0.591064453125
492, 4034599486, -5.232616424560547, 2.1555373668670654, 8.074503898620605, -2.319089412689209, -1.6813329458236694, -2.149405002593994, 0.7548828125, -0.2001953125, -0.590576171875
493, 4034616153, -5.234694004058838, 2.1620852947235107, 8.093704223632812, -2.3067309856414795, -1.7106980085372925, -2.1128175258636475, 0.75390625, -0.19921875, -0.59228515625
494, 4034632820, -5.242349624633789, 2.145969867706299, 8.060848236083984, -2.306718111038208, -1.8213448524475098, -2.0971038341522217, 0.7529296875, -0.20068359375, -0.590087890625
495, 4034649487, -5.22757625579834, 2.17244553565979, 8.08267879486084, -2.4313881397247314, -1.8227534294128418, -2.1287996768951416, 0.755859375, -0.20068359375, -0.590576171875
496, 4034666154, -5.2325520515441895, 2.1859803199768066, 8.110305786132812, -2.435089111328125, -1.6630327701568604, -2.1493923664093018, 0.75439453125, -0.19921875, -0.591064453125
497, 4034682821, -5.214723587036133, 2.145327568054199, 8.08156681060791, -2.3105344772338867, -1.5857590436935425, -2.0982820987701416, 0.75634765625, -0.200927734375, -0.592041015625
498, 4034699488, -5.213362216949463, 2.1678667068481445, 8.077980995178223, -2.2932071685791016, -1.6461280584335327, -2.0714268684387207, 0.75634765625, -0.2001953125, -0.590576171875
499, 4034716155, -5.235114097595215, 2.1693050861358643, 8.088608741760254, -2.301403522491455, -1.6818705797195435, -2.077907085418701, 0.75634765625, -0.201416015625, -0.590087890625
500, 4034732822, -5.241543292999268, 2.1687233448028564, 8.065469741821289, -2.287163019180298, -1.6144579648971558, -2.0297422409057617, 0.7568359375, -0.1982421875, -0.590087890625
501, 4034749489, -5.23909854888916, 2.167264461517334, 8.073465347290039, -2.2820916175842285, -1.7423039674758911, -2.1177477836608887, 0.75439453125, -0.1982421875, -0.591064453125
502, 4034766156, -5.220793724060059, 2.172699213027954, 8.095541954040527, -2.409937620162964, -1.6954584121704102, -2.077869176864624, 0.755859375, -0.20068359375, -0.59521484375
503, 4034782823, -5.2551984786987305, 2.188246011734009, 8.086983680725098, -2.48535418510437, -1.745377540588379, -1.978683590888977, 0.75390625, -0.19970703125, -0.590576171875
504, 4034799490, -5.217880725860596, 2.1689772605895996, 8.096685409545898, -2.4326555728912354, -1.7895336151123047, -2.0589535236358643, 0.75537109375, -0.201416015625, -0.592041015625
505, 4034816157, -5.255502223968506, 2.1596312522888184, 8.075366973876953, -2.594208002090454, -1.8131229877471924, -2.0423951148986816, 0.75537109375, -0.20068359375, -0.592041015625
506, 4034832824, -5.211981296539307, 2.1700620651245117, 8.072157859802246, -2.6005218029022217, -1.7156667709350586, -2.21018385887146, 0.75341796875, -0.19873046875, -0.59228515625
507, 4034849491, -5.228244781494141, 2.168381452560425, 8.10799503326416, -2.7070577144622803, -1.8090251684188843, -2.210491180419922, 0.755859375, -0.19921875, -0.591064453125
508, 4034866158, -5.249594211578369, 2.1720385551452637, 8.05257511138916, -2.752930164337158, -1.8097553253173828, -2.091174840927124, 0.75390625, -0.2001953125, -0.592041015625
509, 4034882825, -5.2427873611450195, 2.1603496074676514, 8.064691543579102, -2.78192400932312, -2.01466965675354, -2.085206985473633, 0.75439453125, -0.201171875, -0.59521484375
510, 4034899492, -5.255843162536621, 2.1211626529693604, 8.07852554321289, -2.6869006156921387, -2.2787365913391113, -1.97782564163208, 0.75341796875, -0.19970703125, -0.59326171875
511, 4034916159, -5.284461498260498, 2.1484181880950928, 8.09048080444336, -2.6065659523010254, -2.7288923263549805, -1.7704393863677979, 0.75341796875, -0.19775390625, -0.590087890625
512, 4034932826, -5.257501602172852, 2.1507604122161865, 8.11672306060791, -2.45570707321167, -2.9863510131835938, -1.6389307975769043, 0.7548828125, -0.19970703125, -0.592529296875
513, 4034949493, -5.187119483947754, 2.1932997703552246, 8.060807228088379, -2.420630693435669, -3.1497600078582764, -1.5549981594085693, 0.752197265625, -0.19970703125, -0.59326171875
514, 4034966160, -5.170855522155762, 2.1922523975372314, 8.088423728942871, -2.6301426887512207, -2.856008291244507, -1.826544165611267, 0.7529296875, -0.1982421875, -0.5927734375
515, 4034982827, -5.191927433013916, 2.161816358566284, 8.12822151184082, -2.6574199199676514, -2.742492437362671, -1.7505383491516113, 0.7548828125, -0.1982421875, -0.5927734375
516, 4034999494, -5.206216335296631, 2.150611400604248, 8.11009407043457, -2.6309618949890137, -2.689704656600952, -1.7337491512298584, 0.752197265625, -0.2021484375, -0.595703125
517, 4035016161, -5.223483085632324, 2.157168388366699, 8.104033470153809, -2.4544780254364014, -2.7531092166900635, -1.5479036569595337, 0.7529296875, -0.2001953125, -0.5947265625
518, 4035032828, -5.22934103012085, 2.1471004486083984, 8.102852821350098, -2.2099151611328125, -2.879239320755005, -1.5091389417648315, 0.7529296875, -0.201904296875, -0.595703125
519, 4035049495, -5.201938152313232, 2.145909070968628, 8.108624458312988, -2.057506561279297, -2.8847453594207764, -1.2849122285842896, 0.750732421875, -0.20068359375, -0.59521484375
520, 4035066162, -5.169483661651611, 2.1694071292877197, 8.132730484008789, -1.9391504526138306, -2.8256702423095703, -1.2560853958129883, 0.750244140625, -0.20068359375, -0.59375
521, 4035082829, -5.1459550857543945, 2.170976400375366, 8.122614860534668, -1.9557983875274658, -2.567096710205078, -1.442033290863037, 0.749755859375, -0.1982421875, -0.595703125
522, 4035099496, -5.178061008453369, 2.1612281799316406, 8.113648414611816, -1.8134685754776, -2.453171491622925, -1.3693699836730957, 0.750732421875, -0.203857421875, -0.5947265625
523, 4035116163, -5.210441589355469, 2.168276786804199, 8.10479736328125, -1.819859266281128, -2.526411294937134, -1.322358250617981, 0.751708984375, -0.20166015625, -0.5947265625
524, 4035132830, -5.1701579093933105, 2.1598827838897705, 8.08952522277832, -1.6398274898529053, -2.362797260284424, -1.191925287246704, 0.749267578125, -0.2021484375, -0.59619140625
525, 4035149497, -4.9807963371276855, 2.2856738567352295, 8.07990550994873, -1.8070143461227417, -1.8484814167022705, -1.591304063796997, 0.751220703125, -0.202392578125, -0.595703125
526, 4035166164, -5.1459641456604, 2.1483423709869385, 8.084450721740723, -2.3518731594085693, -0.9513196349143982, -2.207622528076172, 0.749267578125, -0.204345703125, -0.597412109375
527, 4035182831, -5.0505852699279785, 2.173112630844116, 8.101129531860352, -1.4883668422698975, -0.10661286860704422, -1.976698637008667, 0.749755859375, -0.20263671875, -0.596923828125
528, 4035199498, -5.172328472137451, 2.126147747039795, 8.123224258422852, -0.4620403051376343, 0.33274099230766296, -1.599385142326355, 0.749267578125, -0.20263671875, -0.5966796875
529, 4035216165, -5.270583152770996, 2.14870548248291, 8.121658325195312, -0.02887832000851631, 0.516115128993988, -1.5774606466293335, 0.751708984375, -0.203857421875, -0.59375
530, 4035232832, -5.230591297149658, 2.1620843410491943, 8.057267189025879, 0.38136669993400574, 0.3390929400920868, -1.2957978248596191, 0.751220703125, -0.203369140625, -0.59423828125
531, 4035249499, -5.210814952850342, 2.205670118331909, 8.03902816772461, 0.9255470037460327, 0.22126172482967377, -0.7965037226676941, 0.7529296875, -0.203369140625, -0.59423828125
532, 4035266166, -5.007255554199219, 2.2943344116210938, 8.065476417541504, 1.2420302629470825, 0.7328113913536072, -0.7705197334289551, 0.75244140625, -0.206298828125, -0.592041015625
533, 4035282833, -5.078495979309082, 2.278928518295288, 8.100659370422363, 1.5516235828399658, 1.8994312286376953, -1.516937494277954, 0.75390625, -0.205810546875, -0.590576171875
534, 4035299500, -5.226073265075684, 2.0926787853240967, 8.164551734924316, 2.964432954788208, 2.6728577613830566, -1.0877841711044312, 0.75390625, -0.206787109375, -0.590576171875
535, 4035316167, -5.322818279266357, 2.2313973903656006, 8.013367652893066, 3.6120376586914062, 2.6723203659057617, -0.8819476366043091, 0.75439453125, -0.207275390625, -0.589111328125
536, 4035332834, -5.089711666107178, 2.371994972229004, 8.040116310119629, 4.294732093811035, 1.676703691482544, -0.7653588056564331, 0.7548828125, -0.21142578125, -0.5888671875
537, 4035349501, -4.935080051422119, 2.357187271118164, 8.101885795593262, 2.76466703414917, 3.050722360610962, -2.586754560470581, 0.755859375, -0.21142578125, -0.5888671875
538, 4035366168, -5.369063377380371, 2.217078685760498, 8.057475090026855, 3.705946683883667, 3.663672924041748, -2.4900283813476562, 0.757568359375, -0.214599609375, -0.583251953125
539, 4035382835, -5.437831401824951, 2.2300193309783936, 8.024955749511719, 4.193970680236816, 3.8018016815185547, -1.373045563697815, 0.758056640625, -0.213134765625, -0.583740234375
540, 4035399502, -5.371589660644531, 2.359832286834717, 7.9761762619018555, 3.872710943222046, 2.975882053375244, -1.010728359222412, 0.75537109375, -0.214599609375, -0.582763671875
541, 4035416169, -5.344326972961426, 2.333036422729492, 7.96996545791626, 3.3693315982818604, 2.413017511367798, -0.9921207427978516, 0.758056640625, -0.213623046875, -0.582763671875
542, 4035432836, -5.361332893371582, 2.4070053100585938, 8.005202293395996, 2.778843402862549, 2.1073427200317383, -0.9481565356254578, 0.76025390625, -0.216552734375, -0.57861328125
543, 4035449503, -5.3972930908203125, 2.4081568717956543, 7.9645161628723145, 2.0472166538238525, 1.1066285371780396, -0.9680063128471375, 0.758056640625, -0.217041015625, -0.580322265625
544, 4035466170, -5.426703929901123, 2.4160726070404053, 7.9136481285095215, 0.7531862258911133, 0.11464883387088776, -0.7435110211372375, 0.759521484375, -0.2197265625, -0.580078125
545, 4035482837, -5.370652198791504, 2.4099655151367188, 7.936901569366455, -0.027700135484337807, -0.9802365303039551, -0.5544893145561218, 0.758544921875, -0.220703125, -0.57861328125
546, 4035499504, -5.257721424102783, 2.4928035736083984, 7.962459087371826, -0.7276568412780762, -1.6085542440414429, -1.0657572746276855, 0.759033203125, -0.220703125, -0.57763671875
547, 4035516171, -5.2710700035095215, 2.428011417388916, 7.954524040222168, -1.2305878400802612, -1.6413259506225586, -1.4475657939910889, 0.759521484375, -0.2216796875, -0.5791015625
548, 4035532838, -5.265538215637207, 2.4451749324798584, 7.953103542327881, -1.43315851688385, -1.4070464372634888, -1.5750272274017334, 0.759521484375, -0.22216796875, -0.57666015625
549, 4035549505, -5.286492824554443, 2.419767379760742, 7.986278533935547, -1.517296314239502, -1.1304036378860474, -1.6610989570617676, 0.759521484375, -0.22265625, -0.57763671875
550, 4035566172, -5.288247585296631, 2.4872965812683105, 7.97405481338501, -1.735900640487671, -1.2504760026931763, -1.9142674207687378, 0.758056640625, -0.22314453125, -0.57763671875
551, 4035582839, -5.305838108062744, 2.4290904998779297, 7.933716297149658, -2.035735845565796, -1.4471687078475952, -2.215242624282837, 0.757568359375, -0.22119140625, -0.578125
552, 4035599506, -5.319046497344971, 2.441176652908325, 7.975440502166748, -1.87509286403656, -1.388541340827942, -2.1478171348571777, 0.759033203125, -0.22216796875, -0.57861328125
553, 4035616173, -5.221280097961426, 2.4488840103149414, 7.942554473876953, -1.86965012550354, -1.0924072265625, -2.400806188583374, 0.759033203125, -0.223876953125, -0.57763671875
554, 4035632840, -5.286473751068115, 2.3874406814575195, 7.985294342041016, -1.3703690767288208, -0.5790518522262573, -2.268183708190918, 0.759521484375, -0.22314453125, -0.5771484375
555, 4035649507, -5.289851188659668, 2.388322591781616, 7.96457052230835, -1.3275448083877563, 0.002977476455271244, -2.0569944381713867, 0.759521484375, -0.22265625, -0.575439453125
556, 4035666174, -5.3146443367004395, 2.422583818435669, 7.97235631942749, -0.9474905729293823, 0.060196246951818466, -1.8451642990112305, 0.76123046875, -0.220703125, -0.575927734375
557, 4035682841, -5.306865692138672, 2.44189190864563, 7.931766510009766, -0.9042691588401794, 0.2891225516796112, -1.8512986898422241, 0.7607421875, -0.223388671875, -0.573974609375
558, 4035699508, -5.275487422943115, 2.435275077819824, 7.923814296722412, -0.20367220044136047, 0.4115513265132904, -1.704243540763855, 0.76220703125, -0.223876953125, -0.574951171875
559, 4035716175, -5.291621685028076, 2.382016181945801, 7.972498893737793, 0.26466238498687744, 1.3281272649765015, -1.3797177076339722, 0.76171875, -0.222900390625, -0.573486328125
560, 4035732842, -5.320892333984375, 2.3833706378936768, 7.937696933746338, 1.7265585660934448, 1.8585023880004883, -0.7528212666511536, 0.763671875, -0.225830078125, -0.572509765625
561, 4035749509, -5.364234447479248, 2.3759727478027344, 7.860170364379883, 2.7267982959747314, 2.4983842372894287, -0.038303788751363754, 0.76318359375, -0.225830078125, -0.57177734375
562, 4035766176, -5.314616680145264, 2.3706881999969482, 7.876321315765381, 3.9009110927581787, 3.198546886444092, 1.166434645652771, 0.76318359375, -0.227783203125, -0.574951171875
563, 4035782843, -5.299861431121826, 2.4310734272003174, 7.93043851852417, 5.878480911254883, 4.869019985198975, 1.8937971591949463, 0.763427734375, -0.22998046875, -0.566650390625
564, 4035799510, -5.27748441696167, 2.5630886554718018, 7.953525543212891, 7.819117069244385, 6.540146827697754, 2.703991174697876, 0.765869140625, -0.23193359375, -0.567138671875
565, 4035816177, -5.336943626403809, 2.731196880340576, 7.891773223876953, 7.360445976257324, 8.38436508178711, 2.6092498302459717, 0.765869140625, -0.235595703125, -0.56298828125
566, 4035832844, -5.2768120765686035, 2.6336047649383545, 7.933719635009766, 6.722524166107178, 9.42116928100586, 1.3809030055999756, 0.766845703125, -0.238037109375, -0.558837890625
567, 4035849511, -5.422267913818359, 2.5830881595611572, 7.809692859649658, 6.251441478729248, 10.245923042297363, 1.0209674835205078, 0.771484375, -0.2392578125, -0.555908203125
568, 4035866178, -5.487682342529297, 2.58410906791687, 7.761455535888672, 5.975362300872803, 10.543248176574707, 1.0315968990325928, 0.772705078125, -0.242919921875, -0.5537109375
569, 4035882845, -5.515657901763916, 2.5720040798187256, 7.700128078460693, 5.345890998840332, 9.658992767333984, 0.6184252500534058, 0.773193359375, -0.244384765625, -0.549072265625
570, 4035899512, -5.4803667068481445, 2.775862693786621, 7.781937122344971, 4.929864406585693, 9.459946632385254, 0.26435521245002747, 0.775146484375, -0.245361328125, -0.5458984375
571, 4035916179, -5.522173881530762, 2.7544944286346436, 7.727537631988525, 4.899141788482666, 9.973161697387695, -0.453229695558548, 0.7763671875, -0.247314453125, -0.54443359375
572, 4035932846, -5.5174174308776855, 2.6843061447143555, 7.728941917419434, 5.2557220458984375, 10.965680122375488, -0.5901169180870056, 0.779296875, -0.24951171875, -0.541259765625
573, 4035949513, -5.5885491371154785, 2.5962066650390625, 7.727878093719482, 5.978634834289551, 11.939942359924316, -0.7117260694503784, 0.782470703125, -0.252197265625, -0.53662109375
574, 4035966180, -5.6807355880737305, 2.675004005432129, 7.741883277893066, 7.219002723693848, 13.464971542358398, -0.457430362701416, 0.781494140625, -0.256103515625, -0.53515625
575, 4035982847, -5.6429290771484375, 2.886613130569458, 7.642911434173584, 8.305957794189453, 14.751028060913086, -0.32087624073028564, 0.783447265625, -0.256591796875, -0.529541015625
576, 4035999514, -5.694554805755615, 2.9240705966949463, 7.572594165802002, 7.843263626098633, 15.528568267822266, -0.6618200540542603, 0.78759765625, -0.25732421875, -0.52685546875
577, 4036016181, -5.66724967956543, 2.9170169830322266, 7.591698169708252, 7.654191017150879, 16.123294830322266, -1.2287962436676025, 0.789306640625, -0.2578125, -0.521240234375
578, 4036032848, -5.667088508605957, 2.962989091873169, 7.56943941116333, 7.615286350250244, 16.802892684936523, -2.1312737464904785, 0.792724609375, -0.260498046875, -0.517578125
579, 4036049515, -5.688813209533691, 2.98175048828125, 7.513671875, 7.525144100189209, 17.728397369384766, -3.9936275482177734, 0.794921875, -0.260986328125, -0.513916015625
580, 4036066182, -5.794122219085693, 2.9168667793273926, 7.411480903625488, 6.696725368499756, 18.137346267700195, -6.052724838256836, 0.797607421875, -0.259521484375, -0.506591796875
581, 4036082849, -5.827395439147949, 3.0163614749908447, 7.425340175628662, 6.48723840713501, 18.355491638183594, -7.935172080993652, 0.80078125, -0.261474609375, -0.50146484375
582, 4036099516, -5.861464977264404, 3.2225732803344727, 7.373366832733154, 4.279036998748779, 17.288118362426758, -11.328168869018555, 0.807373046875, -0.2607421875, -0.496337890625
583, 4036116183, -5.868104457855225, 3.349381446838379, 7.24186897277832, -1.6693614721298218, 14.73513126373291, -14.782954216003418, 0.810546875, -0.258056640625, -0.494140625
584, 4036132850, -5.968064785003662, 3.017070770263672, 7.213446140289307, -3.6697676181793213, 13.064386367797852, -16.59547996520996, 0.81396484375, -0.251220703125, -0.488037109375
585, 4036149517, -5.991682052612305, 2.8688409328460693, 7.250664234161377, -4.339439868927002, 13.378262519836426, -17.94858169555664, 0.816650390625, -0.250244140625, -0.4833984375
586, 4036166184, -6.074154853820801, 2.780130624771118, 7.2751545906066895, -4.343973636627197, 14.72147274017334, -18.418729782104492, 0.81982421875, -0.2451171875, -0.48193359375
587, 4036182851, -6.179116725921631, 2.524782419204712, 7.292015552520752, -5.217637538909912, 16.24937629699707, -17.006250381469727, 0.8232421875, -0.241455078125, -0.479248046875
588, 4036199518, -6.1971893310546875, 2.4881834983825684, 7.263399124145508, -5.966119289398193, 19.22373390197754, -13.366103172302246, 0.827880859375, -0.239013671875, -0.47265625
589, 4036216185, -6.136167049407959, 2.747865915298462, 7.22349739074707, -5.103547096252441, 22.873048782348633, -12.479305267333984, 0.830078125, -0.234130859375, -0.467529296875
590, 4036232852, -6.194198131561279, 2.8489372730255127, 7.184657096862793, -3.789372444152832, 25.824628829956055, -15.69154167175293, 0.836181640625, -0.232666015625, -0.46142578125
591, 4036249519, -6.271678924560547, 2.706829071044922, 7.135988235473633, -2.593334913253784, 29.137529373168945, -17.35645294189453, 0.83837890625, -0.228515625, -0.455078125
592, 4036266186, -6.263339996337891, 2.616218090057373, 7.129967212677002, -1.637338638305664, 34.15089797973633, -17.257732391357422, 0.84619140625, -0.2236328125, -0.447265625
593, 4036282853, -6.16947078704834, 2.7498397827148438, 7.213383197784424, -0.9493802785873413, 42.91933822631836, -17.87126922607422, 0.850830078125, -0.2216796875, -0.435546875
594, 4036299520, -6.124841213226318, 2.908724784851074, 7.22356653213501, -1.5920021533966064, 55.283203125, -20.300180435180664, 0.861572265625, -0.21728515625, -0.422607421875
595, 4036316187, -6.221865653991699, 2.83190655708313, 7.188307762145996, 0.8492765426635742, 71.24317932128906, -24.85449981689453, 0.869873046875, -0.210205078125, -0.40673828125
596, 4036332854, -6.4084553718566895, 2.651420831680298, 7.205251216888428, 4.251867771148682, 92.51790618896484, -29.326080322265625, 0.8798828125, -0.20703125, -0.382568359375
597, 4036349521, -6.49384069442749, 2.636859178543091, 7.078456878662109, 6.459702014923096, 116.5146713256836, -36.051639556884766, 0.89501953125, -0.198974609375, -0.356689453125
598, 4036366188, -6.5106282234191895, 3.0763769149780273, 7.268627643585205, 7.12758731842041, 144.50259399414062, -45.66925811767578, 0.91015625, -0.187744140625, -0.31884765625
599, 4036382855, -6.7840495109558105, 2.6504223346710205, 7.239059925079346, 4.595889568328857, 176.0198974609375, -57.25719451904297, 0.929443359375, -0.17431640625, -0.27197265625
600, 4036399522, -7.000707626342773, 3.0151169300079346, 6.661403656005859, 2.3170299530029297, 210.45997619628906, -73.82073974609375, 0.94970703125, -0.156982421875, -0.216064453125
601, 4036416189, -7.34705924987793, 3.0387330055236816, 6.2580742835998535, -2.634538412094116, 247.76910400390625, -96.39710235595703, 0.96630859375, -0.130859375, -0.150634765625
602, 4036432856, -8.306900978088379, 3.413418769836426, 6.999009609222412, -22.5803165435791, 289.8227844238281, -121.69294738769531, 0.981201171875, -0.09716796875, -0.07421875
603, 4036449523, -10.842153549194336, 3.167161226272583, 7.2267255783081055, -28.408533096313477, 333.4139099121094, -137.83457946777344, 0.98974609375, -0.06201171875, 0.01806640625
604, 4036466190, -13.34725570678711, 4.1593546867370605, 7.685267448425293, -9.226141929626465, 357.61431884765625, -143.197998046875, 0.9873046875, -0.01708984375, 0.119140625
605, 4036482857, -19.78807830810547, 5.29649543762207, 10.152344703674316, -10.048236846923828, 365.7838439941406, -153.26487731933594, 0.972900390625, 0.02392578125, 0.22265625
606, 4036499524, -20.7706298828125, 5.2718892097473145, 12.34847354888916, 6.973938941955566, 352.5288391113281, -147.29832458496094, 0.947265625, 0.064453125, 0.317138671875
607, 4036516191, -19.451400756835938, 5.086514949798584, 14.53891372680664, 11.919454574584961, 324.7486267089844, -141.40704345703125, 0.91552734375, 0.106201171875, 0.404541015625
608, 4036532858, -16.39727210998535, 7.6573381423950195, 17.117450714111328, 8.12782096862793, 269.1455078125, -134.5831756591797, 0.875244140625, 0.1416015625, 0.478271484375
609, 4036549525, -0.44784608483314514, 6.983625411987305, 10.37254524230957, -33.52847671508789, 191.34521484375, -139.16152954101562, 0.840087890625, 0.17333984375, 0.52880859375
610, 4036566192, -20.280227661132812, 9.55004596710205, 16.69572639465332, -23.849409103393555, 251.0054168701172, -96.0910415649414, 0.793701171875, 0.195068359375, 0.58935546875
611, 4036582859, -19.503894805908203, 10.59896469116211, 22.1184139251709, -21.0350284576416, 32.059757232666016, -20.050430297851562, 0.777099609375, 0.20166015625, 0.60595703125
612, 4036599526, -9.73891544342041, 5.8681840896606445, 16.59076499938965, -25.02255630493164, -118.24868774414062, 22.918973922729492, 0.793701171875, 0.194580078125, 0.5859375
613, 4036616193, -3.8570494651794434, 2.9083025455474854, 10.588791847229004, -1.0268192291259766, -176.8588104248047, 47.269287109375, 0.8193359375, 0.186279296875, 0.548828125
614, 4036632860, -1.5023455619812012, 2.2370517253875732, 7.521427154541016, 21.204591751098633, -187.81826782226562, 56.1207160949707, 0.85302734375, 0.1748046875, 0.50341796875
615, 4036649527, -2.249277114868164, 2.5188333988189697, 6.83865213394165, 21.041990280151367, -186.21580505371094, 54.93162536621094, 0.880126953125, 0.1650390625, 0.457763671875
616, 4036666194, -3.5175936222076416, 2.529153823852539, 6.832972526550293, 5.878028392791748, -193.19606018066406, 51.587982177734375, 0.90625, 0.154052734375, 0.407958984375
617, 4036682861, -5.026279449462891, 2.0733728408813477, 7.34391450881958, -4.136671543121338, -208.34930419921875, 57.609764099121094, 0.92919921875, 0.1376953125, 0.357421875
618, 4036699528, -6.155882835388184, 1.7970880270004272, 7.65179967880249, -5.184890270233154, -230.7907257080078, 73.03033447265625, 0.95263671875, 0.117919921875, 0.298828125
619, 4036716195, -7.373078346252441, 1.6779049634933472, 7.8802714347839355, -5.570576190948486, -256.0694580078125, 91.84171295166016, 0.972900390625, 0.093017578125, 0.224609375
620, 4036732862, -8.395101547241211, 1.3907865285873413, 7.950656414031982, -10.281824111938477, -280.6579895019531, 108.05986785888672, 0.989501953125, 0.0634765625, 0.15087890625
621, 4036749529, -9.593535423278809, 0.7353061437606812, 8.132925033569336, -15.757779121398926, -302.3548278808594, 119.06010437011719, 0.997802734375, 0.027099609375, 0.06591796875
622, 4036766196, -11.105005264282227, -0.38429149985313416, 8.613654136657715, -14.838632583618164, -324.0177307128906, 121.85638427734375, 0.99658203125, -0.008056640625, -0.026123046875
623, 4036782863, -12.206648826599121, -1.5969491004943848, 8.982015609741211, -0.4484303593635559, -343.931884765625, 115.64380645751953, 0.984375, -0.038818359375, -0.122802734375
624, 4036799530, -12.269655227661133, -2.5018234252929688, 8.56760025024414, 23.667070388793945, -354.48516845703125, 99.28343200683594, 0.962646484375, -0.067138671875, -0.22216796875
625, 4036816197, -12.166543960571289, -2.8221442699432373, 8.181191444396973, 51.05389404296875, -344.81439208984375, 70.4073257446289, 0.938720703125, -0.091552734375, -0.308837890625
626, 4036832864, -13.777329444885254, -1.9662431478500366, 9.241142272949219, 71.76142120361328, -322.71136474609375, 31.77924156188965, 0.904296875, -0.119873046875, -0.3916015625
627, 4036849531, -17.175092697143555, 0.05629921704530716, 11.72352409362793, 92.35081481933594, -314.731689453125, 7.106000900268555, 0.86181640625, -0.140380859375, -0.46923828125
628, 4036866198, -21.080432891845703, 2.272143602371216, 13.308171272277832, 112.58493041992188, -328.106201171875, 6.863062381744385, 0.81103515625, -0.162353515625, -0.54345703125
629, 4036882865, -23.897624969482422, 4.289799690246582, 12.95682144165039, 130.7598114013672, -354.16156005859375, 27.17339515686035, 0.75048828125, -0.195068359375, -0.6123046875
630, 4036899532, -25.030031204223633, 5.908248424530029, 9.763463020324707, 138.11961364746094, -375.2842712402344, 57.411338806152344, 0.677490234375, -0.231201171875, -0.679931640625
631, 4036916199, -23.917531967163086, 5.576725482940674, 3.8493242263793945, 133.57235717773438, -358.9213562011719, 90.03248596191406, 0.59375, -0.28076171875, -0.736572265625
632, 4036932866, -22.920711517333984, 1.4107861518859863, -2.4972517490386963, 132.89581298828125, -288.63232421875, 122.33934783935547, 0.514404296875, -0.33154296875, -0.771728515625
633, 4036949533, -27.253437042236328, -5.503864765167236, -8.320561408996582, 133.8975372314453, -194.90646362304688, 150.60836791992188, 0.447265625, -0.382568359375, -0.78564453125
634, 4036966200, -32.6763916015625, -15.065166473388672, -15.018448829650879, 126.32503509521484, -98.91978454589844, 165.21922302246094, 0.395751953125, -0.435791015625, -0.785400390625
635, 4036982867, -24.186491012573242, -10.845383644104004, -14.331072807312012, 14.961800575256348, 17.81040382385254, 53.97367858886719, 0.379150390625, -0.459716796875, -0.779296875
636, 4036999534, -22.43891716003418, -7.502899169921875, -3.5119035243988037, -87.33573150634766, 91.28333282470703, -79.74779510498047, 0.405517578125, -0.4375, -0.779052734375
637, 4037016201, -19.7840633392334, 1.2968677282333374, 3.594647169113159, -88.94740295410156, 95.26315307617188, -103.50723266601562, 0.438232421875, -0.404541015625, -0.7783203125
638, 4037032868, -0.0028978586196899414, 6.289919376373291, 9.139667510986328, -154.23666381835938, 143.57891845703125, -115.10519409179688, 0.483154296875, -0.354248046875, -0.776611328125
639, 4037049535, -0.45046567916870117, 9.460800170898438, 12.08741569519043, -125.46336364746094, 146.54493713378906, -78.01121520996094, 0.522705078125, -0.31494140625, -0.76708984375
640, 4037066202, -6.404432773590088, -4.363187789916992, 7.4542131423950195, -91.8663101196289, 207.9435577392578, -6.558238983154297, 0.57275390625, -0.287109375, -0.744140625
641, 4037082869, -10.601802825927734, -9.948333740234375, 15.122979164123535, -60.63898849487305, 210.97349548339844, -11.50422477722168, 0.61865234375, -0.271484375, -0.708251953125
642, 4037099536, -11.228073120117188, -7.867140769958496, 14.135658264160156, -43.146148681640625, 150.3682098388672, -99.68553161621094, 0.66162109375, -0.24560546875, -0.686767578125
643, 4037116203, -9.426483154296875, 7.541943550109863, 8.666816711425781, -41.378562927246094, 123.81238555908203, -100.0932846069336, 0.694091796875, -0.216064453125, -0.6640625
644, 4037132870, -8.373126029968262, 10.167858123779297, 9.880203247070312, -65.24089050292969, 147.1428985595703, -50.79188919067383, 0.723876953125, -0.194580078125, -0.635009765625
645, 4037149537, -21.85112762451172, -1.4654561281204224, 14.832015037536621, -114.75968170166016, 26.597700119018555, -63.87507629394531, 0.742919921875, -0.160400390625, -0.62890625
646, 4037166204, -6.3660383224487305, 2.14827561378479, 9.742338180541992, -34.641117095947266, 0.9198274612426758, -18.278728485107422, 0.742919921875, -0.14453125, -0.630126953125
647, 4037182871, -6.150446891784668, 1.4084844589233398, 8.964691162109375, -22.40720558166504, 2.171302318572998, -12.572843551635742, 0.744384765625, -0.136962890625, -0.633544921875
648, 4037199538, -5.697364807128906, 0.749526858329773, 8.92725658416748, -9.9319429397583, 3.291534423828125, -4.448838233947754, 0.747314453125, -0.134521484375, -0.630126953125
649, 4037216205, -5.225394248962402, 1.1930526494979858, 8.72281265258789, -2.7770578861236572, 5.9657182693481445, -2.4170711040496826, 0.747802734375, -0.135009765625, -0.629150390625
650, 4037232872, -5.2783660888671875, 0.7958438992500305, 8.573314666748047, 4.362055778503418, 8.293874740600586, 0.2975364029407501, 0.7490234375, -0.136474609375, -0.6279296875
651, 4037249539, -5.302570819854736, 1.865706443786621, 8.223593711853027, 5.230736255645752, 7.963137626647949, -0.023589301854372025, 0.75048828125, -0.13671875, -0.623291015625
652, 4037266206, -5.4349365234375, 2.366142749786377, 8.010228157043457, 0.10577406734228134, 4.158177375793457, -3.6349806785583496, 0.7509765625, -0.13818359375, -0.623291015625
653, 4037282873, -4.953890800476074, 2.892267942428589, 7.87360954284668, -6.743276119232178, 0.012300503440201283, -7.0404205322265625, 0.755126953125, -0.13720703125, -0.622314453125
654, 4037299540, -5.006308078765869, 2.391199827194214, 8.009946823120117, -11.685546875, -2.278007984161377, -8.718006134033203, 0.754638671875, -0.13525390625, -0.623291015625
