sep=,
DeviceTag:,B,,,,,,,,,,,,,,,,,
FirmwareVersion:,2.2.1,,,,,,,,,,,,,,,,,
AppVersion:,2022.0.1,,,,,,,,,,,,,,,,,
SyncStatus:,Synced,,,,,,,,,,,,,,,,,
OutputRate:,60Hz,,,,,,,,,,,,,,,,,
FilterProfile:,General,,,,,,,,,,,,,,,,,
Measurement Mode:,Inertial Mode - Rate quantities (with mag),,,,,,,,,,,,,,,,,
StartTime:,2022-08-16 15:05:08.654 +0300,,,,,,,,,,,,,,,,,
© Xsens Technologies B. V. 2005-2022,,,,,,,,,,,,,,,,,,,

PacketCounter,SampleTimeFine,Acc_X,Acc_Y,Acc_Z,Gyr_X,Gyr_Y,Gyr_Z,Mag_X,Mag_Y,Mag_Z
1, 4026432656, -5.267648220062256, -1.8558413982391357, 7.9343719482421875, -0.39376962184906006, -0.21162492036819458, -1.5779985189437866, 0.725830078125, 0.072265625, -0.62548828125
2, 4026449323, -5.294345378875732, -1.8534924983978271, 7.909563064575195, -0.5200785994529724, -0.26820334792137146, -1.6313368082046509, 0.72314453125, 0.074951171875, -0.627197265625
3, 4026465990, -5.309910297393799, -1.859052062034607, 7.865903854370117, -0.3944803476333618, -0.5709133744239807, -1.701137661933899, 0.724853515625, 0.073486328125, -0.62548828125
4, 4026482657, -5.275866985321045, -1.8564594984054565, 7.8814263343811035, -0.28870633244514465, -0.8264321088790894, -1.7186760902404785, 0.723876953125, 0.073974609375, -0.62646484375
5, 4026499324, -5.254457950592041, -1.8687529563903809, 7.89531135559082, -0.2114456444978714, -0.8079653978347778, -1.714552402496338, 0.723876953125, 0.073486328125, -0.625
6, 4026515991, -5.282069206237793, -1.8498338460922241, 7.921550273895264, -0.04200482740998268, -0.6552625298500061, -1.5891785621643066, 0.722412109375, 0.072265625, -0.62744140625
7, 4026532658, -5.266206741333008, -1.8695546388626099, 7.922051906585693, -0.09470295161008835, -0.6727943420410156, -1.7319434881210327, 0.723876953125, 0.073486328125, -0.62646484375
8, 4026549325, -5.25094747543335, -1.8620861768722534, 7.924498558044434, -0.13273783028125763, -0.5000239610671997, -1.6734955310821533, 0.724365234375, 0.0732421875, -0.626953125
9, 4026565992, -5.288123607635498, -1.8482823371887207, 7.89541482925415, -0.1643310934305191, -0.41195470094680786, -1.6005889177322388, 0.723876953125, 0.072265625, -0.62451171875
10, 4026582659, -5.30708122253418, -1.8425742387771606, 7.916097164154053, -0.1889064460992813, -0.5298243165016174, -1.6151623725891113, 0.72216796875, 0.073974609375, -0.62451171875
11, 4026599326, -5.283689975738525, -1.8333083391189575, 7.946048259735107, -0.32634422183036804, -0.5082072019577026, -1.6243318319320679, 0.724365234375, 0.072265625, -0.6259765625
12, 4026615993, -5.291194915771484, -1.8583513498306274, 7.909491062164307, -0.26904863119125366, -0.6270629167556763, -1.6511867046356201, 0.724365234375, 0.07177734375, -0.62451171875
13, 4026632660, -5.253490924835205, -1.8775252103805542, 7.893975734710693, -0.20606698095798492, -0.6798507571220398, -1.6030349731445312, 0.723388671875, 0.073486328125, -0.62451171875
14, 4026649327, -5.285011291503906, -1.8611277341842651, 7.930387496948242, -0.19209526479244232, -0.7475963234901428, -1.5933533906936646, 0.722900390625, 0.07275390625, -0.62548828125
15, 4026665994, -5.298652172088623, -1.8455023765563965, 7.920774459838867, -0.15631431341171265, -0.8244215846061707, -1.5996156930923462, 0.72314453125, 0.074951171875, -0.62548828125
16, 4026682661, -5.2831878662109375, -1.8557320833206177, 7.899442672729492, -0.18415530025959015, -0.7976434826850891, -1.6375863552093506, 0.724365234375, 0.073486328125, -0.62548828125
17, 4026699328, -5.26035737991333, -1.859377145767212, 7.917967319488525, -0.17097756266593933, -0.773759663105011, -1.6266368627548218, 0.724853515625, 0.072265625, -0.62548828125
18, 4026715995, -5.279448986053467, -1.8322176933288574, 7.942473888397217, -0.11624325811862946, -0.6942322254180908, -1.5815843343734741, 0.722412109375, 0.0712890625, -0.6259765625
19, 4026732662, -5.28081750869751, -1.8479684591293335, 7.913275241851807, -0.13693830370903015, -0.774540901184082, -1.5868092775344849, 0.724853515625, 0.07177734375, -0.62451171875
20, 4026749329, -5.280111312866211, -1.851721167564392, 7.910717964172363, -0.12561747431755066, -0.9585041403770447, -1.6874669790267944, 0.724365234375, 0.0732421875, -0.625
21, 4026765996, -5.294368743896484, -1.8546119928359985, 7.901488304138184, -0.02800748497247696, -1.1566437482833862, -1.6813839673995972, 0.723876953125, 0.0732421875, -0.626953125
22, 4026782663, -5.259406089782715, -1.854209065437317, 7.92188835144043, -0.06501782685518265, -1.0702649354934692, -1.6526591777801514, 0.725341796875, 0.07177734375, -0.626953125
23, 4026799330, -5.268096446990967, -1.8429994583129883, 7.897919178009033, -0.06294320523738861, -1.0800234079360962, -1.6721633672714233, 0.72216796875, 0.07373046875, -0.625
24, 4026815997, -5.2586236000061035, -1.849345088005066, 7.928158283233643, -0.14887380599975586, -1.0450621843338013, -1.7757796049118042, 0.724853515625, 0.07177734375, -0.62451171875
25, 4026832664, -5.258022308349609, -1.8467391729354858, 7.940746307373047, -0.09066895395517349, -0.9745888113975525, -1.6960985660552979, 0.723388671875, 0.07275390625, -0.6259765625
26, 4026849331, -5.273009777069092, -1.8489527702331543, 7.933328151702881, -0.2468295395374298, -0.748953640460968, -1.713783860206604, 0.722900390625, 0.0732421875, -0.6259765625
27, 4026865998, -5.298282146453857, -1.8477733135223389, 7.91172456741333, -0.16690514981746674, -0.8042131066322327, -1.7935291528701782, 0.724853515625, 0.07275390625, -0.62451171875
28, 4026882665, -5.281848430633545, -1.8651117086410522, 7.9505696296691895, -0.15485437214374542, -0.8967517614364624, -1.813660740852356, 0.723876953125, 0.074951171875, -0.62548828125
29, 4026899332, -5.270018577575684, -1.8398030996322632, 7.9111714363098145, -0.0753781646490097, -0.9732056260108948, -1.7927093505859375, 0.72119140625, 0.07177734375, -0.62646484375
30, 4026915999, -5.277449131011963, -1.8396925926208496, 7.909531593322754, -0.1904304176568985, -1.0644893646240234, -1.768403172492981, 0.724365234375, 0.074951171875, -0.6259765625
31, 4026932666, -5.279537677764893, -1.8479363918304443, 7.94163179397583, -0.10115736722946167, -1.0293999910354614, -1.9410072565078735, 0.724365234375, 0.072265625, -0.6259765625
32, 4026949333, -5.268718242645264, -1.857646107673645, 7.93761682510376, -0.08155572414398193, -0.9394789934158325, -1.8902153968811035, 0.724365234375, 0.0712890625, -0.62548828125
33, 4026966000, -5.267184257507324, -1.856995701789856, 7.920653343200684, 0.10637594014406204, -1.0429106950759888, -1.6528387069702148, 0.7216796875, 0.072265625, -0.6259765625
34, 4026982667, -5.259213447570801, -1.8552706241607666, 7.913062572479248, 0.17024759948253632, -1.082815170288086, -1.6187225580215454, 0.723876953125, 0.07275390625, -0.6279296875
35, 4026999334, -5.25900411605835, -1.840024471282959, 7.915896415710449, 0.2383325695991516, -1.1765961647033691, -1.5883331298828125, 0.72314453125, 0.073974609375, -0.62451171875
36, 4027016001, -5.271795749664307, -1.8415113687515259, 7.913397312164307, 0.23358139395713806, -1.171217441558838, -1.5763592720031738, 0.72119140625, 0.0712890625, -0.626953125
37, 4027032668, -5.273505687713623, -1.8264394998550415, 7.9454545974731445, 0.18809325993061066, -1.1746495962142944, -1.5750784873962402, 0.723388671875, 0.07177734375, -0.6259765625
38, 4027049335, -5.256577014923096, -1.828063726425171, 7.916861057281494, 0.05005362257361412, -1.18594491481781, -1.7456976175308228, 0.723876953125, 0.072265625, -0.62841796875
39, 4027066002, -5.243586540222168, -1.8680024147033691, 7.929181098937988, -0.043669652193784714, -1.0631319284439087, -1.7114533185958862, 0.72119140625, 0.07275390625, -0.629150390625
40, 4027082669, -5.246345043182373, -1.8570747375488281, 7.954434394836426, -0.14423790574073792, -0.8943825960159302, -1.7448906898498535, 0.72216796875, 0.072265625, -0.6259765625
41, 4027099336, -5.260518550872803, -1.839664101600647, 7.94963264465332, -0.047178592532873154, -0.789421796798706, -1.6606377363204956, 0.722412109375, 0.0732421875, -0.62646484375
42, 4027116003, -5.262387752532959, -1.8261840343475342, 7.931705474853516, -0.14592835307121277, -0.7145431041717529, -1.719406008720398, 0.722412109375, 0.07275390625, -0.6259765625
43, 4027132670, -5.25105094909668, -1.8394432067871094, 7.925100326538086, -0.1643182784318924, -0.6935535073280334, -1.6142661571502686, 0.72119140625, 0.07275390625, -0.627197265625
44, 4027149337, -5.253103733062744, -1.850966215133667, 7.9431681632995605, -0.19703850150108337, -0.7157468795776367, -1.4919781684875488, 0.722900390625, 0.0712890625, -0.629638671875
45, 4027166004, -5.262825965881348, -1.8293174505233765, 7.927287578582764, -0.2485712319612503, -0.6598983407020569, -1.5093178749084473, 0.724365234375, 0.07080078125, -0.62646484375
46, 4027182671, -5.249017715454102, -1.8271265029907227, 7.910419464111328, -0.23864629864692688, -0.586044192314148, -1.5587760210037231, 0.72216796875, 0.07373046875, -0.626953125
47, 4027199338, -5.241016864776611, -1.8399910926818848, 7.952331066131592, -0.22308659553527832, -0.5576140284538269, -1.523545742034912, 0.724365234375, 0.072265625, -0.62744140625
48, 4027216005, -5.248050212860107, -1.808583378791809, 7.971764087677002, -0.07941217720508575, -0.4551120400428772, -1.487227201461792, 0.721923828125, 0.07177734375, -0.628662109375
49, 4027232672, -5.263030529022217, -1.8354514837265015, 7.917017936706543, -0.08276744931936264, -0.5668603181838989, -1.473626732826233, 0.721923828125, 0.0712890625, -0.626953125
50, 4027249339, -5.268170356750488, -1.8419119119644165, 7.905546188354492, -0.1617698222398758, -0.6907617449760437, -1.4996107816696167, 0.723388671875, 0.068603515625, -0.626953125
51, 4027266006, -5.27116584777832, -1.8323463201522827, 7.915259838104248, 0.013004847802221775, -0.8680143356323242, -1.4516764879226685, 0.722412109375, 0.0712890625, -0.62646484375
52, 4027282673, -5.2320661544799805, -1.8287971019744873, 7.947994709014893, 0.005871712230145931, -0.7419871687889099, -1.4411883354187012, 0.721435546875, 0.068603515625, -0.627685546875
53, 4027299340, -5.250633239746094, -1.8219352960586548, 7.9273247718811035, -0.03273302689194679, -0.5917301774024963, -1.3798328638076782, 0.721435546875, 0.0712890625, -0.627197265625
54, 4027316007, -5.2764506340026855, -1.7928855419158936, 7.918805122375488, -0.17311623692512512, -0.6944755911827087, -1.588666319847107, 0.721435546875, 0.0712890625, -0.627197265625
55, 4027332674, -5.259056091308594, -1.8375310897827148, 7.934155464172363, -0.16950485110282898, -0.8404807448387146, -1.635895848274231, 0.724365234375, 0.0693359375, -0.626953125
56, 4027349341, -5.240628242492676, -1.835368275642395, 7.912140369415283, -0.13488924503326416, -0.9645485281944275, -1.584875226020813, 0.72119140625, 0.072265625, -0.626708984375
57, 4027366008, -5.240592002868652, -1.8216837644577026, 7.913680076599121, -4.866412782575935E-4, -1.053002119064331, -1.5600694417953491, 0.720703125, 0.072265625, -0.629150390625
58, 4027382675, -5.2752909660339355, -1.8103581666946411, 7.930838108062744, 0.11576300859451294, -0.9682497382164001, -1.4619088172912598, 0.721435546875, 0.07080078125, -0.62646484375
59, 4027399342, -5.256510257720947, -1.8302687406539917, 7.932156085968018, 0.1447821706533432, -1.039798617362976, -1.529884934425354, 0.721435546875, 0.07080078125, -0.628173828125
60, 4027416009, -5.257328510284424, -1.8211692571640015, 7.940120697021484, 0.025145266205072403, -0.9763302803039551, -1.5134799480438232, 0.721923828125, 0.0693359375, -0.626953125
61, 4027432676, -5.244414806365967, -1.822757363319397, 7.963827610015869, 0.043861739337444305, -1.0339974164962769, -1.5418330430984497, 0.722412109375, 0.0693359375, -0.626953125
62, 4027449343, -5.228433609008789, -1.8231651782989502, 7.9269843101501465, -0.03752260282635689, -0.9509099125862122, -1.6036878824234009, 0.722412109375, 0.069091796875, -0.626953125
63, 4027466010, -5.234622001647949, -1.810674786567688, 7.938475608825684, 0.005487521179020405, -0.7204212546348572, -1.604815125465393, 0.720703125, 0.06982421875, -0.627197265625
64, 4027482677, -5.238077640533447, -1.8134843111038208, 7.961562156677246, -0.14956535398960114, -0.6536104083061218, -1.6620975732803345, 0.722412109375, 0.0712890625, -0.62744140625
65, 4027499344, -5.248636245727539, -1.8308244943618774, 7.917439937591553, -0.1303686499595642, -0.5599576830863953, -1.7127981185913086, 0.72021484375, 0.07177734375, -0.629150390625
66, 4027516011, -5.248541831970215, -1.8251341581344604, 7.91918420791626, -0.07440489530563354, -0.5555266737937927, -1.6793864965438843, 0.721923828125, 0.072265625, -0.629150390625
67, 4027532678, -5.256692886352539, -1.7992334365844727, 7.938340663909912, -0.13848786056041718, -0.7031453847885132, -1.625714898109436, 0.720703125, 0.069091796875, -0.62548828125
68, 4027549345, -5.265166282653809, -1.8105014562606812, 7.923587799072266, -0.10991691052913666, -0.6653027534484863, -1.6432852745056152, 0.721435546875, 0.0693359375, -0.627685546875
69, 4027566012, -5.24330472946167, -1.8181822299957275, 7.944258213043213, -0.05843537673354149, -0.6179320216178894, -1.5023128986358643, 0.720458984375, 0.068115234375, -0.62744140625
70, 4027582679, -5.2599077224731445, -1.8043259382247925, 7.942692756652832, -0.06551729142665863, -0.7438696622848511, -1.5941729545593262, 0.722412109375, 0.0693359375, -0.628662109375
71, 4027599346, -5.254871368408203, -1.7993927001953125, 7.939043045043945, -0.22795303165912628, -0.804866373538971, -1.5675742626190186, 0.720947265625, 0.0703125, -0.628662109375
72, 4027616013, -5.2586541175842285, -1.8131495714187622, 7.952756881713867, -0.2745361328125, -0.7885445356369019, -1.6248760223388672, 0.72021484375, 0.06982421875, -0.626708984375
73, 4027632680, -5.251287460327148, -1.8119683265686035, 7.947162628173828, -0.170734241604805, -0.9039874076843262, -1.6236913204193115, 0.723876953125, 0.068115234375, -0.626953125
74, 4027649347, -5.234358787536621, -1.8022395372390747, 7.92627477645874, -0.21720851957798004, -0.687675416469574, -1.5691365003585815, 0.723388671875, 0.07080078125, -0.6279296875
75, 4027666014, -5.240858554840088, -1.8096139430999756, 7.949986934661865, -0.26208192110061646, -0.7654994130134583, -1.6347814798355103, 0.723388671875, 0.069091796875, -0.62646484375
76, 4027682681, -5.246149063110352, -1.8126006126403809, 7.913751602172852, -0.3514830470085144, -0.5880931615829468, -1.7000941038131714, 0.722412109375, 0.06982421875, -0.629638671875
77, 4027699348, -5.2386155128479, -1.8033971786499023, 7.946168422698975, -0.21478810906410217, -0.7677534818649292, -1.6017414331436157, 0.72119140625, 0.0712890625, -0.627685546875
78, 4027716015, -5.256566047668457, -1.7863408327102661, 7.940666198730469, -0.2536297142505646, -0.7797144651412964, -1.6971100568771362, 0.721435546875, 0.06982421875, -0.629150390625
79, 4027732682, -5.23013162612915, -1.814841866493225, 7.953701496124268, -0.2896668314933777, -0.8337445259094238, -1.784257411956787, 0.720703125, 0.069580078125, -0.62646484375
80, 4027749349, -5.247849941253662, -1.8109394311904907, 7.930010795593262, -0.317008376121521, -0.6847811341285706, -1.757645845413208, 0.720458984375, 0.069580078125, -0.630126953125
81, 4027766016, -5.258866310119629, -1.8272292613983154, 7.945890426635742, -0.23456108570098877, -0.7698792815208435, -1.672816514968872, 0.722900390625, 0.0693359375, -0.62646484375
82, 4027782683, -5.231703758239746, -1.829603672027588, 7.940463066101074, -0.17221978306770325, -0.7866812348365784, -1.6084262132644653, 0.720947265625, 0.0703125, -0.627685546875
83, 4027799350, -5.257666110992432, -1.8046597242355347, 7.944156646728516, -0.1753189116716385, -0.7117000818252563, -1.6995562314987183, 0.72021484375, 0.069091796875, -0.628173828125
84, 4027816017, -5.246576309204102, -1.804092526435852, 7.965192794799805, -0.17081108689308167, -0.8141251802444458, -1.6654144525527954, 0.72021484375, 0.06982421875, -0.629150390625
85, 4027832684, -5.233031272888184, -1.8111202716827393, 7.973331451416016, -0.24667586386203766, -0.7312808632850647, -1.6772345304489136, 0.72021484375, 0.0703125, -0.629638671875
86, 4027849351, -5.254300594329834, -1.8146895170211792, 7.926016330718994, -0.10763737559318542, -0.7643342018127441, -1.6415563821792603, 0.721923828125, 0.06982421875, -0.629150390625
87, 4027866018, -5.255734920501709, -1.814984917640686, 7.954526901245117, -0.07505801320075989, -0.8215273022651672, -1.6464483737945557, 0.722412109375, 0.06982421875, -0.6279296875
88, 4027882685, -5.239471912384033, -1.8050209283828735, 7.949904918670654, -0.04697369039058685, -0.8139075040817261, -1.6470246315002441, 0.722412109375, 0.0693359375, -0.629638671875
89, 4027899352, -5.242980003356934, -1.8069885969161987, 7.947950839996338, -0.011506503447890282, -0.8534086346626282, -1.6741291284561157, 0.720947265625, 0.06982421875, -0.627685546875
90, 4027916019, -5.227828502655029, -1.8028497695922852, 7.944644451141357, 0.02844930812716484, -0.8194911479949951, -1.5599671602249146, 0.721435546875, 0.067138671875, -0.628662109375
91, 4027932686, -5.239229679107666, -1.7983763217926025, 7.94175910949707, -0.0349869504570961, -0.7979124188423157, -1.6233584880828857, 0.721923828125, 0.068603515625, -0.629150390625
92, 4027949353, -5.242921352386475, -1.8036646842956543, 7.920557498931885, -0.02540779672563076, -0.7491714358329773, -1.5927256345748901, 0.720947265625, 0.069091796875, -0.628662109375
93, 4027966020, -5.2596330642700195, -1.7946027517318726, 7.936996936798096, 0.026579581201076508, -0.851750373840332, -1.545675277709961, 0.720458984375, 0.067626953125, -0.62646484375
94, 4027982687, -5.237102031707764, -1.8223909139633179, 7.935616970062256, 0.37208208441734314, -1.0300402641296387, -1.3579339981079102, 0.719482421875, 0.068603515625, -0.630126953125
95, 4027999354, -5.259341716766357, -1.7989572286605835, 7.934279918670654, 0.38686060905456543, -1.145118236541748, -1.4017317295074463, 0.720458984375, 0.068603515625, -0.629638671875
96, 4028016021, -5.221166133880615, -1.8202449083328247, 7.949792385101318, 0.28803399205207825, -1.2833242416381836, -1.4782240390777588, 0.721435546875, 0.067626953125, -0.631103515625
97, 4028032688, -5.220040798187256, -1.768013596534729, 7.971308708190918, 0.24911554157733917, -1.006207823753357, -1.43610417842865, 0.721435546875, 0.06982421875, -0.628662109375
98, 4028049355, -5.217497825622559, -1.7953310012817383, 7.98227071762085, 0.05211544781923294, -0.8759031295776367, -1.5762056112289429, 0.719970703125, 0.068603515625, -0.628173828125
99, 4028066022, -5.246383190155029, -1.7962279319763184, 7.95150089263916, -0.08658373355865479, -0.8128318190574646, -1.5983989238739014, 0.721435546875, 0.067138671875, -0.629638671875
100, 4028082689, -5.247305393218994, -1.7856905460357666, 7.939695835113525, -0.06801452487707138, -0.6747793555259705, -1.6042516231536865, 0.721923828125, 0.066162109375, -0.62841796875
101, 4028099356, -5.238956451416016, -1.7948451042175293, 7.979781627655029, -0.15283097326755524, -0.7553313374519348, -1.6422992944717407, 0.721923828125, 0.067138671875, -0.632080078125
102, 4028116023, -5.222079277038574, -1.7958215475082397, 7.9385762214660645, -0.14663270115852356, -0.6829499006271362, -1.593212604522705, 0.719482421875, 0.067138671875, -0.631103515625
103, 4028132690, -5.237360000610352, -1.76845121383667, 7.988403797149658, -0.22107602655887604, -0.6921192407608032, -1.530346155166626, 0.719482421875, 0.067138671875, -0.631103515625
104, 4028149357, -5.245868682861328, -1.7851382493972778, 7.927506923675537, -0.20528529584407806, -0.677983283996582, -1.626427173614502, 0.720947265625, 0.068603515625, -0.629638671875
105, 4028166024, -5.231832981109619, -1.7810211181640625, 7.947220802307129, -0.07922007888555527, -0.7378122210502625, -1.6413129568099976, 0.719970703125, 0.068115234375, -0.629638671875
106, 4028182691, -5.2430949211120605, -1.7872246503829956, 7.955346584320068, -0.16826260089874268, -0.858255922794342, -1.5942494869232178, 0.719482421875, 0.068115234375, -0.629638671875
107, 4028199358, -5.238574981689453, -1.7827280759811401, 7.9607062339782715, -0.12486190348863602, -0.7479035258293152, -1.5993080139160156, 0.719970703125, 0.068603515625, -0.630126953125
108, 4028216025, -5.234217643737793, -1.7892050743103027, 7.95352840423584, -0.18873998522758484, -0.8025227189064026, -1.666374921798706, 0.720947265625, 0.067626953125, -0.630126953125
109, 4028232692, -5.234884738922119, -1.7655624151229858, 7.979909896850586, -0.22891353070735931, -0.7907280921936035, -1.5782161951065063, 0.721435546875, 0.066650390625, -0.630615234375
110, 4028249359, -5.231685638427734, -1.7868809700012207, 7.9659576416015625, -0.29933562874794006, -0.6488850116729736, -1.6376889944076538, 0.719970703125, 0.065673828125, -0.631591796875
111, 4028266026, -5.237509727478027, -1.7806053161621094, 7.96487283706665, -0.310592383146286, -0.6996749043464661, -1.7255146503448486, 0.719482421875, 0.068603515625, -0.631591796875
112, 4028282693, -5.246718883514404, -1.7852716445922852, 7.9847822189331055, -0.3431204855442047, -0.872496485710144, -1.7929654121398926, 0.721923828125, 0.067626953125, -0.631591796875
113, 4028299360, -5.231710910797119, -1.7925924062728882, 7.958988666534424, -0.2794985771179199, -0.9467477798461914, -1.6626225709915161, 0.719970703125, 0.067138671875, -0.630126953125
114, 4028316027, -5.2089338302612305, -1.7844171524047852, 7.971683979034424, -0.2769244909286499, -0.8957272171974182, -1.6834074258804321, 0.721435546875, 0.066162109375, -0.629638671875
115, 4028332694, -5.239017009735107, -1.7688376903533936, 7.959537982940674, -0.3392401337623596, -0.9028730988502502, -1.7064074277877808, 0.719970703125, 0.067626953125, -0.630615234375
116, 4028349361, -5.215986728668213, -1.7795029878616333, 7.974303245544434, -0.3247562050819397, -0.8992746472358704, -1.7662005424499512, 0.721435546875, 0.068603515625, -0.630615234375
117, 4028366028, -5.236696243286133, -1.79579758644104, 7.953111171722412, -0.37634018063545227, -0.825394868850708, -1.763639211654663, 0.720947265625, 0.065673828125, -0.629150390625
118, 4028382695, -5.209999084472656, -1.7965534925460815, 7.953637599945068, -0.3584689199924469, -0.8385277390480042, -1.7162621021270752, 0.722412109375, 0.065673828125, -0.631103515625
119, 4028399362, -5.236207008361816, -1.7855310440063477, 7.968817234039307, -0.30513688921928406, -0.7894474864006042, -1.6864553689956665, 0.721923828125, 0.069091796875, -0.629638671875
120, 4028416029, -5.2083845138549805, -1.7748240232467651, 7.967382907867432, -0.3882885277271271, -0.6854726672172546, -1.5870270729064941, 0.720947265625, 0.066650390625, -0.632080078125
121, 4028432696, -5.236580848693848, -1.7705473899841309, 7.989445209503174, -0.531578779220581, -0.6986376643180847, -1.5899596214294434, 0.721435546875, 0.066650390625, -0.630615234375
122, 4028449363, -5.235142707824707, -1.7747135162353516, 7.981207370758057, -0.6049079298973083, -0.7421919703483582, -1.6507511138916016, 0.71923828125, 0.068115234375, -0.630126953125
123, 4028466030, -5.23375129699707, -1.786442518234253, 7.93668270111084, -0.6260383725166321, -0.736659586429596, -1.753330111503601, 0.719970703125, 0.068115234375, -0.631103515625
124, 4028482697, -5.227278709411621, -1.7845368385314941, 7.9809956550598145, -0.5806398391723633, -0.7597110867500305, -1.7175489664077759, 0.720458984375, 0.066650390625, -0.631103515625
125, 4028499364, -5.208268165588379, -1.7821149826049805, 7.955445289611816, -0.5615711808204651, -0.7528851628303528, -1.7251046895980835, 0.719482421875, 0.068115234375, -0.630615234375
126, 4028516031, -5.2137675285339355, -1.7958827018737793, 7.997981548309326, -0.4827353060245514, -0.6836925745010376, -1.740459680557251, 0.720947265625, 0.066162109375, -0.628662109375
127, 4028532698, -5.2411627769470215, -1.7825136184692383, 7.964380264282227, -0.5194767713546753, -0.6082887649536133, -1.6862760782241821, 0.719970703125, 0.065185546875, -0.630615234375
128, 4028549365, -5.2272844314575195, -1.7843862771987915, 7.960630893707275, -0.6275238990783691, -0.63595050573349, -1.7071888446807861, 0.719970703125, 0.066650390625, -0.632080078125
129, 4028566032, -5.224002838134766, -1.7992182970046997, 7.952291488647461, -0.48258158564567566, -0.6175989508628845, -1.7141679525375366, 0.7177734375, 0.066162109375, -0.629638671875
130, 4028582699, -5.217981338500977, -1.7842669486999512, 7.936283111572266, -0.522063672542572, -0.5110117793083191, -1.775984525680542, 0.719970703125, 0.066162109375, -0.631103515625
131, 4028599366, -5.2232489585876465, -1.7799707651138306, 7.937093257904053, -0.544615626335144, -0.5476378798484802, -1.7573769092559814, 0.719482421875, 0.067138671875, -0.6328125
132, 4028616033, -5.243959426879883, -1.770279049873352, 7.929794788360596, -0.4882676601409912, -0.7063214182853699, -1.775139331817627, 0.720458984375, 0.066650390625, -0.630615234375
133, 4028632700, -5.229933261871338, -1.7969774007797241, 7.972316265106201, -0.5212823748588562, -0.6429043412208557, -1.75648033618927, 0.71923828125, 0.069091796875, -0.629638671875
134, 4028649367, -5.238624095916748, -1.7847665548324585, 7.961580753326416, -0.5927417874336243, -0.5419262051582336, -1.7890979051589966, 0.718994140625, 0.066650390625, -0.630126953125
135, 4028666034, -5.23203182220459, -1.792921781539917, 7.940857887268066, -0.5775406956672668, -0.5745824575424194, -1.9035357236862183, 0.71875, 0.068603515625, -0.630126953125
136, 4028682701, -5.218501567840576, -1.7876538038253784, 7.978094100952148, -0.6027436256408691, -0.5381868481636047, -1.8465986251831055, 0.720947265625, 0.066162109375, -0.632080078125
137, 4028699368, -5.241060733795166, -1.7917561531066895, 7.954833984375, -0.725979208946228, -0.43061354756355286, -1.9582446813583374, 0.721435546875, 0.066650390625, -0.628173828125
138, 4028716035, -5.209325313568115, -1.7945778369903564, 7.96744441986084, -0.7021722197532654, -0.43610748648643494, -1.9327472448349, 0.720947265625, 0.068603515625, -0.629638671875
139, 4028732702, -5.231207847595215, -1.7977639436721802, 7.954230308532715, -0.6170610785484314, -0.3890953063964844, -1.9288156032562256, 0.718994140625, 0.067138671875, -0.629638671875
140, 4028749369, -5.248287200927734, -1.7968392372131348, 7.960058689117432, -0.6185211539268494, -0.4184091091156006, -1.9681055545806885, 0.71875, 0.066650390625, -0.628662109375
141, 4028766036, -5.234169960021973, -1.8091731071472168, 7.936274528503418, -0.5901166200637817, -0.5936383008956909, -1.899437665939331, 0.719970703125, 0.067626953125, -0.628662109375
142, 4028782703, -5.227723598480225, -1.7618058919906616, 7.986866474151611, -0.5722389221191406, -0.5552192330360413, -1.9217463731765747, 0.719970703125, 0.068115234375, -0.63232421875
143, 4028799370, -5.229214668273926, -1.776663064956665, 7.949190616607666, -0.6892505288124084, -0.4911234676837921, -1.8867082595825195, 0.719482421875, 0.068603515625, -0.630126953125
144, 4028816037, -5.235352039337158, -1.7948182821273804, 7.939769268035889, -0.5748642683029175, -0.46845632791519165, -1.9593204259872437, 0.722412109375, 0.0693359375, -0.628662109375
145, 4028832704, -5.227407932281494, -1.8117876052856445, 7.9557576179504395, -0.3788502514362335, -0.6615375876426697, -1.9632006883621216, 0.71875, 0.068603515625, -0.630615234375
146, 4028849371, -5.22999906539917, -1.824299693107605, 7.972717761993408, -0.43545421957969666, -0.6189436316490173, -1.9167134761810303, 0.721923828125, 0.0712890625, -0.631591796875
147, 4028866038, -5.227074146270752, -1.7969759702682495, 7.950910568237305, -0.4155276119709015, -0.6789669990539551, -1.7878175973892212, 0.720458984375, 0.069580078125, -0.631103515625
148, 4028882705, -5.2241926193237305, -1.8106496334075928, 7.946219444274902, -0.3274967670440674, -0.6116440296173096, -1.807603359222412, 0.721435546875, 0.068115234375, -0.629150390625
149, 4028899372, -5.248359203338623, -1.794947862625122, 7.96377420425415, -0.3345659077167511, -0.5772590637207031, -1.8406437635421753, 0.71923828125, 0.067626953125, -0.628662109375
150, 4028916039, -5.228347301483154, -1.7941350936889648, 7.961619853973389, -0.43366140127182007, -0.6007331013679504, -1.8684334754943848, 0.721435546875, 0.0712890625, -0.631103515625
151, 4028932706, -5.227826118469238, -1.8100171089172363, 7.941818714141846, -0.4298322796821594, -0.6212103962898254, -1.8561265468597412, 0.719970703125, 0.069091796875, -0.6328125
152, 4028949373, -5.2096734046936035, -1.796352744102478, 7.95720100402832, -0.33470675349235535, -0.6587714552879333, -1.7965643405914307, 0.719970703125, 0.068603515625, -0.631591796875
153, 4028966040, -5.239376544952393, -1.7984390258789062, 7.957951068878174, -0.3304422199726105, -0.6523810625076294, -1.6860840320587158, 0.71923828125, 0.068603515625, -0.630126953125
154, 4028982707, -5.2042236328125, -1.8155854940414429, 7.961488723754883, -0.39192554354667664, -0.589309811592102, -1.6818708181381226, 0.71875, 0.069580078125, -0.628173828125
155, 4028999374, -5.230462074279785, -1.805060625076294, 7.952714443206787, -0.3343866169452667, -0.39114436507225037, -1.6443865299224854, 0.71826171875, 0.068603515625, -0.629638671875
156, 4029016041, -5.22531795501709, -1.7969639301300049, 7.9753217697143555, -0.44918274879455566, -0.3535449206829071, -1.6468327045440674, 0.721923828125, 0.068603515625, -0.628173828125
157, 4029032708, -5.221632957458496, -1.8236840963363647, 7.953365802764893, -0.3955497443675995, -0.45558589696884155, -1.7125036716461182, 0.719970703125, 0.068115234375, -0.627685546875
158, 4029049375, -5.22231912612915, -1.7924340963363647, 7.942659854888916, -0.41009777784347534, -0.4285261034965515, -1.6312730312347412, 0.71875, 0.069091796875, -0.630615234375
159, 4029066042, -5.224910736083984, -1.8063915967941284, 7.939093112945557, -0.43223994970321655, -0.5267379879951477, -1.6000767946243286, 0.720458984375, 0.0703125, -0.631103515625
160, 4029082709, -5.2274298667907715, -1.7916871309280396, 7.959523677825928, -0.37657710909843445, -0.4450525939464569, -1.5430177450180054, 0.722412109375, 0.067626953125, -0.631591796875
161, 4029099376, -5.215352535247803, -1.7970610857009888, 7.931886196136475, -0.49565696716308594, -0.3591797351837158, -1.5990394353866577, 0.7197265625, 0.06982421875, -0.63134765625
162, 4029116043, -5.244235515594482, -1.8014014959335327, 7.951170921325684, -0.4498230218887329, -0.3132432699203491, -1.7010289430618286, 0.721435546875, 0.06982421875, -0.630126953125
163, 4029132710, -5.244734287261963, -1.8139399290084839, 7.964974880218506, -0.46487048268318176, -0.36676105856895447, -1.7097116708755493, 0.722900390625, 0.069091796875, -0.632568359375
164, 4029149377, -5.2389912605285645, -1.820298194885254, 7.958498477935791, -0.5148792266845703, -0.30503442883491516, -1.6780030727386475, 0.7197265625, 0.068603515625, -0.628662109375
165, 4029166044, -5.256150245666504, -1.7870172262191772, 7.943419933319092, -0.415770947933197, -0.3864572048187256, -1.627981424331665, 0.719970703125, 0.069580078125, -0.631103515625
166, 4029182711, -5.241001129150391, -1.8128896951675415, 7.945490837097168, -0.48363175988197327, -0.5285436511039734, -1.6865832805633545, 0.719970703125, 0.068603515625, -0.628173828125
167, 4029199378, -5.215704917907715, -1.8036607503890991, 7.933361530303955, -0.3449390232563019, -0.546703040599823, -1.7164989709854126, 0.720458984375, 0.069091796875, -0.629150390625
168, 4029216045, -5.227468013763428, -1.7866629362106323, 7.942661285400391, -0.3878018856048584, -0.42205891013145447, -1.6922439336776733, 0.720947265625, 0.068603515625, -0.628662109375
169, 4029232712, -5.224438667297363, -1.8018428087234497, 7.96116304397583, -0.41917744278907776, -0.30940142273902893, -1.676415205001831, 0.722412109375, 0.0693359375, -0.631591796875
170, 4029249379, -5.242581367492676, -1.7879875898361206, 7.958065509796143, -0.45833927392959595, -0.30074432492256165, -1.7474007606506348, 0.720458984375, 0.068603515625, -0.630126953125
171, 4029266046, -5.237027645111084, -1.8084121942520142, 7.935205459594727, -0.42509400844573975, -0.37432965636253357, -1.7234786748886108, 0.722412109375, 0.0693359375, -0.628173828125
172, 4029282713, -5.237569332122803, -1.7993090152740479, 7.94999885559082, -0.3133329451084137, -0.588823139667511, -1.7525744438171387, 0.722412109375, 0.0693359375, -0.630126953125
173, 4029299380, -5.249599456787109, -1.7997173070907593, 7.943111419677734, -0.3987257182598114, -0.42314738035202026, -1.7379752397537231, 0.720458984375, 0.068115234375, -0.630615234375
174, 4029316047, -5.236233711242676, -1.8095940351486206, 7.945789337158203, -0.41762787103652954, -0.46474239230155945, -1.725834846496582, 0.722412109375, 0.068603515625, -0.629150390625
175, 4029332714, -5.244190692901611, -1.7855168581008911, 7.960214138031006, -0.48146751523017883, -0.47333547472953796, -1.7740379571914673, 0.7197265625, 0.07177734375, -0.629638671875
176, 4029349381, -5.245686054229736, -1.814304232597351, 7.9269232749938965, -0.340464323759079, -0.4509001076221466, -1.7397825717926025, 0.7197265625, 0.068603515625, -0.628662109375
177, 4029366048, -5.243491172790527, -1.8018584251403809, 7.955966472625732, -0.39914828538894653, -0.5826376676559448, -1.741010308265686, 0.721435546875, 0.068603515625, -0.628662109375
178, 4029382715, -5.243699073791504, -1.8328603506088257, 7.944991588592529, -0.30755728483200073, -0.6255517601966858, -1.755814552307129, 0.722900390625, 0.069091796875, -0.62841796875
179, 4029399382, -5.237165927886963, -1.812540054321289, 7.970312118530273, -0.3498695194721222, -0.4792264699935913, -1.6732136011123657, 0.719970703125, 0.067626953125, -0.630615234375
180, 4029416049, -5.258286476135254, -1.8005084991455078, 7.938240051269531, -0.33062154054641724, -0.44366320967674255, -1.687902569770813, 0.721435546875, 0.0693359375, -0.628662109375
181, 4029432716, -5.25270938873291, -1.7890433073043823, 7.924283027648926, -0.4000319242477417, -0.5022394061088562, -1.720827579498291, 0.720703125, 0.069580078125, -0.626953125
182, 4029449383, -5.225058078765869, -1.8134373426437378, 7.96795654296875, -0.29102423787117004, -0.6508442759513855, -1.7140274047851562, 0.722412109375, 0.06982421875, -0.630615234375
183, 4029466050, -5.251864433288574, -1.8002877235412598, 7.950765132904053, -0.30796709656715393, -0.5557059049606323, -1.6310038566589355, 0.720947265625, 0.069091796875, -0.630126953125
184, 4029482717, -5.2461724281311035, -1.795546054840088, 7.944561004638672, -0.3612287640571594, -0.44826066493988037, -1.6554256677627563, 0.721923828125, 0.068115234375, -0.630126953125
185, 4029499384, -5.238435745239258, -1.8074928522109985, 7.945531845092773, -0.35656723380088806, -0.3956522047519684, -1.7081878185272217, 0.721435546875, 0.06982421875, -0.6259765625
186, 4029516051, -5.261898994445801, -1.7979151010513306, 7.943765640258789, -0.42823150753974915, -0.5108197331428528, -1.7116838693618774, 0.721435546875, 0.067138671875, -0.629150390625
187, 4029532718, -5.244779109954834, -1.815165638923645, 7.9738054275512695, -0.42661798000335693, -0.6062269806861877, -1.6051095724105835, 0.722900390625, 0.06982421875, -0.630615234375
188, 4029549385, -5.237428188323975, -1.8076835870742798, 7.954187393188477, -0.3860090374946594, -0.5144950747489929, -1.619555115699768, 0.720947265625, 0.068603515625, -0.628662109375
189, 4029566052, -5.223660469055176, -1.8043838739395142, 7.960198402404785, -0.3307111859321594, -0.346091628074646, -1.702207326889038, 0.721923828125, 0.068603515625, -0.630615234375
190, 4029582719, -5.248638153076172, -1.7923128604888916, 7.9525251388549805, -0.37456014752388, -0.2553201913833618, -1.604405164718628, 0.722900390625, 0.0693359375, -0.6279296875
191, 4029599386, -5.254707336425781, -1.8168752193450928, 7.943066120147705, -0.5177735686302185, -0.28873196244239807, -1.5923031568527222, 0.722900390625, 0.069091796875, -0.62841796875
192, 4029616053, -5.260498046875, -1.7829618453979492, 7.957770824432373, -0.48203104734420776, -0.4230705797672272, -1.679296851158142, 0.722412109375, 0.07080078125, -0.629150390625
193, 4029632720, -5.249248027801514, -1.7847901582717896, 7.920392036437988, -0.43239355087280273, -0.5771565437316895, -1.6941134929656982, 0.721923828125, 0.06982421875, -0.629150390625
194, 4029649387, -5.254864692687988, -1.802290916442871, 7.940036296844482, -0.42701485753059387, -0.5215129852294922, -1.8510807752609253, 0.7197265625, 0.068115234375, -0.628173828125
195, 4029666054, -5.228717803955078, -1.8023484945297241, 7.9372735023498535, -0.334553062915802, -0.6014502048492432, -1.7419707775115967, 0.725341796875, 0.0693359375, -0.6279296875
196, 4029682721, -5.2326812744140625, -1.7987421751022339, 7.96465539932251, -0.3661719560623169, -0.43006280064582825, -1.5846832990646362, 0.722900390625, 0.06982421875, -0.629150390625
197, 4029699388, -5.2289605140686035, -1.7881196737289429, 7.948729038238525, -0.4051673412322998, -0.37785136699676514, -1.6151882410049438, 0.723876953125, 0.069091796875, -0.62841796875
198, 4029716055, -5.249298095703125, -1.8062098026275635, 7.929980278015137, -0.3098752498626709, -0.4420880377292633, -1.700478434562683, 0.722412109375, 0.0693359375, -0.629638671875
199, 4029732722, -5.249967575073242, -1.8094816207885742, 7.919334411621094, -0.34651419520378113, -0.32073503732681274, -1.5810335874557495, 0.720458984375, 0.068115234375, -0.627685546875
200, 4029749389, -5.2533674240112305, -1.7976014614105225, 7.928040027618408, -0.307544469833374, -0.43855342268943787, -1.6094380617141724, 0.722900390625, 0.067138671875, -0.62841796875
201, 4029766056, -5.2506103515625, -1.79660165309906, 7.937317848205566, -0.38264092803001404, -0.28372469544410706, -1.59419846534729, 0.724365234375, 0.06982421875, -0.62744140625
202, 4029782723, -5.243793964385986, -1.7901930809020996, 7.941851615905762, -0.40915006399154663, -0.33451464772224426, -1.6239475011825562, 0.721435546875, 0.068115234375, -0.629150390625
203, 4029799390, -5.273738384246826, -1.7979564666748047, 7.931596755981445, -0.48203104734420776, -0.4413452744483948, -1.6991850137710571, 0.722412109375, 0.0712890625, -0.627685546875
204, 4029816057, -5.260653018951416, -1.8047701120376587, 7.955240249633789, -0.3553890287876129, -0.621773898601532, -1.663993239402771, 0.720458984375, 0.066650390625, -0.628173828125
205, 4029832724, -5.234875679016113, -1.8136557340621948, 7.943114280700684, -0.2712384760379791, -0.7094845771789551, -1.6133054494857788, 0.720947265625, 0.0703125, -0.628662109375
206, 4029849391, -5.230000019073486, -1.8083800077438354, 7.951156139373779, -0.23668056726455688, -0.5659317970275879, -1.562752604484558, 0.721435546875, 0.067626953125, -0.630126953125
207, 4029866058, -5.249948978424072, -1.7956324815750122, 7.937205791473389, -0.3862651288509369, -0.42937129735946655, -1.5726581811904907, 0.721435546875, 0.068115234375, -0.62744140625
208, 4029882725, -5.250814914703369, -1.8217175006866455, 7.948168754577637, -0.4277832806110382, -0.2422449290752411, -1.589447259902954, 0.721923828125, 0.067626953125, -0.628173828125
209, 4029899392, -5.246348857879639, -1.810683012008667, 7.921539783477783, -0.32124730944633484, -0.1575949341058731, -1.538068175315857, 0.723388671875, 0.068603515625, -0.62890625
210, 4029916059, -5.2922563552856445, -1.7786076068878174, 7.961945533752441, -0.3841136693954468, -0.14874576032161713, -1.5287708044052124, 0.722412109375, 0.067626953125, -0.6279296875
211, 4029932726, -5.268322467803955, -1.8061203956604004, 7.947398662567139, -0.2831227481365204, -0.27659153938293457, -1.5186023712158203, 0.722412109375, 0.068603515625, -0.6279296875
212, 4029949393, -5.275546073913574, -1.797242522239685, 7.937597274780273, -0.3165857791900635, -0.36022982001304626, -1.4521759748458862, 0.720947265625, 0.067626953125, -0.628173828125
213, 4029966060, -5.293521881103516, -1.7949663400650024, 7.924440860748291, -0.27965226769447327, -0.30760854482650757, -1.5431139469146729, 0.721435546875, 0.06982421875, -0.632080078125
214, 4029982727, -5.252747535705566, -1.7985738515853882, 7.953941345214844, -0.20235314965248108, -0.5732634663581848, -1.636459469795227, 0.722412109375, 0.069091796875, -0.628173828125
215, 4029999394, -5.236288070678711, -1.805180311203003, 7.9723124504089355, -0.18850946426391602, -0.6507034301757812, -1.5506951808929443, 0.721435546875, 0.069091796875, -0.627685546875
216, 4030016061, -5.238791465759277, -1.7988137006759644, 7.942868709564209, -0.22567348182201385, -0.43434014916419983, -1.557982087135315, 0.721923828125, 0.06982421875, -0.6259765625
217, 4030032728, -5.255563259124756, -1.7857662439346313, 7.934097766876221, -0.2129439413547516, -0.4263617694377899, -1.4649311304092407, 0.723876953125, 0.067138671875, -0.62744140625
218, 4030049395, -5.228538513183594, -1.8340238332748413, 7.94911527633667, -0.15847858786582947, -0.3138324022293091, -1.5031708478927612, 0.720947265625, 0.068603515625, -0.626953125
219, 4030066062, -5.2581658363342285, -1.7966842651367188, 7.956491947174072, -0.21227803826332092, -0.1595286875963211, -1.221866488456726, 0.722900390625, 0.067138671875, -0.62744140625
220, 4030082729, -5.2721123695373535, -1.784167766571045, 7.935829162597656, -0.3821799159049988, -0.17539577186107635, -1.4136289358139038, 0.721435546875, 0.068115234375, -0.62744140625
221, 4030099396, -5.262548446655273, -1.7896195650100708, 7.932779312133789, -0.4957466125488281, -0.18725444376468658, -1.5841455459594727, 0.722900390625, 0.068603515625, -0.6259765625
222, 4030116063, -5.24543571472168, -1.8124152421951294, 7.921258449554443, -0.33644840121269226, -0.28223916888237, -1.5725173950195312, 0.721923828125, 0.067138671875, -0.628662109375
223, 4030132730, -5.269405841827393, -1.8051859140396118, 7.940933704376221, -0.29490458965301514, -0.22353482246398926, -1.4709630012512207, 0.721923828125, 0.067626953125, -0.628173828125
224, 4030149397, -5.268026351928711, -1.7887959480285645, 7.9579267501831055, -0.24891704320907593, -0.23650765419006348, -1.4021416902542114, 0.723876953125, 0.068115234375, -0.62646484375
225, 4030166064, -5.272124290466309, -1.7959293127059937, 7.938096046447754, -0.1298563927412033, -0.2448958158493042, -1.3964428901672363, 0.721923828125, 0.067626953125, -0.62744140625
226, 4030182731, -5.2662177085876465, -1.7824496030807495, 7.930245399475098, 0.04397060349583626, -0.35216182470321655, -1.4963964223861694, 0.723388671875, 0.067626953125, -0.6259765625
227, 4030199398, -5.264742374420166, -1.7754945755004883, 7.925992965698242, 0.01692359149456024, -0.3086458444595337, -1.4410600662231445, 0.7197265625, 0.067626953125, -0.627685546875
228, 4030216065, -5.27736234664917, -1.7769793272018433, 7.934844970703125, -0.08106418699026108, -0.34632211923599243, -1.5245318412780762, 0.721923828125, 0.066650390625, -0.6259765625
229, 4030232732, -5.263228893280029, -1.8071364164352417, 7.915451526641846, -0.150141641497612, -0.3827306032180786, -1.5705835819244385, 0.726318359375, 0.067626953125, -0.623779296875
230, 4030249399, -5.280239105224609, -1.7656241655349731, 7.93531608581543, -0.08626356720924377, -0.4140932857990265, -1.6178644895553589, 0.723876953125, 0.065673828125, -0.626953125
231, 4030266066, -5.273287773132324, -1.7975822687149048, 7.921614170074463, -0.13780911266803741, -0.4965148866176605, -1.573861837387085, 0.723388671875, 0.066162109375, -0.625
232, 4030282733, -5.286324977874756, -1.7892793416976929, 7.9029412269592285, -0.04000703617930412, -0.6439415812492371, -1.5279511213302612, 0.722412109375, 0.065673828125, -0.6259765625
233, 4030299400, -5.27085018157959, -1.7787585258483887, 7.944938659667969, -0.03803486004471779, -0.7293601036071777, -1.514184594154358, 0.725341796875, 0.066162109375, -0.625244140625
234, 4030316067, -5.269909858703613, -1.7867120504379272, 7.933685779571533, -0.03594743087887764, -0.7832620143890381, -1.5679712295532227, 0.722412109375, 0.067626953125, -0.62841796875
235, 4030332734, -5.2643961906433105, -1.7908203601837158, 7.932940483093262, -0.1121964380145073, -0.686881422996521, -1.524877905845642, 0.723876953125, 0.068115234375, -0.6259765625
236, 4030349401, -5.271960735321045, -1.77095365524292, 7.9442548751831055, -0.030338242650032043, -0.6951030492782593, -1.5007506608963013, 0.722900390625, 0.066162109375, -0.625
237, 4030366068, -5.270549774169922, -1.800636887550354, 7.94974946975708, -0.01564936153590679, -0.6742927432060242, -1.4594628810882568, 0.721435546875, 0.065673828125, -0.6259765625
238, 4030382735, -5.269832611083984, -1.7955349683761597, 7.9302167892456055, 0.04541771858930588, -0.5309640169143677, -1.448538899421692, 0.723388671875, 0.065673828125, -0.6259765625
239, 4030399402, -5.286374092102051, -1.769566535949707, 7.942241191864014, 0.1394931674003601, -0.4786757826805115, -1.5031325817108154, 0.722900390625, 0.066162109375, -0.625
240, 4030416069, -5.284274101257324, -1.7729589939117432, 7.924458026885986, 0.1534648984670639, -0.6099536418914795, -1.4349770545959473, 0.722900390625, 0.066650390625, -0.62646484375
241, 4030432736, -5.279165744781494, -1.7676414251327515, 7.91053581237793, 0.16268546879291534, -0.8231281042098999, -1.4291117191314697, 0.724365234375, 0.066162109375, -0.626953125
242, 4030449403, -5.266138553619385, -1.7774008512496948, 7.940690040588379, 0.2761304974555969, -0.8751218914985657, -1.3240611553192139, 0.724365234375, 0.066650390625, -0.626953125
243, 4030466070, -5.256190299987793, -1.7859408855438232, 7.94097375869751, 0.39331504702568054, -0.8875057101249695, -1.1901966333389282, 0.723388671875, 0.065185546875, -0.624755859375
244, 4030482737, -5.26692533493042, -1.7423566579818726, 7.931743144989014, 0.3307880163192749, -0.8275079727172852, -1.2758582830429077, 0.722900390625, 0.065673828125, -0.62841796875
245, 4030499404, -5.265109062194824, -1.7642804384231567, 7.945980548858643, 0.35376256704330444, -0.9548541307449341, -1.295643925666809, 0.723388671875, 0.065185546875, -0.6279296875
246, 4030516071, -5.262064456939697, -1.7664650678634644, 7.960206985473633, 0.39492860436439514, -0.8485615849494934, -1.3348186016082764, 0.723388671875, 0.065185546875, -0.62744140625
247, 4030532738, -5.271012306213379, -1.7660651206970215, 7.939825057983398, 0.32006269693374634, -0.7383245229721069, -1.3003568649291992, 0.722900390625, 0.066162109375, -0.62890625
248, 4030549405, -5.266843318939209, -1.7498126029968262, 7.923067092895508, 0.2601317763328552, -0.6456068158149719, -1.2863852977752686, 0.723388671875, 0.065185546875, -0.62744140625
249, 4030566072, -5.273049831390381, -1.7520743608474731, 7.930038928985596, 0.016949204728007317, -0.6738701462745667, -1.3581774234771729, 0.722412109375, 0.0625, -0.6259765625
250, 4030582739, -5.270160675048828, -1.7448599338531494, 7.964079856872559, -0.0631353110074997, -0.679364025592804, -1.3916149139404297, 0.723388671875, 0.06396484375, -0.626953125
251, 4030599406, -5.284086227416992, -1.7578271627426147, 7.940436840057373, -0.10930220782756805, -0.5317836999893188, -1.4621649980545044, 0.723388671875, 0.064697265625, -0.6298828125
252, 4030616073, -5.276346206665039, -1.771897554397583, 7.949227809906006, -0.12036687880754471, -0.5571402311325073, -1.5663573741912842, 0.723388671875, 0.06298828125, -0.6279296875
253, 4030632740, -5.267768383026123, -1.7591313123703003, 7.930034637451172, -0.035704102367162704, -0.5767083764076233, -1.440637469291687, 0.723388671875, 0.065673828125, -0.626953125
254, 4030649407, -5.260754585266113, -1.7668869495391846, 7.928516387939453, -0.05694983899593353, -0.47720301151275635, -1.4189563989639282, 0.722412109375, 0.0634765625, -0.62841796875
255, 4030666074, -5.2612128257751465, -1.7387806177139282, 7.921380996704102, -0.013933309353888035, -0.45109087228775024, -1.4169715642929077, 0.723876953125, 0.066162109375, -0.6279296875
256, 4030682741, -5.271115303039551, -1.7411701679229736, 7.93889856338501, -0.05422208085656166, -0.41305601596832275, -1.4199680089950562, 0.722900390625, 0.0615234375, -0.6279296875
257, 4030699408, -5.277789115905762, -1.7291152477264404, 7.927694797515869, -0.15151190757751465, -0.482965886592865, -1.464137077331543, 0.723388671875, 0.0634765625, -0.630126953125
258, 4030716075, -5.277465343475342, -1.747173547744751, 7.917485237121582, -0.10841856151819229, -0.5954568386077881, -1.576154351234436, 0.7255859375, 0.0615234375, -0.626220703125
259, 4030732742, -5.29845666885376, -1.7494120597839355, 7.9491801261901855, -0.16775035858154297, -0.7808030843734741, -1.6808587312698364, 0.7255859375, 0.06298828125, -0.625732421875
260, 4030749409, -5.270205497741699, -1.757507085800171, 7.9564361572265625, -0.0936400294303894, -0.8440024256706238, -1.6167759895324707, 0.72412109375, 0.06298828125, -0.63037109375
261, 4030766076, -5.267139911651611, -1.7527967691421509, 7.939851760864258, -0.12983079254627228, -0.8410698771476746, -1.584913969039917, 0.721923828125, 0.064453125, -0.62744140625
262, 4030782743, -5.249625205993652, -1.7517070770263672, 7.9475884437561035, 0.002926250919699669, -0.8429139256477356, -1.6074402332305908, 0.722412109375, 0.06396484375, -0.62646484375
263, 4030799410, -5.272097587585449, -1.7442209720611572, 7.962893962860107, -0.030581561848521233, -0.7708781957626343, -1.5456879138946533, 0.722412109375, 0.064453125, -0.62744140625
264, 4030816077, -5.266333103179932, -1.7536977529525757, 7.937405586242676, -0.017647147178649902, -0.6821942329406738, -1.5671641826629639, 0.721923828125, 0.06103515625, -0.62841796875
265, 4030832744, -5.281277179718018, -1.735728144645691, 7.955866813659668, 0.028065120801329613, -0.7688549160957336, -1.5701994895935059, 0.72412109375, 0.064453125, -0.62939453125
266, 4030849411, -5.250885486602783, -1.757106065750122, 7.9518561363220215, 0.00929741095751524, -0.778203547000885, -1.5243271589279175, 0.721923828125, 0.0625, -0.62744140625
267, 4030866078, -5.2548346519470215, -1.7339956760406494, 7.949179172515869, 0.04827353358268738, -0.6942194104194641, -1.5838381052017212, 0.72509765625, 0.0634765625, -0.626953125
268, 4030882745, -5.26819372177124, -1.724602222442627, 7.934637069702148, -0.13880804181098938, -0.6310585737228394, -1.5768460035324097, 0.724365234375, 0.06396484375, -0.62646484375
269, 4030899412, -5.289869785308838, -1.7420650720596313, 7.964656352996826, -0.1604507714509964, -0.6352718472480774, -1.5552928447723389, 0.722412109375, 0.06201171875, -0.62646484375
270, 4030916079, -5.270468235015869, -1.73367178440094, 7.953202247619629, -0.247444286942482, -0.6807214617729187, -1.6294798851013184, 0.721435546875, 0.0625, -0.62744140625
271, 4030932746, -5.2897820472717285, -1.7430779933929443, 7.9540934562683105, -0.32849565148353577, -0.6502552032470703, -1.5914705991744995, 0.722900390625, 0.06201171875, -0.62841796875
272, 4030949413, -5.2665863037109375, -1.7360690832138062, 7.94978141784668, -0.26340100169181824, -0.8609580397605896, -1.6838940382003784, 0.722900390625, 0.06396484375, -0.62646484375
273, 4030966080, -5.260415554046631, -1.742920160293579, 7.965559959411621, -0.2395043820142746, -0.6725127100944519, -1.5850163698196411, 0.7255859375, 0.06201171875, -0.62939453125
274, 4030982747, -5.283316135406494, -1.7348079681396484, 7.950806617736816, -0.26626962423324585, -0.5662711262702942, -1.5721715688705444, 0.72314453125, 0.0615234375, -0.626953125
275, 4030999414, -5.274674892425537, -1.7365734577178955, 7.967142581939697, -0.25587087869644165, -0.7787925601005554, -1.57633376121521, 0.722412109375, 0.06298828125, -0.62890625
276, 4031016081, -5.2659912109375, -1.7474647760391235, 7.9363508224487305, -0.11854839324951172, -0.8125373721122742, -1.5690982341766357, 0.7236328125, 0.0625, -0.6298828125
277, 4031032748, -5.252762317657471, -1.7515456676483154, 7.941606044769287, -0.1315852701663971, -0.7547423243522644, -1.5423839092254639, 0.722412109375, 0.06396484375, -0.62744140625
278, 4031049415, -5.264953136444092, -1.7300024032592773, 7.968783378601074, -0.1205589771270752, -0.7533719539642334, -1.453405499458313, 0.722900390625, 0.0625, -0.626953125
279, 4031066082, -5.279236316680908, -1.7379378080368042, 7.941481590270996, -0.18662694096565247, -0.5734427571296692, -1.499674916267395, 0.72265625, 0.058837890625, -0.62841796875
280, 4031082749, -5.279628753662109, -1.7447222471237183, 7.948606967926025, -0.25368738174438477, -0.5404983758926392, -1.5166367292404175, 0.722900390625, 0.06298828125, -0.6298828125
281, 4031099416, -5.278480529785156, -1.7195913791656494, 7.925817966461182, -0.15978485345840454, -0.6235284209251404, -1.5652049779891968, 0.722900390625, 0.0625, -0.62890625
282, 4031116083, -5.284654140472412, -1.738971471786499, 7.9295854568481445, -0.12415756285190582, -0.6987912654876709, -1.592738389968872, 0.723388671875, 0.0625, -0.62744140625
283, 4031132750, -5.239705562591553, -1.7642155885696411, 7.936917781829834, -0.1742623895406723, -0.7145623564720154, -1.7337172031402588, 0.72509765625, 0.0625, -0.626953125
284, 4031149417, -5.278284072875977, -1.6943533420562744, 7.95040225982666, -0.07177959382534027, -0.6212104558944702, -1.53919517993927, 0.72314453125, 0.06201171875, -0.62939453125
285, 4031166084, -5.2810187339782715, -1.7365485429763794, 7.9368896484375, -0.0683474913239479, -0.7893450260162354, -1.5798169374465942, 0.721923828125, 0.060546875, -0.62646484375
286, 4031182751, -5.277496337890625, -1.7193753719329834, 7.9393839836120605, -0.03220796585083008, -0.8267651796340942, -1.5685217380523682, 0.72314453125, 0.06103515625, -0.6279296875
287, 4031199418, -5.265598297119141, -1.726474404335022, 7.954704761505127, -0.10823924839496613, -0.8752626776695251, -1.6397374868392944, 0.722412109375, 0.06298828125, -0.62890625
288, 4031216085, -5.273489475250244, -1.7282065153121948, 7.945099353790283, -0.10733002424240112, -0.698125422000885, -1.5634760856628418, 0.72265625, 0.06103515625, -0.62841796875
289, 4031232752, -5.262085914611816, -1.741873860359192, 7.938126564025879, -0.04825432226061821, -0.7724917531013489, -1.5800601243972778, 0.72314453125, 0.0615234375, -0.631103515625
290, 4031249419, -5.267489433288574, -1.7106950283050537, 7.949431419372559, 6.723333499394357E-4, -0.6957946419715881, -1.4886996746063232, 0.72412109375, 0.06201171875, -0.62841796875
291, 4031266086, -5.267229080200195, -1.7101010084152222, 7.935013294219971, -0.05012405663728714, -0.6014374494552612, -1.6138819456100464, 0.72412109375, 0.06103515625, -0.62646484375
292, 4031282753, -5.266204357147217, -1.7110854387283325, 7.963412761688232, -0.04646144062280655, -0.6354767680168152, -1.631785273551941, 0.722900390625, 0.06201171875, -0.6298828125
293, 4031299420, -5.2704339027404785, -1.7252048254013062, 7.966782569885254, -0.10921255499124527, -0.6890457272529602, -1.5652178525924683, 0.722412109375, 0.060546875, -0.6279296875
294, 4031316087, -5.261781692504883, -1.7127184867858887, 7.946929931640625, -0.03727928549051285, -0.7196272611618042, -1.5372231006622314, 0.72412109375, 0.06005859375, -0.626953125
295, 4031332754, -5.269039154052734, -1.7318834066390991, 7.960167407989502, -0.08915780484676361, -0.7302309274673462, -1.551194667816162, 0.72509765625, 0.06103515625, -0.62841796875
296, 4031349421, -5.273689270019531, -1.7182154655456543, 7.939167022705078, -0.05053385719656944, -0.7759111523628235, -1.5086778402328491, 0.72412109375, 0.0615234375, -0.62646484375
297, 4031366088, -5.273458480834961, -1.7205110788345337, 7.992238998413086, -0.07033248245716095, -0.7733114957809448, -1.6267011165618896, 0.72314453125, 0.06103515625, -0.6298828125
298, 4031382755, -5.266748428344727, -1.712633490562439, 7.955254554748535, -0.15111492574214935, -0.6507930755615234, -1.7179845571517944, 0.7236328125, 0.0615234375, -0.62841796875
299, 4031399422, -5.264975547790527, -1.7114356756210327, 7.940648555755615, -0.18601223826408386, -0.7048742771148682, -1.6011521816253662, 0.724609375, 0.06005859375, -0.62939453125
300, 4031416089, -5.28764009475708, -1.7193626165390015, 7.9546613693237305, -0.09917236864566803, -0.7582767009735107, -1.489314317703247, 0.722412109375, 0.0625, -0.62841796875
301, 4031432756, -5.27479887008667, -1.706664800643921, 7.9223151206970215, -0.08418893814086914, -0.9200593829154968, -1.4197630882263184, 0.72412109375, 0.06005859375, -0.62744140625
302, 4031449423, -5.267444133758545, -1.7071861028671265, 7.9582037925720215, -0.12716706097126007, -0.9101858139038086, -1.4416364431381226, 0.722412109375, 0.060546875, -0.62744140625
303, 4031466090, -5.262722492218018, -1.7140710353851318, 7.955020427703857, -0.10110613703727722, -0.796452522277832, -1.595184564590454, 0.72119140625, 0.057861328125, -0.62939453125
304, 4031482757, -5.273721694946289, -1.7186964750289917, 7.9548773765563965, -0.13389040529727936, -0.8238582015037537, -1.589089035987854, 0.72412109375, 0.059326171875, -0.6279296875
305, 4031499424, -5.263205528259277, -1.7122642993927002, 7.9768385887146, -0.07745280116796494, -0.9092636108398438, -1.6179157495498657, 0.721435546875, 0.059814453125, -0.62841796875
306, 4031516091, -5.257637023925781, -1.6948186159133911, 7.9819793701171875, -0.0413132905960083, -0.8924617767333984, -1.5060139894485474, 0.7216796875, 0.056396484375, -0.62841796875
307, 4031532758, -5.2764892578125, -1.703004240989685, 7.978026390075684, -0.048933062702417374, -0.808849036693573, -1.5099838972091675, 0.721923828125, 0.060546875, -0.6279296875
308, 4031549425, -5.263462543487549, -1.7276307344436646, 7.961147785186768, -0.041927993297576904, -0.7120715379714966, -1.5305894613265991, 0.72216796875, 0.058349609375, -0.6279296875
309, 4031566092, -5.269129753112793, -1.7012975215911865, 7.928155899047852, 0.2774559557437897, -0.6710911393165588, -1.565576195716858, 0.72216796875, 0.058837890625, -0.63037109375
310, 4031582759, -5.247847557067871, -1.721804141998291, 7.954778671264648, 0.05750691145658493, -0.7204468250274658, -1.6096302270889282, 0.72216796875, 0.059326171875, -0.630615234375
311, 4031599426, -5.267923355102539, -1.699920415878296, 7.967875003814697, -0.09308934211730957, -0.664444625377655, -1.7320075035095215, 0.722412109375, 0.060546875, -0.6279296875
312, 4031616093, -5.278604507446289, -1.7084473371505737, 7.972530841827393, -0.10581886023283005, -0.4330851137638092, -1.8207683563232422, 0.72216796875, 0.058837890625, -0.6298828125
313, 4031632760, -5.297058582305908, -1.6512669324874878, 7.927818775177002, -0.39215606451034546, -0.5653746724128723, -2.0025546550750732, 0.724609375, 0.0595703125, -0.62841796875
314, 4031649427, -5.281089782714844, -1.7029587030410767, 7.927077293395996, -0.42998602986335754, -0.8339751958847046, -2.027667760848999, 0.720458984375, 0.059814453125, -0.630126953125
315, 4031666094, -5.262923240661621, -1.7163418531417847, 7.945149898529053, -0.33480921387672424, -1.025225281715393, -1.9455024003982544, 0.72607421875, 0.060546875, -0.62744140625
316, 4031682761, -5.262171745300293, -1.698976993560791, 7.939146041870117, -0.31218039989471436, -1.1071730852127075, -1.8733128309249878, 0.721923828125, 0.059326171875, -0.62841796875
317, 4031699428, -5.242835521697998, -1.703322172164917, 7.954608917236328, -0.28319963812828064, -1.1656211614608765, -1.8557425737380981, 0.721923828125, 0.060546875, -0.6298828125
318, 4031716095, -5.235124111175537, -1.7044203281402588, 7.9625091552734375, -0.261031836271286, -1.068369746208191, -1.8416813611984253, 0.72314453125, 0.057861328125, -0.62890625
319, 4031732762, -5.242510795593262, -1.7074226140975952, 7.952669143676758, -0.23169250786304474, -1.0914338827133179, -1.8269537687301636, 0.72265625, 0.057373046875, -0.62744140625
320, 4031749429, -5.241901397705078, -1.71638023853302, 7.96412992477417, -0.21581272780895233, -0.9442943930625916, -1.7417038679122925, 0.72265625, 0.06005859375, -0.62744140625
321, 4031766096, -5.246832847595215, -1.6859405040740967, 7.95017671585083, -0.17449933290481567, -0.9382187128067017, -1.7088536024093628, 0.72265625, 0.057861328125, -0.631103515625
322, 4031782763, -5.257666110992432, -1.7132304906845093, 7.950558185577393, -0.15877312421798706, -0.9142196774482727, -1.7380777597427368, 0.72314453125, 0.059326171875, -0.63037109375
323, 4031799430, -5.252711772918701, -1.6838793754577637, 7.954662322998047, -0.2816500663757324, -1.0072579383850098, -1.844204068183899, 0.719482421875, 0.060302734375, -0.629638671875
324, 4031816097, -5.238729000091553, -1.7175261974334717, 7.991797924041748, -0.21364828944206238, -0.9223388433456421, -1.7481048107147217, 0.72265625, 0.057373046875, -0.63037109375
325, 4031832764, -5.239243507385254, -1.699535608291626, 7.98300313949585, -0.3029085695743561, -0.7783570885658264, -1.7490527629852295, 0.722412109375, 0.059814453125, -0.62744140625
326, 4031849431, -5.252660274505615, -1.6956071853637695, 7.978092193603516, -0.3876866102218628, -0.6449277400970459, -1.732033133506775, 0.721435546875, 0.060546875, -0.62841796875
327, 4031866098, -5.247294902801514, -1.7092329263687134, 7.981947898864746, -0.277462363243103, -0.5920886993408203, -1.7523695230484009, 0.720458984375, 0.059814453125, -0.630615234375
328, 4031882765, -5.25108528137207, -1.7147377729415894, 7.9466753005981445, -0.3242567479610443, -0.6002335548400879, -1.6245110034942627, 0.72119140625, 0.058837890625, -0.631103515625
329, 4031899432, -5.256793975830078, -1.7030056715011597, 7.956991195678711, -0.3866877257823944, -0.6913379430770874, -1.5590578317642212, 0.721435546875, 0.059326171875, -0.62939453125
330, 4031916099, -5.256487846374512, -1.6945217847824097, 7.961574554443359, -0.3947557210922241, -0.7139284014701843, -1.6432340145111084, 0.72216796875, 0.059814453125, -0.6298828125
331, 4031932766, -5.248384952545166, -1.7007277011871338, 7.97119140625, -0.3720885217189789, -0.5844945907592773, -1.6277896165847778, 0.721435546875, 0.060302734375, -0.629638671875
332, 4031949433, -5.24281644821167, -1.692456841468811, 7.951968669891357, -0.3780946731567383, -0.5699465870857239, -1.5276694297790527, 0.721435546875, 0.06103515625, -0.62841796875
333, 4031966100, -5.248532295227051, -1.6977964639663696, 7.973118305206299, -0.3274327516555786, -0.448375940322876, -1.647524118423462, 0.7216796875, 0.058837890625, -0.62890625
334, 4031982767, -5.241305351257324, -1.6977235078811646, 7.9913716316223145, -0.5044676661491394, -0.524202287197113, -1.6743149757385254, 0.719970703125, 0.06103515625, -0.62744140625
335, 4031999434, -5.252295017242432, -1.7075207233428955, 7.971924304962158, -0.4371063709259033, -0.4447517395019531, -1.6553616523742676, 0.72265625, 0.058837890625, -0.63037109375
336, 4032016101, -5.2523627281188965, -1.7135982513427734, 7.963801860809326, -0.47049251198768616, -0.43980851769447327, -1.7044099569320679, 0.72412109375, 0.059326171875, -0.6298828125
337, 4032032768, -5.262414932250977, -1.717240571975708, 7.944530963897705, -0.4754869341850281, -0.4815059304237366, -1.661380410194397, 0.721435546875, 0.059326171875, -0.630126953125
338, 4032049435, -5.253408908843994, -1.7084380388259888, 7.947200775146484, -0.3455793857574463, -0.4776000678539276, -1.6597157716751099, 0.720947265625, 0.059326171875, -0.630615234375
339, 4032066102, -5.255271911621094, -1.7015713453292847, 7.9443254470825195, -0.2868878245353699, -0.3291743993759155, -1.570135235786438, 0.72265625, 0.059326171875, -0.6298828125
340, 4032082769, -5.250241279602051, -1.7252933979034424, 7.963738918304443, -0.370551735162735, -0.4009411931037903, -1.5786771774291992, 0.72265625, 0.060546875, -0.62939453125
341, 4032099436, -5.259027004241943, -1.707769751548767, 7.946789264678955, -0.368617981672287, -0.5038018226623535, -1.684611439704895, 0.7216796875, 0.058837890625, -0.632080078125
342, 4032116103, -5.282113075256348, -1.679121494293213, 7.963284969329834, -0.4017608165740967, -0.6008867621421814, -1.6499574184417725, 0.7216796875, 0.059814453125, -0.630615234375
343, 4032132770, -5.270697593688965, -1.711604356765747, 7.95778751373291, -0.4630007743835449, -0.5922167897224426, -1.7262828350067139, 0.722412109375, 0.06103515625, -0.626953125
344, 4032149437, -5.260150909423828, -1.704648733139038, 7.959779739379883, -0.43252164125442505, -0.7595061659812927, -1.6991336345672607, 0.7216796875, 0.058349609375, -0.6298828125
345, 4032166104, -5.250672817230225, -1.7281811237335205, 7.961863040924072, -0.37630176544189453, -0.5894123315811157, -1.6128829717636108, 0.720458984375, 0.057861328125, -0.629638671875
346, 4032182771, -5.253233909606934, -1.694952130317688, 7.95818567276001, -0.32461535930633545, -0.5317580699920654, -1.6301844120025635, 0.720947265625, 0.059814453125, -0.62744140625
347, 4032199438, -5.258729457855225, -1.7040774822235107, 7.9592719078063965, -0.26603907346725464, -0.47863730788230896, -1.5846960544586182, 0.7216796875, 0.059814453125, -0.631591796875
348, 4032216105, -5.254114627838135, -1.7102787494659424, 7.967013835906982, -0.3413916826248169, -0.47436001896858215, -1.7242342233657837, 0.7216796875, 0.059326171875, -0.62939453125
349, 4032232772, -5.247188568115234, -1.706246256828308, 7.9758992195129395, -0.4123004376888275, -0.45681533217430115, -1.6353709697723389, 0.72314453125, 0.055908203125, -0.63037109375
350, 4032249439, -5.267078399658203, -1.7049784660339355, 7.966607093811035, -0.48318353295326233, -0.2024683952331543, -1.567100167274475, 0.72265625, 0.06005859375, -0.62939453125
351, 4032266106, -5.27493953704834, -1.7036017179489136, 7.962834358215332, -0.4513470232486725, -0.5062222480773926, -1.638047456741333, 0.721923828125, 0.06103515625, -0.630126953125
352, 4032282773, -5.26521110534668, -1.7099552154541016, 7.951087951660156, -0.3810913562774658, -0.650421679019928, -1.669679045677185, 0.72265625, 0.060546875, -0.62841796875
353, 4032299440, -5.258098602294922, -1.6924201250076294, 7.956509113311768, -0.4161423444747925, -0.6757782101631165, -1.7116966247558594, 0.72265625, 0.06005859375, -0.62744140625
354, 4032316107, -5.256647109985352, -1.7140512466430664, 7.943574905395508, -0.46720126271247864, -0.5298627614974976, -1.6183768510818481, 0.72265625, 0.059814453125, -0.62646484375
355, 4032332774, -5.261015892028809, -1.7091566324234009, 7.968074321746826, -0.46118223667144775, -0.4932236969470978, -1.6725733280181885, 0.721435546875, 0.059326171875, -0.630615234375
356, 4032349441, -5.2855095863342285, -1.7128751277923584, 7.968621253967285, -0.41221076250076294, -0.5512621402740479, -1.7587087154388428, 0.721435546875, 0.060546875, -0.6279296875
357, 4032366108, -5.258857727050781, -1.7001734972000122, 7.951898574829102, -0.40916284918785095, -0.5432709455490112, -1.747887372970581, 0.72412109375, 0.0595703125, -0.626953125
358, 4032382775, -5.257209777832031, -1.7055203914642334, 7.9704084396362305, -0.3807840049266815, -0.688738226890564, -1.7562626600265503, 0.72314453125, 0.06005859375, -0.6279296875
359, 4032399442, -5.265466213226318, -1.7111108303070068, 7.967789649963379, -0.37468811869621277, -0.5906543731689453, -1.7174464464187622, 0.72216796875, 0.057861328125, -0.62890625
360, 4032416109, -5.2473978996276855, -1.7134908437728882, 7.970203399658203, -0.37231895327568054, -0.6341959834098816, -1.7380391359329224, 0.7216796875, 0.056884765625, -0.6279296875
361, 4032432776, -5.259493350982666, -1.6942100524902344, 7.943183422088623, -0.2904607951641083, -0.5444619059562683, -1.7186760902404785, 0.7236328125, 0.058837890625, -0.632568359375
362, 4032449443, -5.273282051086426, -1.6916747093200684, 7.956089019775391, -0.41753825545310974, -0.5709070563316345, -1.7427775859832764, 0.72314453125, 0.06103515625, -0.62890625
363, 4032466110, -5.259149074554443, -1.70829176902771, 7.947235107421875, -0.4531782567501068, -0.6123484373092651, -1.789034128189087, 0.721923828125, 0.06005859375, -0.62939453125
364, 4032482777, -5.279830455780029, -1.693132996559143, 7.952334403991699, -0.3696296215057373, -0.5748897790908813, -1.7124520540237427, 0.721923828125, 0.059326171875, -0.62744140625
365, 4032499444, -5.271237373352051, -1.7032177448272705, 7.938472747802734, -0.444892555475235, -0.726837158203125, -1.7199311256408691, 0.72265625, 0.058349609375, -0.62939453125
366, 4032516111, -5.2748613357543945, -1.7053543329238892, 7.942821979522705, -0.3761736750602722, -0.7816227674484253, -1.782131552696228, 0.72314453125, 0.059326171875, -0.630859375
367, 4032532778, -5.250535011291504, -1.721877098083496, 7.981509208679199, -0.5014325976371765, -0.6888279318809509, -1.747644066810608, 0.72412109375, 0.059326171875, -0.62939453125
368, 4032549445, -5.263071060180664, -1.6925370693206787, 7.979454040527344, -0.4401414096355438, -0.679863452911377, -1.7210965156555176, 0.7216796875, 0.058837890625, -0.6298828125
369, 4032566112, -5.266550064086914, -1.7116994857788086, 7.928933620452881, -0.477023720741272, -0.635809600353241, -1.80780827999115, 0.72216796875, 0.058837890625, -0.630615234375
370, 4032582779, -5.261098861694336, -1.7054057121276855, 7.965388298034668, -0.39306527376174927, -0.6296370029449463, -1.8400291204452515, 0.7236328125, 0.058837890625, -0.63037109375
371, 4032599446, -5.2735819816589355, -1.6902462244033813, 7.962294578552246, -0.4782659113407135, -0.659591019153595, -1.8504278659820557, 0.721923828125, 0.06103515625, -0.626953125
372, 4032616113, -5.246867656707764, -1.7017782926559448, 7.958547115325928, -0.4726311266422272, -0.7369157075881958, -1.8518621921539307, 0.719482421875, 0.059814453125, -0.631103515625
373, 4032632780, -5.260228633880615, -1.717282772064209, 7.974327087402344, -0.371076762676239, -0.8106419444084167, -1.7755106687545776, 0.721923828125, 0.059326171875, -0.62841796875
374, 4032649447, -5.232295036315918, -1.7156834602355957, 7.961336612701416, -0.40415558218955994, -0.9681727886199951, -1.7907501459121704, 0.7236328125, 0.06005859375, -0.626953125
375, 4032666114, -5.245059967041016, -1.6997199058532715, 7.9825439453125, -0.3989177942276001, -0.6650336980819702, -1.707355260848999, 0.720458984375, 0.058837890625, -0.62939453125
376, 4032682781, -5.26811408996582, -1.6944067478179932, 7.984976291656494, -0.3411611318588257, -0.6240149736404419, -1.7975118160247803, 0.72314453125, 0.057373046875, -0.63037109375
377, 4032699448, -5.2657790184021, -1.70358407497406, 7.95244026184082, -0.38848060369491577, -0.6942065358161926, -1.7544314861297607, 0.72265625, 0.059326171875, -0.62841796875
378, 4032716115, -5.259832859039307, -1.712600588798523, 7.929102420806885, -0.32727906107902527, -0.6475914716720581, -1.9031258821487427, 0.72314453125, 0.059814453125, -0.62939453125
379, 4032732782, -5.257540225982666, -1.7123137712478638, 7.933474063873291, -0.3065199851989746, -0.7395922541618347, -1.7228894233703613, 0.720458984375, 0.0615234375, -0.631103515625
380, 4032749449, -5.245180130004883, -1.7129716873168945, 7.976426124572754, -0.3384333550930023, -0.7188714742660522, -1.7343636751174927, 0.722900390625, 0.0625, -0.626953125
381, 4032766116, -5.261350154876709, -1.7108038663864136, 7.957413196563721, -0.46627914905548096, -0.6172018647193909, -1.727665901184082, 0.721435546875, 0.06103515625, -0.630615234375
382, 4032782783, -5.269709587097168, -1.7052700519561768, 7.962032794952393, -0.4125693738460541, -0.579653799533844, -1.728255271911621, 0.7216796875, 0.060302734375, -0.631103515625
383, 4032799450, -5.274047374725342, -1.7128781080245972, 7.958434581756592, -0.40182480216026306, -0.7019287943840027, -1.7460944652557373, 0.72265625, 0.059326171875, -0.6298828125
384, 4032816117, -5.261154651641846, -1.7091026306152344, 7.957278251647949, -0.3987128734588623, -0.7584176659584045, -1.750922441482544, 0.720458984375, 0.058349609375, -0.632080078125
385, 4032832784, -5.244046688079834, -1.703084111213684, 7.977419853210449, -0.32177233695983887, -0.8474985957145691, -1.6348073482513428, 0.72412109375, 0.06005859375, -0.62890625
386, 4032849451, -5.2536821365356445, -1.7037789821624756, 7.978873252868652, -0.45493271946907043, -0.7862585783004761, -1.7444167137145996, 0.72216796875, 0.06005859375, -0.6298828125
387, 4032866118, -5.252089977264404, -1.711987853050232, 7.971133708953857, -0.4781762659549713, -0.7157468199729919, -1.7262318134307861, 0.720947265625, 0.060546875, -0.630126953125
388, 4032882785, -5.269786834716797, -1.7077386379241943, 7.98750638961792, -0.5009203553199768, -0.628714919090271, -1.7088152170181274, 0.72119140625, 0.057861328125, -0.633544921875
389, 4032899452, -5.2586140632629395, -1.6954623460769653, 7.970475673675537, -0.48393914103507996, -0.5993883609771729, -1.871084451675415, 0.721923828125, 0.06201171875, -0.630615234375
390, 4032916119, -5.248046398162842, -1.718004584312439, 7.9447526931762695, -0.4188060164451599, -0.7613374590873718, -1.700516700744629, 0.720458984375, 0.058837890625, -0.630126953125
391, 4032932786, -5.259059906005859, -1.7184332609176636, 7.961890697479248, -0.4552913308143616, -0.731844425201416, -1.697174310684204, 0.7236328125, 0.059326171875, -0.62939453125
392, 4032949453, -5.245126724243164, -1.7128664255142212, 7.959359645843506, -0.32613325119018555, -0.7107180953025818, -1.7142581939697266, 0.721923828125, 0.059814453125, -0.62841796875
393, 4032966120, -5.2581048011779785, -1.7120568752288818, 7.959877014160156, -0.3612414598464966, -0.7561764121055603, -1.6890803575515747, 0.720458984375, 0.060546875, -0.62841796875
394, 4032982787, -5.260526180267334, -1.7224100828170776, 7.93739128112793, -0.352392315864563, -0.805327296257019, -1.710223913192749, 0.722412109375, 0.060546875, -0.62744140625
395, 4032999454, -5.261524677276611, -1.7068372964859009, 7.9587273597717285, -0.27107203006744385, -0.7427042722702026, -1.6244983673095703, 0.72314453125, 0.059326171875, -0.62841796875
396, 4033016121, -5.267429828643799, -1.7104190587997437, 7.970256805419922, -0.25843214988708496, -0.8067615628242493, -1.722402811050415, 0.721435546875, 0.059814453125, -0.6298828125
397, 4033032788, -5.24933385848999, -1.7026423215866089, 7.938038349151611, -0.23461230099201202, -0.8390336036682129, -1.7052037715911865, 0.72314453125, 0.059814453125, -0.63037109375
398, 4033049455, -5.249502182006836, -1.7297850847244263, 7.96288537979126, -0.23191016912460327, -0.7425761222839355, -1.7197902202606201, 0.722412109375, 0.06005859375, -0.62744140625
399, 4033066122, -5.267850875854492, -1.703790307044983, 7.952876567840576, -0.19274836778640747, -0.766677737236023, -1.6759668588638306, 0.721435546875, 0.058837890625, -0.62841796875
400, 4033082789, -5.246400833129883, -1.6995104551315308, 7.9789934158325195, -0.17782899737358093, -0.7510412335395813, -1.6017799377441406, 0.720458984375, 0.06103515625, -0.629638671875
401, 4033099456, -5.2572150230407715, -1.710267424583435, 7.955258369445801, -0.21098463237285614, -0.6793256402015686, -1.642043113708496, 0.72265625, 0.060546875, -0.62939453125
402, 4033116123, -5.237438201904297, -1.7166774272918701, 7.960117340087891, -0.30626386404037476, -0.505312979221344, -1.587218999862671, 0.7216796875, 0.058349609375, -0.62939453125
403, 4033132790, -5.253941535949707, -1.7165114879608154, 7.974489212036133, -0.367619127035141, -0.43743932247161865, -1.596964716911316, 0.72314453125, 0.058837890625, -0.62939453125
404, 4033149457, -5.2643656730651855, -1.7047224044799805, 7.9499969482421875, -0.2889624834060669, -0.5529910326004028, -1.5644750595092773, 0.720947265625, 0.059814453125, -0.62939453125
405, 4033166124, -5.257785320281982, -1.6983120441436768, 7.972019195556641, -0.29551932215690613, -0.6172019839286804, -1.6110899448394775, 0.721435546875, 0.06103515625, -0.630615234375
406, 4033182791, -5.257519245147705, -1.687281608581543, 7.987314701080322, -0.3788757920265198, -0.5078997015953064, -1.7287929058074951, 0.72216796875, 0.059326171875, -0.630615234375
407, 4033199458, -5.260282516479492, -1.6832058429718018, 7.958901882171631, -0.40210655331611633, -0.666826605796814, -1.6689106225967407, 0.7236328125, 0.06005859375, -0.631103515625
408, 4033216125, -5.266479015350342, -1.7127881050109863, 7.9725871086120605, -0.25067150592803955, -0.6813234686851501, -1.615444302558899, 0.721435546875, 0.060302734375, -0.630126953125
409, 4033232792, -5.246873378753662, -1.7152880430221558, 7.969130992889404, -0.23735283315181732, -0.5228447914123535, -1.6683470010757446, 0.72314453125, 0.06103515625, -0.62890625
410, 4033249459, -5.257542610168457, -1.7053948640823364, 7.94892692565918, -0.29096028208732605, -0.41866523027420044, -1.649048089981079, 0.72412109375, 0.06005859375, -0.626953125
411, 4033266126, -5.25940465927124, -1.7073519229888916, 7.94808292388916, -0.3618946671485901, -0.49330058693885803, -1.6341543197631836, 0.721435546875, 0.059326171875, -0.630615234375
412, 4033282793, -5.261989116668701, -1.6994704008102417, 7.950466632843018, -0.35381385684013367, -0.4688020944595337, -1.5933406352996826, 0.7216796875, 0.058837890625, -0.63037109375
413, 4033299460, -5.269737720489502, -1.7075104713439941, 7.94618034362793, -0.33142831921577454, -0.4521537721157074, -1.6105777025222778, 0.722412109375, 0.06103515625, -0.62890625
414, 4033316127, -5.272312164306641, -1.7017146348953247, 7.946775913238525, -0.2770269513130188, -0.6883540749549866, -1.6024072170257568, 0.7216796875, 0.057373046875, -0.62841796875
415, 4033332794, -5.252689361572266, -1.6849820613861084, 7.966203689575195, -0.21966727077960968, -0.7614782452583313, -1.6720350980758667, 0.72314453125, 0.058837890625, -0.631103515625
416, 4033349461, -5.2400736808776855, -1.7263026237487793, 7.968935489654541, -0.10026092082262039, -0.7057963609695435, -1.5523985624313354, 0.72216796875, 0.058349609375, -0.63037109375
417, 4033366128, -5.2550950050354, -1.7230473756790161, 7.94901180267334, -0.10433334112167358, -0.7600313425064087, -1.5909457206726074, 0.719482421875, 0.059326171875, -0.630126953125
418, 4033382795, -5.264744758605957, -1.6985414028167725, 7.955888748168945, -0.1806591898202896, -0.5338838696479797, -1.4748305082321167, 0.720947265625, 0.059326171875, -0.630615234375
419, 4033399462, -5.263052940368652, -1.7157894372940063, 7.965587615966797, -0.1304710954427719, -0.464947372674942, -1.6685906648635864, 0.72265625, 0.059814453125, -0.62939453125
420, 4033416129, -5.269766330718994, -1.6930036544799805, 7.962958812713623, -0.1120043396949768, -0.37165307998657227, -1.5347386598587036, 0.720458984375, 0.060546875, -0.630126953125
421, 4033432796, -5.2641825675964355, -1.7024420499801636, 7.96395206451416, -0.20313431322574615, -0.5204628109931946, -1.5616190433502197, 0.7216796875, 0.056884765625, -0.632080078125
422, 4033449463, -5.30246114730835, -1.6922017335891724, 7.963021755218506, -0.14756758511066437, -0.6149353981018066, -1.5831083059310913, 0.720947265625, 0.060302734375, -0.629638671875
423, 4033466130, -5.20346736907959, -1.7016377449035645, 7.933433532714844, -0.15719154477119446, -0.6814963221549988, -1.6498228311538696, 0.7216796875, 0.059326171875, -0.630126953125
424, 4033482797, -5.273935794830322, -1.7014673948287964, 7.9500555992126465, -0.09753315895795822, -0.6977668404579163, -1.5298210382461548, 0.72216796875, 0.057373046875, -0.62939453125
425, 4033499464, -5.2847065925598145, -1.6941858530044556, 7.985185146331787, -0.125508651137352, -0.7101954221725464, -1.5749186277389526, 0.72265625, 0.057861328125, -0.6298828125
426, 4033516131, -5.257011890411377, -1.7001206874847412, 7.961023807525635, -0.0631353110074997, -0.8113335371017456, -1.5724149942398071, 0.720947265625, 0.058349609375, -0.630126953125
427, 4033532798, -5.249573230743408, -1.7035166025161743, 7.944014549255371, 0.27566951513290405, -0.8068704605102539, -1.3851284980773926, 0.720458984375, 0.057861328125, -0.62890625
428, 4033549465, -5.247926235198975, -1.7075777053833008, 7.956419467926025, 0.6179768443107605, -1.1347194910049438, -1.2401541471481323, 0.721435546875, 0.0615234375, -0.62646484375
429, 4033566132, -5.253871440887451, -1.6790872812271118, 7.982518672943115, 0.2655204236507416, -0.9986262917518616, -1.3504806756973267, 0.7216796875, 0.059326171875, -0.630615234375
430, 4033582799, -5.241306781768799, -1.6850359439849854, 7.949982166290283, 0.4304021894931793, -0.8826774954795837, -1.3527987003326416, 0.7236328125, 0.057861328125, -0.6298828125
431, 4033599466, -5.247997760772705, -1.6762750148773193, 7.963735580444336, 0.3841713070869446, -0.8992236852645874, -1.3681793212890625, 0.720947265625, 0.059814453125, -0.632080078125
432, 4033616133, -5.250558376312256, -1.6957443952560425, 7.972879886627197, 0.41493213176727295, -1.1111301183700562, -1.359150767326355, 0.720703125, 0.05419921875, -0.62939453125
433, 4033632800, -5.247074604034424, -1.6966016292572021, 7.9773759841918945, 0.7262609601020813, -1.173330545425415, -1.1075958013534546, 0.72216796875, 0.055908203125, -0.62939453125
434, 4033649467, -5.251654624938965, -1.6757175922393799, 8.009977340698242, 1.0529316663742065, -1.2844128608703613, -1.0760151147842407, 0.720703125, 0.05517578125, -0.63037109375
435, 4033666134, -5.286683082580566, -1.6922540664672852, 7.915582656860352, 1.2058011293411255, -1.4335813522338867, -1.094866156578064, 0.72119140625, 0.057373046875, -0.6298828125
436, 4033682801, -5.202765464782715, -1.6712929010391235, 8.004971504211426, 1.3290109634399414, -1.732340693473816, -0.9527540802955627, 0.72265625, 0.0546875, -0.6298828125
437, 4033699468, -5.239809036254883, -1.6747815608978271, 7.9689812660217285, 1.1216249465942383, -1.5469943284988403, -1.0632344484329224, 0.719970703125, 0.056884765625, -0.630126953125
438, 4033716135, -5.243951320648193, -1.6440777778625488, 7.97842264175415, 0.7926746606826782, -0.9056011438369751, -1.1266899108886719, 0.7216796875, 0.056884765625, -0.631103515625
439, 4033732802, -5.242239475250244, -1.6353458166122437, 8.009628295898438, 0.5628198385238647, -0.7189100980758667, -1.2718241214752197, 0.7216796875, 0.055908203125, -0.62939453125
440, 4033749469, -5.240503311157227, -1.644350290298462, 7.966567039489746, 0.24860328435897827, -0.6250395178794861, -1.3211287260055542, 0.72119140625, 0.0546875, -0.631103515625
441, 4033766136, -5.262546539306641, -1.6366195678710938, 7.967106819152832, 0.02088075317442417, -0.43742653727531433, -1.379026174545288, 0.720703125, 0.052734375, -0.6279296875
442, 4033782803, -5.268840312957764, -1.6354799270629883, 7.968832015991211, -0.06679792702198029, -0.5055563449859619, -1.415601134300232, 0.72119140625, 0.0537109375, -0.632080078125
443, 4033799470, -5.276619911193848, -1.6212021112442017, 7.964968204498291, -0.09511275589466095, -0.4861162006855011, -1.5056936740875244, 0.72021484375, 0.05419921875, -0.62939453125
444, 4033816137, -5.251587867736816, -1.6419926881790161, 7.976426601409912, -0.06807854771614075, -0.6940913200378418, -1.5921237468719482, 0.7197265625, 0.05322265625, -0.630615234375
445, 4033832804, -5.251728057861328, -1.6554863452911377, 7.977517127990723, -0.13605467975139618, -0.6536745429039001, -1.5723637342453003, 0.720703125, 0.0537109375, -0.63037109375
446, 4033849471, -5.2441864013671875, -1.648764967918396, 8.001128196716309, 0.041793521493673325, -0.6693238615989685, -1.4812337160110474, 0.72216796875, 0.052734375, -0.63037109375
447, 4033866138, -5.260035037994385, -1.649333119392395, 7.985054016113281, -0.07665880769491196, -0.5150841474533081, -1.5291935205459595, 0.718994140625, 0.0546875, -0.629638671875
448, 4033882805, -5.253056049346924, -1.6540080308914185, 7.9820051193237305, -0.05979285016655922, -0.5215002298355103, -1.5575084686279297, 0.72265625, 0.05419921875, -0.6298828125
449, 4033899472, -5.2734375, -1.6407309770584106, 7.973488807678223, -0.21158649027347565, -0.4191262125968933, -1.5393487215042114, 0.71923828125, 0.05322265625, -0.630126953125
450, 4033916139, -5.27114200592041, -1.6421034336090088, 7.974899768829346, -0.18535912036895752, -0.6029998064041138, -1.6021000146865845, 0.72216796875, 0.052734375, -0.632080078125
451, 4033932806, -5.247921466827393, -1.6446990966796875, 7.986762046813965, -0.23142357170581818, -0.6194175481796265, -1.6685138940811157, 0.72216796875, 0.05322265625, -0.6318359375
452, 4033949473, -5.255218505859375, -1.6440221071243286, 7.980867862701416, -0.21272626519203186, -0.8189788460731506, -1.7027065753936768, 0.72119140625, 0.051025390625, -0.62939453125
453, 4033966140, -5.250466823577881, -1.6457533836364746, 7.954259872436523, -0.25341203808784485, -0.7955175638198853, -1.7251304388046265, 0.7216796875, 0.05322265625, -0.633056640625
454, 4033982807, -5.268345355987549, -1.6464284658432007, 7.978335857391357, -0.14965498447418213, -0.9051912426948547, -1.654529094696045, 0.720703125, 0.052734375, -0.633056640625
455, 4033999474, -5.255860328674316, -1.6435959339141846, 8.00698184967041, -0.1613728106021881, -0.8321822285652161, -1.656526803970337, 0.72021484375, 0.05419921875, -0.631103515625
456, 4034016141, -5.246590614318848, -1.6365076303482056, 8.002281188964844, -0.20209696888923645, -0.7947747707366943, -1.6979936361312866, 0.718994140625, 0.0537109375, -0.62939453125
457, 4034032808, -5.2322282791137695, -1.6489063501358032, 7.972794055938721, -0.18223433196544647, -0.7682015895843506, -1.667130470275879, 0.7216796875, 0.0517578125, -0.62890625
458, 4034049475, -5.261234283447266, -1.626163363456726, 8.00849723815918, -0.21443593502044678, -0.6735179424285889, -1.673117756843567, 0.720703125, 0.0537109375, -0.630859375
459, 4034066142, -5.259958744049072, -1.6369343996047974, 7.9856133460998535, -0.07457136362791061, -0.7891784906387329, -1.6881457567214966, 0.71923828125, 0.05224609375, -0.62841796875
460, 4034082809, -5.259592056274414, -1.6542556285858154, 7.967098236083984, 0.024953171610832214, -0.8296337127685547, -1.6523008346557617, 0.717529296875, 0.05419921875, -0.631103515625
461, 4034099476, -5.237161159515381, -1.6457974910736084, 7.981703758239746, 0.09122602641582489, -1.0537960529327393, -1.5247880220413208, 0.7216796875, 0.0537109375, -0.63037109375
462, 4034116143, -5.236139297485352, -1.6283067464828491, 7.978982925415039, 0.26712122559547424, -1.224453330039978, -1.5008528232574463, 0.72119140625, 0.052734375, -0.631591796875
463, 4034132810, -5.2321929931640625, -1.6558310985565186, 7.981844902038574, 0.5217499136924744, -1.298640489578247, -1.3056584596633911, 0.7197265625, 0.052734375, -0.633056640625
464, 4034149477, -5.245568752288818, -1.6267826557159424, 7.987663745880127, 0.11616696417331696, -1.0634005069732666, -1.4285955429077148, 0.720703125, 0.0517578125, -0.632568359375
465, 4034166144, -5.234310626983643, -1.6339941024780273, 8.004905700683594, 0.03899533301591873, -1.0835578441619873, -1.6024199724197388, 0.72021484375, 0.05224609375, -0.633056640625
466, 4034182811, -5.248838901519775, -1.6192996501922607, 8.003432273864746, -0.06182905286550522, -0.9889575242996216, -1.8218953609466553, 0.71923828125, 0.0537109375, -0.631591796875
467, 4034199478, -5.22222375869751, -1.6497777700424194, 8.004091262817383, -0.1685059517621994, -0.7819300293922424, -1.6833817958831787, 0.72021484375, 0.05224609375, -0.632568359375
468, 4034216145, -5.239053726196289, -1.6087534427642822, 7.9648051261901855, -0.18523743748664856, -0.7553377151489258, -1.671952247619629, 0.720703125, 0.05322265625, -0.634521484375
469, 4034232812, -5.233159065246582, -1.6508053541183472, 7.985711097717285, -0.13614429533481598, -0.772914469242096, -1.6491248607635498, 0.71923828125, 0.0537109375, -0.631591796875
470, 4034249479, -5.259955883026123, -1.601324200630188, 7.992947578430176, -0.20528578758239746, -0.9418045282363892, -1.565678596496582, 0.71923828125, 0.050537109375, -0.631591796875
471, 4034266146, -5.240840911865234, -1.6168984174728394, 7.971607208251953, -0.29421302676200867, -0.9877023696899414, -1.6951762437820435, 0.71923828125, 0.05322265625, -0.632080078125
472, 4034282813, -5.247106075286865, -1.6250505447387695, 7.990848541259766, -0.2093198001384735, -0.9480668902397156, -1.726872205734253, 0.71826171875, 0.0517578125, -0.633056640625
473, 4034299480, -5.230093002319336, -1.6315276622772217, 8.00247859954834, -0.3781842887401581, -0.8506105542182922, -1.6851106882095337, 0.71875, 0.0537109375, -0.632080078125
474, 4034316147, -5.219446659088135, -1.623523235321045, 7.975790500640869, -0.5027772188186646, -0.8397762775421143, -1.8073341846466064, 0.72021484375, 0.05126953125, -0.62939453125
475, 4034332814, -5.227842330932617, -1.629605770111084, 7.999040603637695, -0.3214009702205658, -0.8308759331703186, -1.7693252563476562, 0.7216796875, 0.052734375, -0.6298828125
476, 4034349481, -5.234012603759766, -1.6236865520477295, 7.986756324768066, -0.2854919135570526, -0.7432419657707214, -1.7902249097824097, 0.71923828125, 0.051513671875, -0.631591796875
477, 4034366148, -5.244019031524658, -1.6241642236709595, 7.983321189880371, -0.3134802281856537, -0.7566055655479431, -1.684399962425232, 0.72119140625, 0.05126953125, -0.632568359375
478, 4034382815, -5.246311187744141, -1.6138867139816284, 7.995816707611084, -0.3026396632194519, -0.689237654209137, -1.6671561002731323, 0.71923828125, 0.05224609375, -0.633056640625
479, 4034399482, -5.238152980804443, -1.6326494216918945, 7.977311134338379, -0.26615434885025024, -0.7230592966079712, -1.7098780870437622, 0.71923828125, 0.05224609375, -0.634033203125
480, 4034416149, -5.2498579025268555, -1.6302509307861328, 7.9837446212768555, -0.2428339570760727, -0.7085368633270264, -1.6904765367507935, 0.7177734375, 0.0517578125, -0.632568359375
481, 4034432816, -5.23952579498291, -1.6215457916259766, 7.984421730041504, -0.252221018075943, -0.7741309404373169, -1.6482667922973633, 0.720703125, 0.0537109375, -0.634033203125
482, 4034449483, -5.2401957511901855, -1.6238147020339966, 7.973812103271484, -0.4456225335597992, -0.7741822600364685, -1.580137014389038, 0.71826171875, 0.05224609375, -0.634033203125
483, 4034466150, -5.231956958770752, -1.6478129625320435, 8.017670631408691, -0.45402348041534424, -0.6999950408935547, -1.68331778049469, 0.72021484375, 0.052734375, -0.635498046875
484, 4034482817, -5.240482330322266, -1.6348210573196411, 8.013542175292969, -0.3416990041732788, -0.6402918100357056, -1.711350917816162, 0.71923828125, 0.051025390625, -0.633544921875
485, 4034499484, -5.246517181396484, -1.6264021396636963, 7.9837799072265625, -0.3907857835292816, -0.770878255367279, -1.713809609413147, 0.72119140625, 0.052734375, -0.634033203125
486, 4034516151, -5.253300189971924, -1.6324379444122314, 7.99946928024292, -0.38285863399505615, -0.9975121021270752, -1.7030906677246094, 0.71875, 0.05224609375, -0.633056640625
487, 4034532818, -5.22091817855835, -1.6255980730056763, 7.986413478851318, -0.34286433458328247, -1.0810478925704956, -1.7051523923873901, 0.71875, 0.05322265625, -0.630615234375
488, 4034549485, -5.213815689086914, -1.6336302757263184, 8.015839576721191, -0.25821441411972046, -1.0538471937179565, -1.765829086303711, 0.720703125, 0.05126953125, -0.633544921875
489, 4034566152, -5.2093377113342285, -1.6383877992630005, 8.008570671081543, -0.34388887882232666, -0.849509060382843, -1.63845694065094, 0.7216796875, 0.051025390625, -0.63134765625
490, 4034582819, -5.2115936279296875, -1.6368074417114258, 7.987901210784912, -0.30790308117866516, -0.47109442949295044, -1.6748785972595215, 0.71875, 0.05322265625, -0.632080078125
491, 4034599486, -5.229662895202637, -1.616316556930542, 7.960434913635254, -0.23741687834262848, -0.4926730692386627, -1.7434948682785034, 0.71875, 0.0517578125, -0.633544921875
492, 4034616153, -5.241300582885742, -1.6206083297729492, 7.983928680419922, -0.26575735211372375, -0.6140131950378418, -1.7185736894607544, 0.717529296875, 0.052734375, -0.631591796875
493, 4034632820, -5.23604154586792, -1.6459962129592896, 7.974207401275635, -0.1048007532954216, -0.8524225950241089, -1.6693140268325806, 0.71923828125, 0.051513671875, -0.632080078125
494, 4034649487, -5.221402645111084, -1.6254795789718628, 7.9967756271362305, -0.01582864485681057, -0.9933115243911743, -1.6593953371047974, 0.7197265625, 0.050537109375, -0.635009765625
495, 4034666154, -5.2269086837768555, -1.6144789457321167, 8.026949882507324, -0.07651793956756592, -0.8529156446456909, -1.6911553144454956, 0.71923828125, 0.0517578125, -0.633544921875
496, 4034682821, -5.223453521728516, -1.6210283041000366, 7.997845649719238, -0.17586961388587952, -0.8432725071907043, -1.66427481174469, 0.72119140625, 0.052734375, -0.631591796875
497, 4034699488, -5.223890781402588, -1.6320760250091553, 7.984454154968262, -0.19101952016353607, -0.8456928730010986, -1.7462608814239502, 0.72021484375, 0.050537109375, -0.633056640625
498, 4034716155, -5.226739406585693, -1.6084725856781006, 8.001801490783691, -0.14437878131866455, -0.8117817044258118, -1.6562834978103638, 0.717529296875, 0.052734375, -0.632568359375
499, 4034732822, -5.238889217376709, -1.606656551361084, 7.982520580291748, -0.19538646936416626, -0.8871470093727112, -1.6347432136535645, 0.71875, 0.0517578125, -0.631591796875
500, 4034749489, -5.239899158477783, -1.6012004613876343, 8.003461837768555, -0.21466003358364105, -0.9866523146629333, -1.6390973329544067, 0.7197265625, 0.051513671875, -0.635498046875
501, 4034766156, -5.208798408508301, -1.6126269102096558, 8.00961685180664, -0.22156262397766113, -0.9274613857269287, -1.7350424528121948, 0.72021484375, 0.0517578125, -0.631591796875
502, 4034782823, -5.272818088531494, -1.5312641859054565, 8.010575294494629, -1.0839934349060059, -0.8400965332984924, -2.178680181503296, 0.716064453125, 0.051025390625, -0.634765625
503, 4034799490, -5.163291931152344, -1.679408311843872, 8.005731582641602, -0.5534776449203491, -0.9181897044181824, -1.902024745941162, 0.716552734375, 0.05224609375, -0.633544921875
504, 4034816157, -5.235395908355713, -1.624167561531067, 7.980199813842773, -0.628061830997467, -0.8834972977638245, -1.9819364547729492, 0.7197265625, 0.051513671875, -0.634033203125
505, 4034832824, -5.208134651184082, -1.6379164457321167, 8.001258850097656, -0.3568744957447052, -0.8963162302970886, -1.7701061964035034, 0.717529296875, 0.052734375, -0.633544921875
506, 4034849491, -5.241108417510986, -1.6234146356582642, 8.001629829406738, -0.28330206871032715, -0.9055625796318054, -1.7715535163879395, 0.71826171875, 0.05322265625, -0.634765625
507, 4034866158, -5.262126445770264, -1.6018766164779663, 7.99372673034668, -0.22865736484527588, -1.1367554664611816, -1.724426031112671, 0.71923828125, 0.050537109375, -0.635009765625
508, 4034882825, -5.246474266052246, -1.603223443031311, 7.9819440841674805, -0.45508649945259094, -1.2581087350845337, -1.871673822402954, 0.718017578125, 0.052734375, -0.633544921875
509, 4034899492, -5.239217758178711, -1.5952889919281006, 8.025337219238281, -0.48822924494743347, -1.2774206399917603, -1.9840748310089111, 0.720703125, 0.05126953125, -0.63134765625
510, 4034916159, -5.260476112365723, -1.6120519638061523, 7.998495101928711, -0.8155980706214905, -1.28970205783844, -2.3415002822875977, 0.71875, 0.05322265625, -0.63623046875
511, 4034932826, -5.243159770965576, -1.6587706804275513, 7.9890923500061035, -0.753192663192749, -1.4580541849136353, -2.4113588333129883, 0.717529296875, 0.052734375, -0.634033203125
512, 4034949493, -5.235640048980713, -1.6124322414398193, 8.0129976272583, -1.1049830913543701, -1.5609403848648071, -2.5840907096862793, 0.7177734375, 0.05224609375, -0.633544921875
513, 4034966160, -5.203916549682617, -1.6374884843826294, 7.996945381164551, -1.0015207529067993, -1.7845139503479004, -2.3973746299743652, 0.717041015625, 0.052001953125, -0.63525390625
514, 4034982827, -5.220029354095459, -1.6213970184326172, 8.040426254272461, -1.0546925067901611, -1.6403394937515259, -2.4889907836914062, 0.716064453125, 0.052734375, -0.63427734375
515, 4034999494, -5.19493293762207, -1.646430492401123, 7.997479438781738, -0.9085720777511597, -1.5919444561004639, -2.3820323944091797, 0.718017578125, 0.05517578125, -0.634765625
516, 4035016161, -5.198868751525879, -1.63338041305542, 8.012491226196289, -0.8976483345031738, -1.4534695148468018, -2.4128057956695557, 0.717529296875, 0.0537109375, -0.6357421875
517, 4035032828, -5.182182788848877, -1.6877193450927734, 7.987414836883545, -0.7719026803970337, -1.3308870792388916, -2.4372403621673584, 0.716064453125, 0.05419921875, -0.63427734375
518, 4035049495, -5.17669677734375, -1.6602662801742554, 7.999823093414307, -0.7868989706039429, -1.2233905792236328, -2.497673511505127, 0.715576171875, 0.05517578125, -0.63427734375
519, 4035066162, -5.161109447479248, -1.642458438873291, 8.018098831176758, -0.6215689182281494, -1.0824439525604248, -2.3087158203125, 0.7177734375, 0.0546875, -0.6376953125
520, 4035082829, -5.169097423553467, -1.6287105083465576, 8.024300575256348, -0.6052408814430237, -0.9559427499771118, -2.288571357727051, 0.715087890625, 0.05517578125, -0.63427734375
521, 4035099496, -5.199017524719238, -1.6666995286941528, 8.006519317626953, -0.6839103102684021, -0.8149320483207703, -2.2029225826263428, 0.715576171875, 0.05419921875, -0.637939453125
522, 4035116163, -5.205563545227051, -1.653747320175171, 7.996635437011719, -0.27879422903060913, -0.9199697971343994, -2.0738091468811035, 0.717041015625, 0.05322265625, -0.63623046875
523, 4035132830, -5.167160511016846, -1.673061490058899, 8.006490707397461, -0.12438808381557465, -1.0282219648361206, -1.9524048566818237, 0.715087890625, 0.05517578125, -0.63330078125
524, 4035149497, -5.126006603240967, -1.6306922435760498, 8.02198314666748, 0.08579613268375397, -0.7084985375404358, -1.678412914276123, 0.714599609375, 0.0546875, -0.63671875
525, 4035166164, -5.178138732910156, -1.6552236080169678, 8.020318031311035, -0.04496309533715248, -0.41039225459098816, -1.4593347311019897, 0.716064453125, 0.0537109375, -0.63623046875
526, 4035182831, -5.129541397094727, -1.670012354850769, 8.01419734954834, -0.13629797101020813, 0.016488173976540565, -1.2510778903961182, 0.717529296875, 0.05419921875, -0.63525390625
527, 4035199498, -5.186826229095459, -1.6703482866287231, 8.030214309692383, 0.04680080711841583, 0.46025386452674866, -1.0432950258255005, 0.718017578125, 0.0556640625, -0.6357421875
528, 4035216165, -5.221558094024658, -1.6578450202941895, 8.019954681396484, 0.043253444135189056, 0.4990442097187042, -0.9994843006134033, 0.71728515625, 0.050537109375, -0.63671875
529, 4035232832, -5.224048137664795, -1.6389567852020264, 8.016725540161133, 0.19336946308612823, 0.4905407726764679, -1.069368600845337, 0.716064453125, 0.05322265625, -0.633056640625
530, 4035249499, -5.221329689025879, -1.6440573930740356, 8.01734447479248, 0.05777585133910179, 0.4519041180610657, -1.1719859838485718, 0.717529296875, 0.05517578125, -0.63427734375
531, 4035266166, -5.1713948249816895, -1.638008952140808, 8.046889305114746, 0.15682655572891235, 0.4444059729576111, -1.1071537733078003, 0.717041015625, 0.0546875, -0.63623046875
532, 4035282833, -5.2012553215026855, -1.6581181287765503, 8.02899169921875, 0.1683458685874939, 0.7804381847381592, -0.70290207862854, 0.7177734375, 0.05224609375, -0.634033203125
533, 4035299500, -5.246193885803223, -1.6509891748428345, 8.015433311462402, 0.16596390306949615, 0.9984919428825378, -0.5870686769485474, 0.717529296875, 0.051513671875, -0.633056640625
534, 4035316167, -5.2547383308410645, -1.5822811126708984, 8.030155181884766, 0.1092957854270935, 1.0717569589614868, -0.8758518099784851, 0.71826171875, 0.050537109375, -0.633056640625
535, 4035332834, -5.072052955627441, -1.6714638471603394, 8.04824161529541, 0.7606779932975769, 1.4985543489456177, -0.263260155916214, 0.72021484375, 0.05224609375, -0.631103515625
536, 4035349501, -5.207476615905762, -1.6250005960464478, 8.049942016601562, 0.30653196573257446, 2.4910037517547607, -0.09821779280900955, 0.7197265625, 0.051025390625, -0.632568359375
537, 4035366168, -5.206048965454102, -1.5877631902694702, 8.032191276550293, -0.21291832625865936, 3.2671618461608887, -0.33737048506736755, 0.72021484375, 0.049072265625, -0.633056640625
538, 4035382835, -5.258660316467285, -1.5952894687652588, 8.030027389526367, -0.7720308303833008, 4.078187942504883, -0.44057682156562805, 0.7216796875, 0.0517578125, -0.632080078125
539, 4035399502, -5.302027225494385, -1.5663385391235352, 7.97090482711792, -1.3787574768066406, 4.36284875869751, -0.7815972566604614, 0.72216796875, 0.050537109375, -0.6279296875
540, 4035416169, -5.3033599853515625, -1.5815404653549194, 7.958803176879883, -1.254830241203308, 4.109846115112305, -0.8773630857467651, 0.723388671875, 0.049560546875, -0.62939453125
541, 4035432836, -5.339476585388184, -1.5829731225967407, 7.905135631561279, -1.0059260129928589, 3.419276475906372, -1.061492681503296, 0.72265625, 0.050048828125, -0.62890625
542, 4035449503, -5.341889381408691, -1.5958662033081055, 7.908364295959473, -1.0519903898239136, 2.4358766078948975, -1.1660566329956055, 0.725341796875, 0.05224609375, -0.628173828125
543, 4035466170, -5.362515449523926, -1.6524522304534912, 7.8918962478637695, -0.7577900886535645, 1.4763480424880981, -1.2709276676177979, 0.725830078125, 0.05029296875, -0.625244140625
544, 4035482837, -5.3289079666137695, -1.655964970588684, 7.889389514923096, -0.015585326589643955, 0.2949109971523285, -0.8117176294326782, 0.725830078125, 0.050048828125, -0.626220703125
545, 4035499504, -5.413174629211426, -1.5780491828918457, 7.901505470275879, 0.4785284996032715, -0.7480061650276184, -1.1243079900741577, 0.7236328125, 0.050537109375, -0.626708984375
546, 4035516171, -5.372178077697754, -1.6022430658340454, 7.9012651443481445, 0.5087129473686218, -1.8606854677200317, -1.7789939641952515, 0.72412109375, 0.05126953125, -0.625732421875
547, 4035532838, -5.3006134033203125, -1.588744878768921, 7.931976318359375, 0.6331906914710999, -2.2886996269226074, -1.8301043510437012, 0.72314453125, 0.048095703125, -0.625732421875
548, 4035549505, -5.2389092445373535, -1.6022752523422241, 7.955005645751953, 0.85776287317276, -1.9820514917373657, -1.778571367263794, 0.72265625, 0.050537109375, -0.624755859375
549, 4035566172, -5.269511699676514, -1.5787895917892456, 7.983704090118408, 0.4538954794406891, -1.444767713546753, -1.8827449083328247, 0.724365234375, 0.05078125, -0.628173828125
550, 4035582839, -5.2568511962890625, -1.6022741794586182, 7.974483966827393, 0.3042340576648712, -1.145579218864441, -1.9584752321243286, 0.72314453125, 0.049560546875, -0.627197265625
551, 4035599506, -5.26068639755249, -1.5970340967178345, 7.97076416015625, 0.6362898945808411, -0.6449918150901794, -1.8767319917678833, 0.72314453125, 0.05126953125, -0.627685546875
552, 4035616173, -5.218785762786865, -1.6397466659545898, 7.976449966430664, 0.35825762152671814, -0.3111174404621124, -1.9359102249145508, 0.7216796875, 0.050048828125, -0.625732421875
553, 4035632840, -5.22648811340332, -1.6268525123596191, 7.978221416473389, -2.5612696845200844E-5, 0.5675965547561646, -1.9376901388168335, 0.724853515625, 0.049560546875, -0.627685546875
554, 4035649507, -5.27463436126709, -1.5193936824798584, 7.981809616088867, -0.8265731334686279, 1.8115350008010864, -2.3790743350982666, 0.72412109375, 0.049560546875, -0.626220703125
555, 4035666174, -5.273945331573486, -1.44834566116333, 7.996743202209473, -2.700500965118408, 3.2351086139678955, -3.4511454105377197, 0.724365234375, 0.049560546875, -0.625732421875
556, 4035682841, -5.289694786071777, -1.5830392837524414, 7.99749755859375, -4.129011154174805, 4.830140113830566, -4.342134475708008, 0.726318359375, 0.05224609375, -0.627197265625
557, 4035699508, -5.140530586242676, -1.6288566589355469, 7.99386739730835, -4.399007797241211, 5.735683917999268, -4.615793704986572, 0.728271484375, 0.05322265625, -0.62255859375
558, 4035716175, -5.2114691734313965, -1.760195016860962, 8.072625160217285, -4.27686071395874, 7.8868632316589355, -4.33268404006958, 0.728271484375, 0.05224609375, -0.623046875
559, 4035732842, -5.123814105987549, -1.7298223972320557, 7.972896099090576, -3.531019449234009, 10.764566421508789, -3.328563690185547, 0.731201171875, 0.054931640625, -0.620361328125
560, 4035749509, -5.063311576843262, -1.7326079607009888, 8.101445198059082, -5.930881500244141, 13.789240837097168, -0.38205209374427795, 0.733154296875, 0.055908203125, -0.617919921875
561, 4035766176, -4.774364471435547, -2.2983627319335938, 8.298808097839355, -9.510268211364746, 19.868350982666016, 6.374711513519287, 0.736572265625, 0.05859375, -0.610107421875
562, 4035782843, -4.818542003631592, -1.8180367946624756, 8.486029624938965, -6.005049705505371, 31.776723861694336, 10.200793266296387, 0.74267578125, 0.0556640625, -0.60302734375
563, 4035799510, -4.901103496551514, -1.955221176147461, 8.44325065612793, -8.891737937927246, 44.670108795166016, 14.764388084411621, 0.750732421875, 0.05517578125, -0.5986328125
564, 4035816177, -4.651371479034424, -1.9111919403076172, 8.715509414672852, -10.03218936920166, 59.67644119262695, 20.383602142333984, 0.760009765625, 0.051025390625, -0.583984375
565, 4035832844, -4.923675060272217, -2.006197929382324, 8.830865859985352, -11.515600204467773, 75.6717300415039, 28.5430850982666, 0.774169921875, 0.045166015625, -0.568603515625
566, 4035849511, -5.581383228302002, -1.8980374336242676, 8.804388999938965, -17.09402847290039, 95.26573944091797, 35.644264221191406, 0.789306640625, 0.0400390625, -0.546142578125
567, 4035866178, -5.548031330108643, -2.181049108505249, 9.326373100280762, -23.796903610229492, 114.21351623535156, 44.967445373535156, 0.805419921875, 0.029052734375, -0.522705078125
568, 4035882845, -5.446115493774414, -3.506809949874878, 9.718008995056152, -19.702184677124023, 128.1889190673828, 50.334529876708984, 0.826171875, 0.023193359375, -0.48974609375
569, 4035899512, -6.153907775878906, -1.4649423360824585, 9.89888858795166, -16.600297927856445, 126.31907653808594, 51.888526916503906, 0.848388671875, 0.011474609375, -0.460693359375
570, 4035916179, -4.1139702796936035, -2.995175838470459, 12.08658504486084, -13.774080276489258, 124.55829620361328, 53.65910720825195, 0.86474609375, -9.765625E-4, -0.42822265625
571, 4035932846, -0.38683420419692993, -2.7592570781707764, 14.461491584777832, -7.53048849105835, 99.09778594970703, 50.5589714050293, 0.87890625, -0.01416015625, -0.398681640625
572, 4035949513, 0.5851547718048096, -3.3603076934814453, 16.229549407958984, -9.24342155456543, 63.7722053527832, 42.72432327270508, 0.88720703125, -0.026611328125, -0.38232421875
573, 4035966180, 2.200852632522583, -4.687087059020996, 16.9265079498291, -6.825173377990723, 16.713464736938477, 29.201128005981445, 0.890625, -0.033203125, -0.37353515625
574, 4035982847, 3.664076089859009, -4.5147552490234375, 16.66444206237793, -6.685458660125732, -25.173757553100586, 10.937211036682129, 0.888916015625, -0.038818359375, -0.381103515625
575, 4035999514, 4.008174419403076, -4.5358381271362305, 15.945076942443848, -11.416241645812988, -56.79914474487305, -7.995086669921875, 0.884765625, -0.036376953125, -0.393310546875
576, 4036016181, 3.213165044784546, -4.40092658996582, 15.355229377746582, -11.821622848510742, -82.79150390625, -22.05890464782715, 0.87744140625, -0.02978515625, -0.41455078125
577, 4036032848, 1.9450092315673828, -4.196887016296387, 14.825642585754395, -10.277960777282715, -105.28230285644531, -32.5868034362793, 0.8642578125, -0.022216796875, -0.439697265625
578, 4036049515, 0.42001837491989136, -3.639350652694702, 14.399507522583008, -9.648944854736328, -122.23172760009766, -40.034034729003906, 0.848876953125, -0.010498046875, -0.469482421875
579, 4036066182, -1.7331825494766235, -3.2725844383239746, 13.958510398864746, -11.187426567077637, -134.66368103027344, -44.74991226196289, 0.8251953125, 4.8828125E-4, -0.50341796875
580, 4036082849, -3.6535611152648926, -2.7859761714935303, 13.155349731445312, -12.71971607208252, -144.206298828125, -46.881256103515625, 0.806884765625, 0.0146484375, -0.533935546875
581, 4036099516, -5.036322593688965, -2.3792307376861572, 12.108819961547852, -14.69282341003418, -148.38499450683594, -47.04444885253906, 0.779541015625, 0.027587890625, -0.568115234375
582, 4036116183, -6.021867752075195, -2.2301056385040283, 11.02030086517334, -15.187431335449219, -147.7445831298828, -45.43947219848633, 0.752685546875, 0.03857421875, -0.60205078125
583, 4036132850, -6.892482757568359, -2.2213997840881348, 10.491751670837402, -14.688827514648438, -145.1742401123047, -43.2476921081543, 0.727294921875, 0.05322265625, -0.63232421875
584, 4036149517, -7.897963047027588, -2.221775770187378, 10.359681129455566, -17.017223358154297, -143.69134521484375, -42.579376220703125, 0.69580078125, 0.06103515625, -0.665771484375
585, 4036166184, -9.750937461853027, -2.449235200881958, 10.876825332641602, -21.61082649230957, -146.56658935546875, -45.20466995239258, 0.6669921875, 0.076171875, -0.69091796875
586, 4036182851, -11.543233871459961, -3.1400418281555176, 10.523725509643555, -19.01272201538086, -160.5265655517578, -49.797149658203125, 0.63134765625, 0.0888671875, -0.719482421875
587, 4036199518, -11.238125801086426, -3.544644594192505, 8.556031227111816, -6.195992946624756, -174.54176330566406, -53.593990325927734, 0.5927734375, 0.1015625, -0.751708984375
588, 4036216185, -10.388984680175781, -3.183302402496338, 6.269561767578125, 0.7550026178359985, -171.60269165039062, -58.8067741394043, 0.551513671875, 0.10986328125, -0.77978515625
589, 4036232852, -10.534050941467285, -2.730806589126587, 4.829915523529053, -3.7020175457000732, -154.8058319091797, -65.30352783203125, 0.5087890625, 0.120849609375, -0.806396484375
590, 4036249519, -11.029911994934082, -1.9502259492874146, 3.521413564682007, -11.3952054977417, -134.8040008544922, -68.10623931884766, 0.47314453125, 0.13134765625, -0.823486328125
591, 4036266186, -10.832014083862305, -0.5268193483352661, 1.7845489978790283, -18.689254760742188, -110.2103500366211, -63.57199478149414, 0.441650390625, 0.144287109375, -0.83935546875
592, 4036282853, -10.742169380187988, 0.7188740372657776, 0.2711932063102722, -21.914005279541016, -79.25189971923828, -52.572166442871094, 0.41943359375, 0.157958984375, -0.847412109375
593, 4036299520, -11.260164260864258, 1.160152554512024, -0.3049871623516083, -19.901065826416016, -49.085601806640625, -38.27964401245117, 0.399169921875, 0.166748046875, -0.85498046875
594, 4036316187, -11.629338264465332, 0.4713422656059265, -0.36326271295547485, -6.266936779022217, -24.192813873291016, -18.709640502929688, 0.391357421875, 0.173095703125, -0.85986328125
595, 4036332854, -11.553302764892578, 0.149299755692482, -0.4290841519832611, 3.8118674755096436, -3.991342306137085, -1.923283338546753, 0.38818359375, 0.173583984375, -0.859375
596, 4036349521, -11.738459587097168, -0.6738501787185669, -0.4649461805820465, 2.798959255218506, 18.29311180114746, 3.3402585983276367, 0.391357421875, 0.171142578125, -0.8583984375
597, 4036366188, -12.678627014160156, -1.7760417461395264, -0.3782084584236145, 8.659071922302246, 37.350860595703125, 2.2913880348205566, 0.400146484375, 0.170166015625, -0.85498046875
598, 4036382855, -13.412274360656738, -1.9401607513427734, -0.1353299766778946, 21.895132064819336, 50.69144821166992, -0.014112748205661774, 0.412841796875, 0.1640625, -0.848388671875
599, 4036399522, -6.6962809562683105, -2.0371487140655518, 2.6474130153656006, 20.279870986938477, 73.83000946044922, -0.16624905169010162, 0.427734375, 0.1591796875, -0.8427734375
600, 4036416189, 17.685531616210938, -5.702386856079102, 20.7050724029541, 46.019832611083984, 121.81422424316406, 27.34499740600586, 0.456787109375, 0.147216796875, -0.827880859375
601, 4036432856, 2.5452191829681396, 0.608925998210907, 1.7718721628189087, 46.272850036621094, 189.19308471679688, 71.78673553466797, 0.502197265625, 0.124267578125, -0.80908203125
602, 4036449523, -18.82282829284668, -0.7155723571777344, 12.251964569091797, -6.060334205627441, 225.47288513183594, 1.082753300666809, 0.558349609375, 0.121337890625, -0.77197265625
603, 4036466190, -10.56369400024414, 0.7071080803871155, 14.629335403442383, 16.588075637817383, 168.46568298339844, 18.035327911376953, 0.6005859375, 0.115234375, -0.74072265625
604, 4036482857, -8.625216484069824, 2.595543622970581, 11.818940162658691, -0.6828425526618958, 151.0331268310547, 42.495174407958984, 0.635498046875, 0.106201171875, -0.71142578125
605, 4036499524, -7.912036418914795, -3.6350958347320557, 9.172268867492676, -7.495615482330322, 134.41392517089844, 45.32796096801758, 0.66943359375, 0.099609375, -0.6865234375
606, 4036516191, -9.363821029663086, -8.296197891235352, 9.19487476348877, 16.98196792602539, 120.29489135742188, 44.98965072631836, 0.6953125, 0.090576171875, -0.660888671875
607, 4036532858, -18.106718063354492, -4.828702449798584, 10.49484634399414, 78.60780334472656, 19.499935150146484, 39.12692642211914, 0.704345703125, 0.06787109375, -0.65625
608, 4036549525, -6.396580696105957, 1.396653413772583, 10.720274925231934, 31.262548446655273, -0.09447287023067474, 17.6127986907959, 0.708251953125, 0.053955078125, -0.653564453125
609, 4036566192, -6.854176998138428, 0.005364269949495792, 9.702042579650879, 11.436659812927246, 6.001488208770752, 0.014541619457304478, 0.707275390625, 0.04736328125, -0.654296875
610, 4036582859, -5.659431457519531, -1.2298539876937866, 8.761034965515137, -3.8497064113616943, 8.827255249023438, -8.350935935974121, 0.710205078125, 0.04736328125, -0.65283203125
611, 4036599526, -5.418552398681641, -0.6462104320526123, 8.605586051940918, -11.811450004577637, 12.299070358276367, -12.42415714263916, 0.710205078125, 0.052978515625, -0.649169921875
612, 4036616193, -5.356190204620361, -1.2611827850341797, 8.327493667602539, -19.163782119750977, 14.589733123779297, -16.14325714111328, 0.715576171875, 0.057373046875, -0.647216796875
613, 4036632860, -5.035409927368164, -1.9452636241912842, 8.031847953796387, -21.949764251708984, 16.286128997802734, -15.952451705932617, 0.717529296875, 0.066650390625, -0.64306640625
614, 4036649527, -4.969079494476318, -2.072629690170288, 7.893006801605225, -19.93564796447754, 16.068370819091797, -11.764917373657227, 0.720458984375, 0.0703125, -0.640869140625
615, 4036666194, -5.08321475982666, -2.088857412338257, 7.836922645568848, -17.611072540283203, 14.74629020690918, -7.7846245765686035, 0.725830078125, 0.077880859375, -0.634765625
616, 4036682861, -5.281451225280762, -1.980328917503357, 7.831435203552246, -16.4044132232666, 13.724533081054688, -7.041506290435791, 0.727783203125, 0.080078125, -0.629638671875
617, 4036699528, -5.1039910316467285, -2.1079370975494385, 7.806929588317871, -14.920300483703613, 12.604813575744629, -6.388289451599121, 0.730224609375, 0.086181640625, -0.6259765625
618, 4036716195, -5.271416664123535, -2.2635865211486816, 7.726551532745361, -12.4281644821167, 11.567659378051758, -5.298363208770752, 0.731689453125, 0.09033203125, -0.625
619, 4036732862, -5.523074626922607, -2.1458353996276855, 7.7083635330200195, -10.801936149597168, 9.90208911895752, -4.689702033996582, 0.732666015625, 0.092041015625, -0.620849609375
620, 4036749529, -5.463183879852295, -2.218712091445923, 7.669508457183838, -9.2462158203125, 8.452906608581543, -4.202547073364258, 0.738037109375, 0.093017578125, -0.62109375
621, 4036766196, -5.352821350097656, -2.4251677989959717, 7.611235618591309, -6.689064979553223, 6.540799140930176, -2.990206480026245, 0.736083984375, 0.095703125, -0.619873046875
622, 4036782863, -5.325604438781738, -2.4957783222198486, 7.571073055267334, -3.807724952697754, 4.735929012298584, -1.0110613107681274, 0.738037109375, 0.09716796875, -0.6162109375
623, 4036799530, -5.254076957702637, -2.496751070022583, 7.543765544891357, -0.6046646237373352, 3.528104782104492, 1.4045813083648682, 0.739013671875, 0.09765625, -0.615966796875
624, 4036816197, -5.155930995941162, -2.4510083198547363, 7.592210292816162, 3.8054587841033936, 2.124394416809082, 4.594778060913086, 0.738525390625, 0.091064453125, -0.614501953125
625, 4036832864, -5.23601770401001, -2.2606496810913086, 7.685511589050293, 6.3942766189575195, 1.0641824007034302, 8.051380157470703, 0.740234375, 0.091552734375, -0.614501953125
626, 4036849531, -5.275725841522217, -1.967347502708435, 7.79982852935791, 6.402440547943115, 0.46939772367477417, 9.453593254089355, 0.7392578125, 0.089599609375, -0.616943359375
627, 4036866198, -5.138733386993408, -2.013577699661255, 7.9288554191589355, 4.926687717437744, 2.485297441482544, 10.211576461791992, 0.741455078125, 0.081298828125, -0.615234375
628, 4036882865, -5.073031902313232, -2.0283758640289307, 7.916741847991943, 2.1557390689849854, 8.182999610900879, 10.097830772399902, 0.744384765625, 0.079345703125, -0.6142578125
629, 4036899532, -4.907285690307617, -1.9956167936325073, 8.216049194335938, -2.4944114685058594, 17.141996383666992, 11.627854347229004, 0.74560546875, 0.0771484375, -0.612060546875
630, 4036916199, -5.020138263702393, -2.165118455886841, 8.04991626739502, -6.731349945068359, 28.899612426757812, 14.219539642333984, 0.7509765625, 0.07568359375, -0.60400390625
631, 4036932866, -5.1095781326293945, -1.911577582359314, 8.219898223876953, -11.422085762023926, 42.84743881225586, 16.742813110351562, 0.76123046875, 0.07177734375, -0.595458984375
632, 4036949533, -4.741780757904053, -2.1649506092071533, 8.616231918334961, -21.837928771972656, 58.610652923583984, 21.670452117919922, 0.768798828125, 0.07080078125, -0.580322265625
633, 4036966200, -5.333444118499756, -1.5080149173736572, 8.526662826538086, -11.831193923950195, 83.98844146728516, 19.640901565551758, 0.784912109375, 0.06787109375, -0.56396484375
634, 4036982867, -5.247985363006592, -1.693824052810669, 8.756004333496094, -18.055946350097656, 116.1899185180664, 15.628669738769531, 0.801513671875, 0.067626953125, -0.539306640625
635, 4036999534, -5.077102184295654, -1.5719398260116577, 9.22076416015625, -23.685657501220703, 158.28053283691406, 15.600125312805176, 0.824951171875, 0.064453125, -0.502685546875
636, 4037016201, -5.230540752410889, -1.7511255741119385, 8.973302841186523, -42.161800384521484, 213.0559844970703, 18.9539794921875, 0.85400390625, 0.065185546875, -0.454345703125
637, 4037032868, -5.193016052246094, -2.1472580432891846, 9.021245956420898, -62.65644836425781, 275.3989562988281, 26.66440200805664, 0.888916015625, 0.064208984375, -0.384521484375
638, 4037049535, -5.285747528076172, -2.36531925201416, 8.903223991394043, -54.901573181152344, 341.77923583984375, 36.810752868652344, 0.92431640625, 0.061279296875, -0.295166015625
639, 4037066202, -6.179038047790527, -3.6821861267089844, 9.512978553771973, -53.189186096191406, 423.5909729003906, 50.25552749633789, 0.9580078125, 0.052490234375, -0.18359375
640, 4037082869, -12.286714553833008, -7.740872859954834, 12.60065746307373, -40.66539764404297, 481.4163818359375, 90.44795989990234, 0.97802734375, 0.031005859375, -0.0517578125
641, 4037099536, -19.065685272216797, -7.838167667388916, 14.477640151977539, -39.083251953125, 493.8025817871094, 138.63592529296875, 0.983154296875, -0.005859375, 0.090576171875
642, 4037116203, -22.968374252319336, -5.7933268547058105, 15.588115692138672, -59.04795455932617, 435.73028564453125, 146.510009765625, 0.964599609375, -0.051513671875, 0.21484375
643, 4037132870, -19.527061462402344, -9.065521240234375, 20.067853927612305, -51.63190460205078, 341.53826904296875, 147.95144653320312, 0.936767578125, -0.095703125, 0.313232421875
644, 4037149537, -4.388691425323486, -9.66461181640625, 16.562965393066406, -0.8190542459487915, 283.35809326171875, 185.87948608398438, 0.90380859375, -0.145263671875, 0.391357421875
645, 4037166204, -12.344099998474121, -10.947312355041504, 18.625761032104492, 63.3316650390625, 312.43121337890625, 167.80706787109375, 0.860107421875, -0.184326171875, 0.47314453125
646, 4037182871, -21.96137237548828, -11.064812660217285, 33.18046951293945, 11.798645973205566, 59.85941696166992, 51.46233367919922, 0.83349609375, -0.20458984375, 0.50537109375
647, 4037199538, -6.712522029876709, -10.165852546691895, 23.21182632446289, 11.97728157043457, -148.82545471191406, -22.490371704101562, 0.84912109375, -0.200439453125, 0.478271484375
