sep=,
DeviceTag:,A,,,,,,,,,,,,,,,,,
FirmwareVersion:,2.2.1,,,,,,,,,,,,,,,,,
AppVersion:,2023.6.1,,,,,,,,,,,,,,,,,
SyncStatus:,Synced,,,,,,,,,,,,,,,,,
OutputRate:,60Hz,,,,,,,,,,,,,,,,,
FilterProfile:,General,,,,,,,,,,,,,,,,,
Measurement Mode:,Inertial Mode - Rate quantities (with mag),,,,,,,,,,,,,,,,,
StartTime:,2023-12-07 12:27:49.613 +0200,,,,,,,,,,,,,,,,,
 2023,,,,,,,,,,,,,,,,,,,

PacketCounter,SampleTimeFine,Acc_X,Acc_Y,Acc_Z,Gyr_X,Gyr_Y,Gyr_Z,Mag_X,Mag_Y,Mag_Z
1, 108313993, -6.816628456115723, -0.8015466928482056, 7.146378517150879, -2.4925124645233154, -1.192949891090393, -2.1431939601898193, 1.119140625, -0.3984375, 0.055908203125
2, 108330660, -6.801270484924316, -0.8042601943016052, 7.1562395095825195, -2.322802782058716, -1.230959177017212, -2.0915584564208984, 1.119140625, -0.396728515625, 0.0556640625
3, 108347327, -6.818633556365967, -0.7865797877311707, 7.145739555358887, -2.36391019821167, -1.2505290508270264, -2.0327322483062744, 1.119140625, -0.397705078125, 0.056396484375
4, 108363994, -6.822192668914795, -0.7777429819107056, 7.141944885253906, -2.3957862854003906, -1.3370598554611206, -2.132270097732544, 1.11865234375, -0.39794921875, 0.055908203125
5, 108380661, -6.815644264221191, -0.7946146726608276, 7.118484020233154, -2.3721327781677246, -1.4798376560211182, -2.1183111667633057, 1.11767578125, -0.39892578125, 0.055908203125
6, 108397328, -6.815821170806885, -0.7875382304191589, 7.126676082611084, -2.2989187240600586, -1.437333345413208, -2.1536948680877686, 1.1201171875, -0.396240234375, 0.057373046875
7, 108413995, -6.817951679229736, -0.7906222343444824, 7.128116607666016, -2.3648974895477295, -1.4903134107589722, -2.1642348766326904, 1.1181640625, -0.39892578125, 0.056884765625
8, 108430662, -6.806214809417725, -0.7950337529182434, 7.126716613769531, -2.2744202613830566, -1.4749327898025513, -2.1004719734191895, 1.120849609375, -0.3984375, 0.055419921875
9, 108447329, -6.82877779006958, -0.782207190990448, 7.141011714935303, -2.2964730262756348, -1.488213062286377, -2.166987895965576, 1.1181640625, -0.39892578125, 0.057861328125
10, 108463996, -6.823201656341553, -0.7939205765724182, 7.1347479820251465, -2.390983819961548, -1.3927032947540283, -2.165489435195923, 1.1171875, -0.3984375, 0.056884765625
11, 108480663, -6.811479091644287, -0.7837552428245544, 7.13234806060791, -2.391867160797119, -1.354156255722046, -2.103020191192627, 1.1181640625, -0.39990234375, 0.058349609375
12, 108497330, -6.7897562980651855, -0.781485378742218, 7.126299858093262, -2.348633050918579, -1.333922028541565, -2.1667957305908203, 1.1171875, -0.39794921875, 0.0546875
13, 108513997, -6.818021774291992, -0.7872064709663391, 7.134856224060059, -2.3344566822052, -1.340645432472229, -2.074615716934204, 1.119873046875, -0.39794921875, 0.056396484375
14, 108530664, -6.823849678039551, -0.7764489054679871, 7.130130290985107, -2.3781778812408447, -1.3334996700286865, -2.0734636783599854, 1.1171875, -0.400390625, 0.057861328125
15, 108547331, -6.823437690734863, -0.7809484601020813, 7.140201091766357, -2.284473419189453, -1.361417293548584, -2.166475534439087, 1.11865234375, -0.39892578125, 0.056396484375
16, 108563998, -6.824598789215088, -0.7706068158149719, 7.127050876617432, -2.2361807823181152, -1.4435571432113647, -1.9994934797286987, 1.1171875, -0.397216796875, 0.05517578125
17, 108580665, -6.818883419036865, -0.7866533994674683, 7.101747512817383, -2.2184951305389404, -1.5418205261230469, -2.2105422019958496, 1.11865234375, -0.3994140625, 0.055908203125
18, 108597332, -6.813173770904541, -0.7766122221946716, 7.124180316925049, -2.2674152851104736, -1.5488895177841187, -2.173506498336792, 1.120361328125, -0.400390625, 0.057861328125
19, 108613999, -6.819612503051758, -0.7829791307449341, 7.141186237335205, -2.272960662841797, -1.6076196432113647, -2.1642861366271973, 1.119873046875, -0.39990234375, 0.057861328125
20, 108630666, -6.810374736785889, -0.7792461514472961, 7.114264965057373, -2.251112699508667, -1.6485100984573364, -2.204587459564209, 1.119873046875, -0.400390625, 0.055419921875
21, 108647333, -6.811866760253906, -0.7784914374351501, 7.1334919929504395, -2.2965242862701416, -1.7567623853683472, -2.3056552410125732, 1.119384765625, -0.39794921875, 0.055908203125
22, 108664000, -6.8149871826171875, -0.7880597710609436, 7.135100841522217, -2.2646749019622803, -1.8660132884979248, -2.281912326812744, 1.119140625, -0.3984375, 0.056396484375
23, 108680667, -6.807096004486084, -0.795222818851471, 7.125929832458496, -2.214064121246338, -1.8448569774627686, -2.225346565246582, 1.119873046875, -0.3994140625, 0.055908203125
24, 108697334, -6.818040370941162, -0.7777093052864075, 7.128228187561035, -2.2598345279693604, -1.8333442211151123, -2.1911792755126953, 1.11865234375, -0.39990234375, 0.056884765625
25, 108714001, -6.818859100341797, -0.7752387523651123, 7.132152557373047, -2.3221371173858643, -1.805247187614441, -2.2183032035827637, 1.118896484375, -0.39990234375, 0.05419921875
26, 108730668, -6.810453414916992, -0.7763127684593201, 7.11957311630249, -2.3478009700775146, -1.7912369966506958, -2.2284202575683594, 1.11865234375, -0.397216796875, 0.055908203125
27, 108747335, -6.8094072341918945, -0.7709059715270996, 7.130500316619873, -2.3546526432037354, -1.7758311033248901, -2.3378376960754395, 1.118896484375, -0.39990234375, 0.056396484375
28, 108764002, -6.812407970428467, -0.7788361310958862, 7.11988639831543, -2.304220676422119, -1.7557376623153687, -2.2849342823028564, 1.119384765625, -0.39794921875, 0.056884765625
29, 108780669, -6.817404747009277, -0.7810361981391907, 7.128860950469971, -2.434807062149048, -1.5999867916107178, -2.3560354709625244, 1.119384765625, -0.39892578125, 0.057373046875
30, 108797336, -6.810187339782715, -0.7905535101890564, 7.127497673034668, -2.3812127113342285, -1.6294801235198975, -2.373093605041504, 1.119384765625, -0.39892578125, 0.056884765625
31, 108814003, -6.811551094055176, -0.7780718207359314, 7.1381940841674805, -2.4256250858306885, -1.6718562841415405, -2.3349435329437256, 1.11767578125, -0.3984375, 0.056396484375
32, 108830670, -6.810956001281738, -0.7835432887077332, 7.1183648109436035, -2.4112820625305176, -1.5737980604171753, -2.317014455795288, 1.11865234375, -0.397705078125, 0.05517578125
33, 108847337, -6.820473670959473, -0.7815403342247009, 7.111242771148682, -2.444207191467285, -1.6346794366836548, -2.402522563934326, 1.11669921875, -0.3984375, 0.0556640625
34, 108864004, -6.82865047454834, -0.769606351852417, 7.122831344604492, -2.374783992767334, -1.684611439704895, -2.368367910385132, 1.11865234375, -0.39794921875, 0.056884765625
35, 108880671, -6.817841529846191, -0.7819156050682068, 7.12803316116333, -2.390702486038208, -1.7468632459640503, -2.416302442550659, 1.118896484375, -0.400390625, 0.055419921875
36, 108897338, -6.804361820220947, -0.7817875742912292, 7.159480571746826, -2.3659605979919434, -1.8744018077850342, -2.465043544769287, 1.119873046875, -0.39794921875, 0.055419921875
37, 108914005, -6.797927379608154, -0.803438663482666, 7.140976905822754, -2.4187228679656982, -1.8198723793029785, -2.378638744354248, 1.119873046875, -0.39892578125, 0.056884765625
38, 108930672, -6.781236171722412, -0.7876143455505371, 7.158378601074219, -2.3268239498138428, -1.7409462928771973, -2.348210573196411, 1.11865234375, -0.39892578125, 0.056396484375
39, 108947339, -6.799445152282715, -0.8062512278556824, 7.112621784210205, -2.341820478439331, -1.676211953163147, -2.259685516357422, 1.11865234375, -0.39990234375, 0.057373046875
40, 108964006, -6.808802127838135, -0.7781171202659607, 7.138979434967041, -2.3770251274108887, -1.5835564136505127, -2.160815477371216, 1.1171875, -0.3994140625, 0.056884765625
41, 108980673, -6.811845779418945, -0.7775500416755676, 7.1292219161987305, -2.367561101913452, -1.4425967931747437, -2.2747788429260254, 1.1171875, -0.39794921875, 0.056396484375
42, 108997340, -6.806098937988281, -0.7810981273651123, 7.130156517028809, -2.3578920364379883, -1.5571112632751465, -2.229623794555664, 1.119140625, -0.39892578125, 0.0546875
43, 109014007, -6.805725574493408, -0.7707979083061218, 7.134990215301514, -2.344356060028076, -1.4359759092330933, -2.2347464561462402, 1.118896484375, -0.400390625, 0.05419921875
44, 109030674, -6.8128814697265625, -0.7794132232666016, 7.128853797912598, -2.3216629028320312, -1.381472110748291, -2.1629796028137207, 1.119873046875, -0.397216796875, 0.05517578125
45, 109047341, -6.812939643859863, -0.7810860276222229, 7.136916637420654, -2.3748350143432617, -1.344244122505188, -2.0537285804748535, 1.118896484375, -0.39990234375, 0.054931640625
46, 109064008, -6.813899993896484, -0.7844061851501465, 7.133056163787842, -2.3765764236450195, -1.3774253129959106, -2.117363452911377, 1.11767578125, -0.3994140625, 0.057373046875
47, 109080675, -6.813077449798584, -0.7816833853721619, 7.154452800750732, -2.3536148071289062, -1.3028284311294556, -2.0648062229156494, 1.120849609375, -0.3984375, 0.056884765625
48, 109097342, -6.811384201049805, -0.7819823026657104, 7.117006301879883, -2.2696311473846436, -1.2807501554489136, -2.061758041381836, 1.11962890625, -0.397705078125, 0.056396484375
49, 109114009, -6.807524681091309, -0.7934696078300476, 7.1414899826049805, -2.184814453125, -1.4747023582458496, -1.9918739795684814, 1.1181640625, -0.3994140625, 0.058837890625
50, 109130676, -6.809314250946045, -0.7923496961593628, 7.134509563446045, -2.147214651107788, -1.5591856241226196, -1.917802095413208, 1.118896484375, -0.3994140625, 0.057861328125
51, 109147343, -6.830433368682861, -0.7652449607849121, 7.136678218841553, -2.1240994930267334, -1.6349737644195557, -1.9185832738876343, 1.117919921875, -0.40185546875, 0.056396484375
52, 109164010, -6.824950218200684, -0.775687575340271, 7.119576454162598, -2.222669839859009, -1.635306715965271, -1.960664987564087, 1.11865234375, -0.396728515625, 0.056884765625
53, 109180677, -6.799970626831055, -0.7902160882949829, 7.124553203582764, -2.2066237926483154, -1.7274484634399414, -1.9832680225372314, 1.11669921875, -0.400390625, 0.05517578125
54, 109197344, -6.796838283538818, -0.7858322262763977, 7.146484375, -2.2480907440185547, -1.6904127597808838, -1.9174823760986328, 1.119140625, -0.39892578125, 0.05517578125
55, 109214011, -6.802278518676758, -0.7819338440895081, 7.145610809326172, -2.196314573287964, -1.4573496580123901, -1.9036638736724854, 1.120361328125, -0.40185546875, 0.055419921875
56, 109230678, -6.814483642578125, -0.7759270668029785, 7.139016151428223, -2.2786850929260254, -1.3715471029281616, -1.9011280536651611, 1.118896484375, -0.400390625, 0.055908203125
57, 109247345, -6.8243608474731445, -0.7751930356025696, 7.138698577880859, -2.3285655975341797, -1.2862824201583862, -2.0039632320404053, 1.119873046875, -0.400390625, 0.0546875
58, 109264012, -6.824620246887207, -0.7756684422492981, 7.13991641998291, -2.289198875427246, -1.4922854900360107, -1.9859445095062256, 1.1181640625, -0.39892578125, 0.05517578125
59, 109280679, -6.811930179595947, -0.7879647016525269, 7.158609390258789, -2.2024359703063965, -1.6545802354812622, -1.970935583114624, 1.1181640625, -0.39892578125, 0.056884765625
60, 109297346, -6.7996602058410645, -0.7706626653671265, 7.142731666564941, -2.2879180908203125, -1.7360414266586304, -1.986994743347168, 1.121826171875, -0.3994140625, 0.057861328125
61, 109314013, -6.806240558624268, -0.7595908045768738, 7.137776851654053, -2.2525343894958496, -1.741010308265686, -2.064985513687134, 1.120361328125, -0.4013671875, 0.055908203125
62, 109330680, -6.821109294891357, -0.7487366199493408, 7.117419242858887, -2.3361856937408447, -1.629736304283142, -2.1756067276000977, 1.1181640625, -0.400390625, 0.056884765625
63, 109347347, -6.804757595062256, -0.7777082324028015, 7.164888858795166, -2.3928539752960205, -1.4953079223632812, -2.2018470764160156, 1.1171875, -0.39990234375, 0.0546875
64, 109364014, -6.808438777923584, -0.7647657990455627, 7.137263298034668, -2.421027660369873, -1.572005033493042, -2.1446025371551514, 1.119384765625, -0.40087890625, 0.057861328125
65, 109380681, -6.809747695922852, -0.7574159502983093, 7.137237071990967, -2.4201438426971436, -1.6190682649612427, -2.1437699794769287, 1.11865234375, -0.3994140625, 0.056396484375
66, 109397348, -6.815741539001465, -0.7715399265289307, 7.142807960510254, -2.399564266204834, -1.6332963705062866, -2.136009454727173, 1.119873046875, -0.400390625, 0.055419921875
67, 109414015, -6.821749687194824, -0.7660230398178101, 7.1366119384765625, -2.3696742057800293, -1.6124603748321533, -2.127288579940796, 1.1181640625, -0.39892578125, 0.057373046875
68, 109430682, -6.797149658203125, -0.7649109363555908, 7.123442649841309, -2.380303382873535, -1.5624643564224243, -2.200118064880371, 1.1181640625, -0.40087890625, 0.055419921875
69, 109447349, -6.828188419342041, -0.7693755030632019, 7.1526641845703125, -2.358558416366577, -1.5358145236968994, -2.226268768310547, 1.119384765625, -0.39990234375, 0.056396484375
70, 109464016, -6.81942892074585, -0.7671677470207214, 7.134826183319092, -2.492474317550659, -1.3470487594604492, -2.2003231048583984, 1.119384765625, -0.39892578125, 0.055419921875
71, 109480683, -6.828955173492432, -0.779843270778656, 7.139780044555664, -2.4729702472686768, -1.4084423780441284, -2.2468740940093994, 1.120849609375, -0.3994140625, 0.055908203125
72, 109497350, -6.8055877685546875, -0.7784866690635681, 7.143206596374512, -2.433116912841797, -1.4443130493164062, -2.272934913635254, 1.118896484375, -0.40087890625, 0.054931640625
73, 109514017, -6.816638946533203, -0.7693289518356323, 7.124063491821289, -2.4524543285369873, -1.5762054920196533, -2.3013010025024414, 1.118896484375, -0.3994140625, 0.055908203125
74, 109530684, -6.806113243103027, -0.7775428891181946, 7.106710433959961, -2.4362287521362305, -1.6098990440368652, -2.317411422729492, 1.119384765625, -0.4013671875, 0.057373046875
75, 109547351, -6.804201602935791, -0.7713937163352966, 7.137866497039795, -2.427579402923584, -1.6336207389831543, -2.261964797973633, 1.119384765625, -0.400390625, 0.055419921875
76, 109564018, -6.803898334503174, -0.7746738791465759, 7.1423749923706055, -2.47564697265625, -1.636203408241272, -2.2938733100891113, 1.120361328125, -0.3984375, 0.054931640625
77, 109580685, -6.797466278076172, -0.7682176828384399, 7.128796577453613, -2.443976402282715, -1.5704426765441895, -2.4627509117126465, 1.11865234375, -0.39892578125, 0.056396484375
78, 109597352, -6.810281753540039, -0.7684264779090881, 7.127673149108887, -2.465094804763794, -1.6247804164886475, -2.413766860961914, 1.11865234375, -0.39892578125, 0.056396484375
79, 109614019, -6.802615165710449, -0.7633645534515381, 7.135440826416016, -2.4342310428619385, -1.5542043447494507, -2.3985142707824707, 1.11865234375, -0.400390625, 0.055419921875
80, 109630686, -6.8096537590026855, -0.7806338667869568, 7.144484519958496, -2.5140275955200195, -1.4968576431274414, -2.4482414722442627, 1.11767578125, -0.39990234375, 0.05517578125
81, 109647353, -6.8099684715271, -0.7679917812347412, 7.130668640136719, -2.5540857315063477, -1.539092779159546, -2.422487735748291, 1.118896484375, -0.3994140625, 0.056884765625
82, 109664020, -6.806180477142334, -0.7840200066566467, 7.142558574676514, -2.58838152885437, -1.5694568157196045, -2.46631121635437, 1.1181640625, -0.400390625, 0.057861328125
83, 109680687, -6.809554100036621, -0.770781934261322, 7.142785549163818, -2.534684419631958, -1.545240044593811, -2.477132558822632, 1.1171875, -0.3994140625, 0.057861328125
84, 109697354, -6.806741237640381, -0.7815152406692505, 7.160058498382568, -2.4664132595062256, -1.5888326168060303, -2.3935964107513428, 1.119384765625, -0.3994140625, 0.057373046875
85, 109714021, -6.808268070220947, -0.7650890350341797, 7.132168769836426, -2.392789840698242, -1.5233283042907715, -2.383389949798584, 1.1181640625, -0.3994140625, 0.055419921875
86, 109730688, -6.8015851974487305, -0.780088484287262, 7.12230920791626, -2.4849185943603516, -1.566447138786316, -2.3884613513946533, 1.11865234375, -0.400390625, 0.05517578125
87, 109747355, -6.814321517944336, -0.7674772143363953, 7.144768714904785, -2.504192352294922, -1.549402117729187, -2.4122042655944824, 1.1181640625, -0.3994140625, 0.056396484375
88, 109764022, -6.8201398849487305, -0.7755508422851562, 7.143193244934082, -2.569504737854004, -1.5278362035751343, -2.415111541748047, 1.119384765625, -0.39990234375, 0.056396484375
89, 109780689, -6.812784671783447, -0.7579506635665894, 7.14267635345459, -2.5194828510284424, -1.5843504667282104, -2.415264844894409, 1.1181640625, -0.3994140625, 0.05517578125
90, 109797356, -6.809393405914307, -0.7878932952880859, 7.1248626708984375, -2.4813461303710938, -1.6282764673233032, -2.475313901901245, 1.118896484375, -0.40087890625, 0.055908203125
91, 109814023, -6.822206974029541, -0.7842844724655151, 7.124694347381592, -2.439135789871216, -1.5681504011154175, -2.414252996444702, 1.11865234375, -0.3994140625, 0.058349609375
92, 109830690, -6.816738605499268, -0.7796360850334167, 7.118983745574951, -2.521493673324585, -1.6234867572784424, -2.4178647994995117, 1.121337890625, -0.39990234375, 0.055908203125
93, 109847357, -6.821747303009033, -0.7799158692359924, 7.124687194824219, -2.4631223678588867, -1.6000511646270752, -2.3282458782196045, 1.119140625, -0.39892578125, 0.055908203125
94, 109864024, -6.804248332977295, -0.7789165377616882, 7.135318279266357, -2.449035406112671, -1.6612653732299805, -2.293104887008667, 1.119873046875, -0.397216796875, 0.055908203125
95, 109880691, -6.810872554779053, -0.7876342535018921, 7.135296821594238, -2.3948638439178467, -1.6891446113586426, -2.3136463165283203, 1.119873046875, -0.3994140625, 0.054931640625
96, 109897358, -6.806640148162842, -0.7829155325889587, 7.1272053718566895, -2.4569623470306396, -1.7086873054504395, -2.3159899711608887, 1.11767578125, -0.3984375, 0.056884765625
97, 109914025, -6.809158802032471, -0.786031186580658, 7.1421380043029785, -2.4345510005950928, -1.6570262908935547, -2.3680734634399414, 1.1181640625, -0.3984375, 0.057373046875
98, 109930692, -6.81507682800293, -0.7870580554008484, 7.1394805908203125, -2.3705575466156006, -1.7517805099487305, -2.3580970764160156, 1.11767578125, -0.40087890625, 0.05517578125
99, 109947359, -6.807499408721924, -0.7714456915855408, 7.150686740875244, -2.4644412994384766, -1.6672333478927612, -2.390613079071045, 1.119384765625, -0.39892578125, 0.0546875
100, 109964026, -6.812244892120361, -0.7826856374740601, 7.150110244750977, -2.3704681396484375, -1.6998894214630127, -2.3999483585357666, 1.1181640625, -0.39794921875, 0.0556640625
101, 109980693, -6.808568000793457, -0.7836585640907288, 7.142927646636963, -2.395658493041992, -1.740331768989563, -2.258810043334961, 1.11767578125, -0.400390625, 0.055419921875
102, 109997360, -6.806921482086182, -0.7936804890632629, 7.151425361633301, -2.2882771492004395, -1.7935421466827393, -2.302722692489624, 1.11865234375, -0.39990234375, 0.055419921875
103, 110014027, -6.8110880851745605, -0.7706906199455261, 7.15117883682251, -2.345252513885498, -1.821729063987732, -2.321561098098755, 1.1181640625, -0.39990234375, 0.055908203125
104, 110030694, -6.795366287231445, -0.7806522250175476, 7.149722576141357, -2.3572263717651367, -1.7693893909454346, -2.3617730140686035, 1.11865234375, -0.39990234375, 0.05419921875
105, 110047361, -6.799158096313477, -0.7816815376281738, 7.141801357269287, -2.3112640380859375, -1.562272071838379, -2.29254150390625, 1.1171875, -0.397216796875, 0.05517578125
106, 110064028, -6.802828311920166, -0.7739482522010803, 7.133789539337158, -2.389357566833496, -1.509958267211914, -2.349465847015381, 1.1171875, -0.39892578125, 0.05322265625
107, 110080695, -6.797972202301025, -0.7858240008354187, 7.149682998657227, -2.4381370544433594, -1.626432180404663, -2.272858142852783, 1.11865234375, -0.400390625, 0.055908203125
108, 110097362, -6.798673152923584, -0.8059373497962952, 7.137544631958008, -2.431938648223877, -1.604943037033081, -2.3786771297454834, 1.1171875, -0.400390625, 0.0537109375
109, 110114029, -6.805970191955566, -0.7856940627098083, 7.152552127838135, -2.4982244968414307, -1.6242293119430542, -2.3312809467315674, 1.119140625, -0.397216796875, 0.057373046875
110, 110130696, -6.812821388244629, -0.7644239068031311, 7.153277397155762, -2.4592673778533936, -1.5360063314437866, -2.352475166320801, 1.1181640625, -0.3994140625, 0.05517578125
111, 110147363, -6.8011932373046875, -0.7820614576339722, 7.134504318237305, -2.5190887451171875, -1.514721155166626, -2.3611316680908203, 1.119873046875, -0.397216796875, 0.055419921875
112, 110164030, -6.797557353973389, -0.7911955118179321, 7.146968841552734, -2.3782544136047363, -1.5521553754806519, -2.312135696411133, 1.1181640625, -0.39794921875, 0.0546875
113, 110180697, -6.786163806915283, -0.7909248471260071, 7.1258344650268555, -2.445333957672119, -1.4938733577728271, -2.309701919555664, 1.11767578125, -0.39892578125, 0.0556640625
114, 110197364, -6.797725200653076, -0.7783151865005493, 7.145618915557861, -2.4097964763641357, -1.498919129371643, -2.3139026165008545, 1.11767578125, -0.39990234375, 0.055908203125
115, 110214031, -6.807190895080566, -0.781998336315155, 7.126307487487793, -2.468052387237549, -1.5393359661102295, -2.273831367492676, 1.11767578125, -0.39892578125, 0.057861328125
116, 110230698, -6.8055315017700195, -0.7841600775718689, 7.175136566162109, -2.478515386581421, -1.4381787776947021, -2.2460546493530273, 1.11865234375, -0.39892578125, 0.0546875
117, 110247365, -6.793176174163818, -0.7734518051147461, 7.139599323272705, -2.4718689918518066, -1.436949372291565, -2.344484329223633, 1.11572265625, -0.397216796875, 0.0546875
118, 110264032, -6.798675060272217, -0.778035044670105, 7.135932445526123, -2.522428274154663, -1.542909026145935, -2.303849458694458, 1.120361328125, -0.3984375, 0.058349609375
119, 110280699, -6.805830955505371, -0.7893466949462891, 7.126282691955566, -2.419221878051758, -1.5207539796829224, -2.3726963996887207, 1.121337890625, -0.3984375, 0.056396484375
120, 110297366, -6.800787448883057, -0.7784755229949951, 7.145086765289307, -2.4641337394714355, -1.5056426525115967, -2.2941806316375732, 1.11767578125, -0.400390625, 0.056396484375
121, 110314033, -6.810291290283203, -0.790960431098938, 7.133153915405273, -2.441197633743286, -1.5486332178115845, -2.3149139881134033, 1.11865234375, -0.3994140625, 0.055908203125
122, 110330700, -6.803828716278076, -0.7966704964637756, 7.124474048614502, -2.43644642829895, -1.5104448795318604, -2.307678699493408, 1.120361328125, -0.39892578125, 0.0546875
123, 110347367, -6.800588607788086, -0.7782726883888245, 7.130791187286377, -2.424344778060913, -1.5467511415481567, -2.3707499504089355, 1.119140625, -0.39892578125, 0.05419921875
124, 110364034, -6.810434818267822, -0.7899156212806702, 7.119568824768066, -2.385643720626831, -1.5959528684616089, -2.2610251903533936, 1.118408203125, -0.40087890625, 0.055419921875
125, 110380701, -6.810659408569336, -0.7902334332466125, 7.141957759857178, -2.3783953189849854, -1.551822304725647, -2.383761167526245, 1.119384765625, -0.39990234375, 0.054931640625
126, 110397368, -6.805250644683838, -0.791481077671051, 7.125165939331055, -2.4636342525482178, -1.5379912853240967, -2.3203952312469482, 1.1171875, -0.3994140625, 0.055908203125
127, 110414035, -6.814081192016602, -0.7801600098609924, 7.130265235900879, -2.428340196609497, -1.5059499740600586, -2.278787851333618, 1.1181640625, -0.39794921875, 0.05517578125
128, 110430702, -6.801331520080566, -0.7832893133163452, 7.12760066986084, -2.5102109909057617, -1.5183848142623901, -2.3870906829833984, 1.119384765625, -0.3984375, 0.05419921875
129, 110447369, -6.797231674194336, -0.7916988730430603, 7.156613826751709, -2.3733112812042236, -1.5851956605911255, -2.254737138748169, 1.1181640625, -0.397705078125, 0.05419921875
130, 110464036, -6.809587001800537, -0.7912383675575256, 7.13991117477417, -2.405583143234253, -1.6523648500442505, -2.282641887664795, 1.1181640625, -0.39990234375, 0.055908203125
131, 110480703, -6.792328834533691, -0.7937350273132324, 7.144023418426514, -2.3742334842681885, -1.6301844120025635, -2.303055763244629, 1.1181640625, -0.39794921875, 0.056396484375
132, 110497370, -6.812249183654785, -0.7969269752502441, 7.12939977645874, -2.3429858684539795, -1.6827545166015625, -2.2156524658203125, 1.11669921875, -0.3994140625, 0.0546875
133, 110514037, -6.79992151260376, -0.7863245606422424, 7.1331329345703125, -2.347583055496216, -1.7241955995559692, -2.3504133224487305, 1.11767578125, -0.400390625, 0.05517578125
134, 110530704, -6.809416770935059, -0.7952682971954346, 7.1468400955200195, -2.411179304122925, -1.7128236293792725, -2.250638961791992, 1.119873046875, -0.39892578125, 0.056884765625
135, 110547371, -6.795248508453369, -0.7788307070732117, 7.124322891235352, -2.445180654525757, -1.657257080078125, -2.3175652027130127, 1.120361328125, -0.397705078125, 0.055419921875
136, 110564038, -6.798050403594971, -0.7796565294265747, 7.151494979858398, -2.471113681793213, -1.6633658409118652, -2.3081655502319336, 1.1181640625, -0.3984375, 0.05517578125
137, 110580705, -6.804880619049072, -0.7986863255500793, 7.130002498626709, -2.462174415588379, -1.6696406602859497, -2.3075504302978516, 1.119140625, -0.39794921875, 0.055419921875
138, 110597372, -6.785407543182373, -0.7884348034858704, 7.118526935577393, -2.415930986404419, -1.6778240203857422, -2.1208086013793945, 1.120849609375, -0.397705078125, 0.055908203125
139, 110614039, -6.7917985916137695, -0.7928569912910461, 7.15454626083374, -2.425330638885498, -1.6583328247070312, -2.244274616241455, 1.11962890625, -0.397705078125, 0.0537109375
140, 110630706, -6.806158542633057, -0.7822163701057434, 7.152803897857666, -2.3626182079315186, -1.6011395454406738, -2.154271364212036, 1.1162109375, -0.3984375, 0.0556640625
141, 110647373, -6.796699047088623, -0.7828150987625122, 7.140241622924805, -2.416686534881592, -1.5566760301589966, -2.3215482234954834, 1.119140625, -0.3984375, 0.05322265625
142, 110664040, -6.808876037597656, -0.8017101287841797, 7.134212017059326, -2.3553566932678223, -1.6854948997497559, -2.1521453857421875, 1.1181640625, -0.397216796875, 0.056884765625
143, 110680707, -6.80769681930542, -0.7919259667396545, 7.148329734802246, -2.3566503524780273, -1.7471064329147339, -2.207033634185791, 1.119384765625, -0.3994140625, 0.057861328125
144, 110697374, -6.80590295791626, -0.7760071754455566, 7.140474319458008, -2.3437159061431885, -1.7248361110687256, -2.295435905456543, 1.1162109375, -0.39794921875, 0.05517578125
145, 110714041, -6.798838138580322, -0.8025411367416382, 7.139644145965576, -2.414048194885254, -1.7948740720748901, -2.2197885513305664, 1.119140625, -0.39794921875, 0.056884765625
146, 110730708, -6.784311294555664, -0.7906609177589417, 7.154220104217529, -2.4500598907470703, -1.7300482988357544, -2.265315294265747, 1.119140625, -0.397216796875, 0.056396484375
147, 110747375, -6.790977478027344, -0.7830199003219604, 7.139120101928711, -2.3913142681121826, -1.6744705438613892, -2.331511974334717, 1.11865234375, -0.397216796875, 0.05419921875
148, 110764042, -6.796132564544678, -0.7898768186569214, 7.133397102355957, -2.4755570888519287, -1.5723766088485718, -2.318192720413208, 1.11669921875, -0.3984375, 0.0556640625
149, 110780709, -6.810063362121582, -0.7860240340232849, 7.141657829284668, -2.6010468006134033, -1.5167840719223022, -2.3587374687194824, 1.11767578125, -0.39990234375, 0.0546875
150, 110797376, -6.789206027984619, -0.7862674593925476, 7.145406723022461, -2.561231851577759, -1.5077046155929565, -2.409015655517578, 1.11865234375, -0.39794921875, 0.05517578125
151, 110814043, -6.801659107208252, -0.7866886854171753, 7.159257888793945, -2.493255376815796, -1.4585663080215454, -2.3581225872039795, 1.11865234375, -0.400390625, 0.05517578125
152, 110830710, -6.806299686431885, -0.8005774021148682, 7.143552303314209, -2.479667901992798, -1.581763505935669, -2.3361470699310303, 1.1181640625, -0.3994140625, 0.05517578125
153, 110847377, -6.79599666595459, -0.7974711060523987, 7.163947582244873, -2.4248569011688232, -1.5947237014770508, -2.2799017429351807, 1.119140625, -0.397705078125, 0.055908203125
154, 110864044, -6.795011043548584, -0.80002361536026, 7.134486675262451, -2.4115123748779297, -1.501505970954895, -2.218482255935669, 1.119873046875, -0.3984375, 0.0546875
155, 110880711, -6.795424461364746, -0.8117441534996033, 7.118473529815674, -2.386489152908325, -1.611948013305664, -2.221799612045288, 1.11767578125, -0.39892578125, 0.056396484375
156, 110897378, -6.8058576583862305, -0.7913913726806641, 7.1525468826293945, -2.382890462875366, -1.5656019449234009, -2.184609889984131, 1.1181640625, -0.3984375, 0.05322265625
157, 110914045, -6.813422203063965, -0.7816981077194214, 7.146615505218506, -2.3307557106018066, -1.5489921569824219, -2.2341318130493164, 1.1181640625, -0.39990234375, 0.052734375
158, 110930712, -6.794644355773926, -0.808858335018158, 7.137343883514404, -2.329449415206909, -1.650098204612732, -2.268465757369995, 1.11767578125, -0.3984375, 0.05419921875
159, 110947379, -6.811764240264893, -0.7961801290512085, 7.136684894561768, -2.327784538269043, -1.745479941368103, -2.2639451026916504, 1.11865234375, -0.3984375, 0.0537109375
160, 110964046, -6.807369709014893, -0.7938680648803711, 7.134873867034912, -2.327451705932617, -1.711287021636963, -2.250972032546997, 1.11572265625, -0.397216796875, 0.056640625
161, 110980713, -6.800013065338135, -0.7923948764801025, 7.142148017883301, -2.2699127197265625, -1.8723267316818237, -2.295947790145874, 1.1181640625, -0.3984375, 0.055908203125
162, 110997380, -6.785299777984619, -0.8041766285896301, 7.1419830322265625, -2.2842047214508057, -1.8272356986999512, -2.1390576362609863, 1.119140625, -0.396728515625, 0.056396484375
163, 111014047, -6.784464359283447, -0.8148831725120544, 7.11790132522583, -2.253162145614624, -1.9238214492797852, -2.1882338523864746, 1.120361328125, -0.39794921875, 0.05322265625
164, 111030714, -6.797487258911133, -0.797346293926239, 7.13507080078125, -2.2000925540924072, -2.0459299087524414, -2.0550992488861084, 1.1181640625, -0.39892578125, 0.055419921875
165, 111047381, -6.791094779968262, -0.7878531217575073, 7.134934902191162, -2.2199935913085938, -2.149738073348999, -2.0710556507110596, 1.1181640625, -0.397705078125, 0.05517578125
166, 111064048, -6.7967753410339355, -0.7796977758407593, 7.153247356414795, -2.2310967445373535, -2.0715808868408203, -2.0774974822998047, 1.1171875, -0.397216796875, 0.05322265625
167, 111080715, -6.79804801940918, -0.7910017371177673, 7.147592544555664, -2.2598342895507812, -1.924423098564148, -2.057481050491333, 1.11669921875, -0.3974609375, 0.052734375
168, 111097382, -6.793166160583496, -0.7885302901268005, 7.13345193862915, -2.295640468597412, -1.7244645357131958, -2.0575449466705322, 1.11669921875, -0.39794921875, 0.0556640625
169, 111114049, -6.801165580749512, -0.7852353453636169, 7.150210380554199, -2.2791075706481934, -1.7546875476837158, -2.078688383102417, 1.11767578125, -0.39892578125, 0.0556640625
170, 111130716, -6.7934889793396, -0.7970443367958069, 7.136211395263672, -2.306974172592163, -1.676171898841858, -2.0451483726501465, 1.11767578125, -0.39794921875, 0.05419921875
171, 111147383, -6.787353038787842, -0.7958213686943054, 7.15251350402832, -2.328258514404297, -1.7322126626968384, -2.1138033866882324, 1.119140625, -0.39794921875, 0.052734375
172, 111164050, -6.793681621551514, -0.788682758808136, 7.150501251220703, -2.3493378162384033, -1.7130926847457886, -2.160034656524658, 1.1181640625, -0.39892578125, 0.05322265625
173, 111180717, -6.7952141761779785, -0.787670910358429, 7.147231101989746, -2.207571268081665, -1.825852632522583, -2.0840799808502197, 1.11767578125, -0.39892578125, 0.0546875
174, 111197384, -6.800104141235352, -0.7750362753868103, 7.147538185119629, -2.289058208465576, -1.6182870864868164, -2.0455713272094727, 1.11767578125, -0.39794921875, 0.0537109375
175, 111214051, -6.798694610595703, -0.790543794631958, 7.156444549560547, -2.285421133041382, -1.7275639772415161, -1.9661462306976318, 1.1181640625, -0.39990234375, 0.05419921875
176, 111230718, -6.791201114654541, -0.7880584597587585, 7.153203010559082, -2.3004300594329834, -1.6614445447921753, -1.9734455347061157, 1.118896484375, -0.39990234375, 0.05322265625
177, 111247385, -6.798008441925049, -0.7657692432403564, 7.176510810852051, -2.4692180156707764, -1.5160412788391113, -2.014054775238037, 1.11669921875, -0.39892578125, 0.05517578125
178, 111264052, -6.800134658813477, -0.7989417910575867, 7.141250133514404, -2.495957612991333, -1.4825016260147095, -2.07871413230896, 1.11767578125, -0.400390625, 0.052734375
179, 111280719, -6.792146682739258, -0.7907705903053284, 7.1497931480407715, -2.3121864795684814, -1.432607889175415, -1.9405460357666016, 1.1181640625, -0.39892578125, 0.05419921875
180, 111297386, -6.794267654418945, -0.7841148972511292, 7.1545844078063965, -2.311443567276001, -1.523007869720459, -1.8965435028076172, 1.1171875, -0.39892578125, 0.0556640625
181, 111314053, -6.802463054656982, -0.7761054635047913, 7.154609203338623, -2.2678635120391846, -1.534584879875183, -1.9646475315093994, 1.118896484375, -0.40087890625, 0.0537109375
182, 111330720, -6.802499771118164, -0.7763373255729675, 7.144087314605713, -2.317603349685669, -1.5638856887817383, -2.0149126052856445, 1.11767578125, -0.3984375, 0.05419921875
183, 111347387, -6.788921356201172, -0.7685906291007996, 7.174190521240234, -2.321690320968628, -1.486433506011963, -2.0878474712371826, 1.1171875, -0.39892578125, 0.0556640625
184, 111364054, -6.786165237426758, -0.7773070931434631, 7.15728759765625, -2.2882254123687744, -1.4935531616210938, -2.1265451908111572, 1.11865234375, -0.400390625, 0.055908203125
185, 111380721, -6.787859916687012, -0.7786960005760193, 7.159235000610352, -2.34379243850708, -1.4612300395965576, -2.2004125118255615, 1.11767578125, -0.39892578125, 0.05322265625
186, 111397388, -6.790463924407959, -0.7776448130607605, 7.160617828369141, -2.442324638366699, -1.5310503244400024, -2.2071616649627686, 1.1171875, -0.397216796875, 0.056884765625
187, 111414055, -6.788087368011475, -0.7844361662864685, 7.149446964263916, -2.4020485877990723, -1.479325532913208, -2.2350924015045166, 1.119140625, -0.39794921875, 0.0537109375
188, 111430722, -6.787689208984375, -0.7847041487693787, 7.1385884284973145, -2.416942834854126, -1.4241430759429932, -2.2633047103881836, 1.11767578125, -0.39990234375, 0.0537109375
189, 111447389, -6.799206256866455, -0.7756146788597107, 7.142632961273193, -2.515423536300659, -1.4182264804840088, -2.2730631828308105, 1.1171875, -0.39892578125, 0.0537109375
190, 111464056, -6.796086311340332, -0.7860922813415527, 7.148124694824219, -2.541548252105713, -1.4101969003677368, -2.2674667835235596, 1.11669921875, -0.3994140625, 0.0537109375
191, 111480723, -6.803419589996338, -0.7725809216499329, 7.130927562713623, -2.506586790084839, -1.4130910634994507, -2.243352174758911, 1.1171875, -0.400390625, 0.05419921875
192, 111497390, -6.80195426940918, -0.7796314358711243, 7.143723011016846, -2.503769636154175, -1.4411882162094116, -2.228189706802368, 1.119140625, -0.39892578125, 0.055419921875
193, 111514057, -6.780165195465088, -0.7822439074516296, 7.155293941497803, -2.3847856521606445, -1.5464179515838623, -2.321457862854004, 1.1181640625, -0.400390625, 0.05419921875
194, 111530724, -6.800580978393555, -0.7803863286972046, 7.151037693023682, -2.3871421813964844, -1.6128062009811401, -2.2552242279052734, 1.11865234375, -0.3994140625, 0.05419921875
195, 111547391, -6.805507183074951, -0.7727647423744202, 7.16165018081665, -2.475416660308838, -1.653415322303772, -2.38094425201416, 1.1171875, -0.3974609375, 0.0546875
196, 111564058, -6.793112754821777, -0.7694005966186523, 7.144834041595459, -2.408477544784546, -1.6678863763809204, -2.3969645500183105, 1.119140625, -0.39794921875, 0.0537109375
197, 111580725, -6.800293922424316, -0.7989155650138855, 7.145280838012695, -2.4267778396606445, -1.6935118436813354, -2.3533589839935303, 1.1162109375, -0.3984375, 0.05517578125
198, 111597392, -6.793550968170166, -0.7751402258872986, 7.14613151550293, -2.3879873752593994, -1.6825367212295532, -2.333714008331299, 1.118896484375, -0.3994140625, 0.055419921875
199, 111614059, -6.796989917755127, -0.7757182717323303, 7.151138782501221, -2.506638526916504, -1.6422098875045776, -2.4166100025177, 1.1181640625, -0.39990234375, 0.0537109375
200, 111630726, -6.795985698699951, -0.7856090068817139, 7.14857292175293, -2.5031039714813232, -1.5047975778579712, -2.523069143295288, 1.11767578125, -0.3984375, 0.0546875
201, 111647393, -6.795828342437744, -0.7702106237411499, 7.181357383728027, -2.4723429679870605, -1.5988216400146484, -2.4759414196014404, 1.1181640625, -0.39892578125, 0.0537109375
202, 111664060, -6.796996116638184, -0.7725942134857178, 7.160567283630371, -2.4678475856781006, -1.6895546913146973, -2.3628997802734375, 1.11865234375, -0.39794921875, 0.0537109375
203, 111680727, -6.797633647918701, -0.790142297744751, 7.161538124084473, -2.4811408519744873, -1.6098991632461548, -2.449483633041382, 1.1181640625, -0.39892578125, 0.05419921875
204, 111697394, -6.790895462036133, -0.7788081169128418, 7.144650459289551, -2.4793479442596436, -1.5514895915985107, -2.4778881072998047, 1.119384765625, -0.39794921875, 0.0546875
205, 111714061, -6.7886528968811035, -0.7813395857810974, 7.166109085083008, -2.4969568252563477, -1.5833646059036255, -2.549027442932129, 1.11865234375, -0.400390625, 0.05517578125
206, 111730728, -6.7965240478515625, -0.7953943014144897, 7.1469407081604, -2.526193857192993, -1.6384445428848267, -2.52793550491333, 1.119140625, -0.39892578125, 0.05322265625
207, 111747395, -6.788497447967529, -0.7895609140396118, 7.159420013427734, -2.532007932662964, -1.4808624982833862, -2.5030272006988525, 1.11767578125, -0.3984375, 0.05419921875
208, 111764062, -6.789099216461182, -0.7825661897659302, 7.158210754394531, -2.534466505050659, -1.5139926671981812, -2.4557461738586426, 1.1181640625, -0.397216796875, 0.05517578125
209, 111780729, -6.798044681549072, -0.7859819531440735, 7.130558490753174, -2.533339738845825, -1.5096895694732666, -2.530829429626465, 1.11669921875, -0.3984375, 0.05419921875
210, 111797396, -6.7933125495910645, -0.7918723821640015, 7.133619785308838, -2.5046021938323975, -1.5950181484222412, -2.4943056106567383, 1.119384765625, -0.39892578125, 0.0546875
211, 111814063, -6.780964374542236, -0.7923154234886169, 7.164074420928955, -2.525681495666504, -1.568137764930725, -2.455848217010498, 1.11669921875, -0.396728515625, 0.0546875
212, 111830730, -6.795220851898193, -0.7935754060745239, 7.169568061828613, -2.5419325828552246, -1.4155627489089966, -2.4494707584381104, 1.11767578125, -0.3984375, 0.05322265625
213, 111847397, -6.806767463684082, -0.8062135577201843, 7.153029918670654, -2.538295269012451, -1.4126298427581787, -2.419362783432007, 1.11767578125, -0.39892578125, 0.0537109375
214, 111864064, -6.786336898803711, -0.8031010031700134, 7.156093120574951, -2.5564165115356445, -1.307874083518982, -2.3802907466888428, 1.1162109375, -0.396728515625, 0.05517578125
215, 111880731, -6.775693416595459, -0.8045530915260315, 7.160109519958496, -2.614736795425415, -1.2786502838134766, -2.500568389892578, 1.1171875, -0.3974609375, 0.0556640625
216, 111897398, -6.8049750328063965, -0.7981513738632202, 7.1376633644104, -2.658982753753662, -1.1699882745742798, -2.4629688262939453, 1.11865234375, -0.396728515625, 0.057373046875
217, 111914065, -6.802137851715088, -0.7922128438949585, 7.123928546905518, -2.6136996746063232, -1.2592997550964355, -2.4736363887786865, 1.119384765625, -0.39794921875, 0.056884765625
218, 111930732, -6.799574375152588, -0.8087497353553772, 7.143900394439697, -2.6098830699920654, -1.4355664253234863, -2.4916679859161377, 1.11669921875, -0.396728515625, 0.0537109375
219, 111947399, -6.803521633148193, -0.8057180047035217, 7.143788814544678, -2.494501829147339, -1.5256314277648926, -2.363321304321289, 1.1162109375, -0.3974609375, 0.0546875
220, 111964066, -6.794652938842773, -0.801241934299469, 7.167513847351074, -2.481051206588745, -1.528015375137329, -2.3447916507720947, 1.11865234375, -0.396728515625, 0.05419921875
221, 111980733, -6.790833473205566, -0.8107345700263977, 7.1455912590026855, -2.4673993587493896, -1.3773996829986572, -2.3810460567474365, 1.115234375, -0.3984375, 0.056640625
222, 111997400, -6.792688846588135, -0.8111421465873718, 7.141434192657471, -2.499415397644043, -1.4723845720291138, -2.374925136566162, 1.1171875, -0.3974609375, 0.05517578125
223, 112014067, -6.805008888244629, -0.7955426573753357, 7.137024879455566, -2.387859582901001, -1.656104326248169, -2.303452730178833, 1.1181640625, -0.3984375, 0.0546875
224, 112030734, -6.78852653503418, -0.7944307327270508, 7.144804000854492, -2.364769458770752, -1.6422224044799805, -2.340975522994995, 1.11865234375, -0.3984375, 0.0546875
225, 112047401, -6.800182342529297, -0.791418731212616, 7.14539098739624, -2.5138611793518066, -1.543229341506958, -2.3957738876342773, 1.1171875, -0.3994140625, 0.0537109375
226, 112064068, -6.795718193054199, -0.8161590695381165, 7.126281261444092, -2.5369768142700195, -1.5177191495895386, -2.398578405380249, 1.1171875, -0.396240234375, 0.0537109375
227, 112080735, -6.805848121643066, -0.7973185777664185, 7.146894454956055, -2.4327967166900635, -1.6359857320785522, -2.32637619972229, 1.11865234375, -0.397705078125, 0.0546875
228, 112097402, -6.791685581207275, -0.7828060388565063, 7.1526618003845215, -2.461521625518799, -1.657410740852356, -2.3108420372009277, 1.1181640625, -0.395751953125, 0.05517578125
229, 112114069, -6.813128471374512, -0.7945095896720886, 7.146376132965088, -2.4374454021453857, -1.6315034627914429, -2.3479673862457275, 1.11767578125, -0.3974609375, 0.05419921875
230, 112130736, -6.7986626625061035, -0.7902384400367737, 7.161535739898682, -2.4446940422058105, -1.7552000284194946, -2.3804187774658203, 1.11865234375, -0.397216796875, 0.055908203125
231, 112147403, -6.810725212097168, -0.8080658912658691, 7.151378631591797, -2.448535442352295, -1.6780543327331543, -2.3715436458587646, 1.1181640625, -0.39892578125, 0.05322265625
232, 112164070, -6.796051979064941, -0.7996684908866882, 7.164251327514648, -2.3502466678619385, -1.7694789171218872, -2.3678812980651855, 1.119384765625, -0.3984375, 0.05517578125
233, 112180737, -6.782963752746582, -0.7705294489860535, 7.15431547164917, -2.3997690677642822, -1.7687875032424927, -2.552715301513672, 1.1171875, -0.397216796875, 0.05419921875
234, 112197404, -6.797552108764648, -0.7894248962402344, 7.172815799713135, -2.6271071434020996, -1.5460338592529297, -2.7305314540863037, 1.11865234375, -0.397705078125, 0.05517578125
235, 112214071, -6.802463054656982, -0.8125598430633545, 7.147364616394043, -2.672736406326294, -1.3238818645477295, -2.794255495071411, 1.11865234375, -0.396728515625, 0.0556640625
236, 112230738, -6.798550128936768, -0.8256174921989441, 7.147273063659668, -2.710989475250244, -1.2396931648254395, -2.7354624271392822, 1.11669921875, -0.396728515625, 0.0537109375
237, 112247405, -6.786554336547852, -0.8338410258293152, 7.133302211761475, -2.6942389011383057, -1.2674574851989746, -2.579468250274658, 1.1181640625, -0.395263671875, 0.0537109375
238, 112264072, -6.792492389678955, -0.815546989440918, 7.139309883117676, -2.582029104232788, -1.3626084327697754, -2.5025529861450195, 1.11767578125, -0.395263671875, 0.05419921875
239, 112280739, -6.797557830810547, -0.8117725253105164, 7.141297340393066, -2.4069406986236572, -1.5553953647613525, -2.2743566036224365, 1.11767578125, -0.3974609375, 0.0556640625
240, 112297406, -6.797019004821777, -0.8055390119552612, 7.1588592529296875, -2.4144837856292725, -1.604981541633606, -2.298227548599243, 1.1181640625, -0.397216796875, 0.056396484375
241, 112314073, -6.797138690948486, -0.799807608127594, 7.163697242736816, -2.461982488632202, -1.5219706296920776, -2.4262654781341553, 1.1181640625, -0.395751953125, 0.05419921875
242, 112330740, -6.810418128967285, -0.8123441338539124, 7.141260623931885, -2.516550302505493, -1.4608972072601318, -2.334789752960205, 1.11962890625, -0.397216796875, 0.0537109375
243, 112347407, -6.785821437835693, -0.8254504203796387, 7.158501148223877, -2.5335569381713867, -1.3689987659454346, -2.3311398029327393, 1.11865234375, -0.396728515625, 0.056884765625
244, 112364074, -6.810881614685059, -0.7995897531509399, 7.138771057128906, -2.515115976333618, -1.4989064931869507, -2.275265693664551, 1.11767578125, -0.395263671875, 0.0556640625
245, 112380741, -6.788938045501709, -0.8052258491516113, 7.1435675621032715, -2.512669801712036, -1.4977153539657593, -2.332484483718872, 1.1181640625, -0.396728515625, 0.05517578125
246, 112397408, -6.793930530548096, -0.8106244206428528, 7.160323619842529, -2.3529107570648193, -1.562413215637207, -2.269029140472412, 1.1181640625, -0.393798828125, 0.05517578125
247, 112414075, -6.792043685913086, -0.8078756332397461, 7.135516166687012, -2.33650541305542, -1.6231279373168945, -2.2777373790740967, 1.1181640625, -0.396728515625, 0.05419921875
248, 112430742, -6.796089172363281, -0.7907118201255798, 7.126785755157471, -2.3228158950805664, -1.7586705684661865, -2.3891141414642334, 1.119140625, -0.397705078125, 0.0546875
249, 112447409, -6.797095775604248, -0.8047969341278076, 7.171223163604736, -2.4097704887390137, -1.5915602445602417, -2.437342882156372, 1.1171875, -0.396728515625, 0.0556640625
250, 112464076, -6.80300760269165, -0.8141590356826782, 7.166893482208252, -2.5074450969696045, -1.2718756198883057, -2.504371404647827, 1.11865234375, -0.394775390625, 0.0556640625
251, 112480743, -6.818603038787842, -0.8023820519447327, 7.142266273498535, -2.667306900024414, -1.125345230102539, -2.5884711742401123, 1.119140625, -0.396728515625, 0.05419921875
252, 112497410, -6.786970138549805, -0.8334097862243652, 7.132152080535889, -2.625225067138672, -1.21646249294281, -2.612623691558838, 1.11767578125, -0.394775390625, 0.0546875
253, 112514077, -6.79904317855835, -0.832243025302887, 7.155991554260254, -2.5497190952301025, -1.3560774326324463, -2.5212504863739014, 1.11865234375, -0.396728515625, 0.0546875
254, 112530744, -6.803966522216797, -0.8328245282173157, 7.1469597816467285, -2.4992613792419434, -1.3452683687210083, -2.4600229263305664, 1.1181640625, -0.396240234375, 0.055908203125
255, 112547411, -6.785376071929932, -0.8357046842575073, 7.137524604797363, -2.5798635482788086, -1.3797630071640015, -2.409255027770996, 1.120849609375, -0.396240234375, 0.0546875
256, 112564078, -6.7845354080200195, -0.8271567821502686, 7.142255783081055, -2.551114559173584, -1.437640905380249, -2.329436779022217, 1.119140625, -0.397705078125, 0.0537109375
257, 112580745, -6.800687789916992, -0.8108700513839722, 7.133429050445557, -2.5350165367126465, -1.4097100496292114, -2.4285833835601807, 1.11865234375, -0.395263671875, 0.05517578125
258, 112597412, -6.795474052429199, -0.8157042860984802, 7.136807918548584, -2.5560450553894043, -1.4271397590637207, -2.3497731685638428, 1.11962890625, -0.396240234375, 0.057861328125
259, 112614079, -6.78613805770874, -0.8295953273773193, 7.125853538513184, -2.554072380065918, -1.4691059589385986, -2.3728115558624268, 1.11865234375, -0.394775390625, 0.05419921875
260, 112630746, -6.796257972717285, -0.8224232792854309, 7.135505199432373, -2.339259147644043, -1.706113338470459, -2.2983171939849854, 1.1181640625, -0.394287109375, 0.0556640625
261, 112647413, -6.8048834800720215, -0.8059494495391846, 7.153367042541504, -2.303170919418335, -1.7646126747131348, -2.266545057296753, 1.11865234375, -0.396728515625, 0.0556640625
262, 112664080, -6.8143792152404785, -0.7981704473495483, 7.142413139343262, -2.331434488296509, -1.7144501209259033, -2.24246883392334, 1.119140625, -0.395263671875, 0.0556640625
263, 112680747, -6.807376384735107, -0.8185095191001892, 7.136361598968506, -2.3440873622894287, -1.6490097045898438, -2.270181894302368, 1.11865234375, -0.395263671875, 0.05517578125
264, 112697414, -6.786019802093506, -0.8101924657821655, 7.15416145324707, -2.35593318939209, -1.6687699556350708, -2.397080183029175, 1.1171875, -0.396240234375, 0.056396484375
265, 112714081, -6.789658546447754, -0.8071712851524353, 7.161125659942627, -2.438610792160034, -1.5766923427581787, -2.410193681716919, 1.11865234375, -0.397216796875, 0.056396484375
266, 112730748, -6.792133331298828, -0.839518666267395, 7.14705228805542, -2.4751088619232178, -1.5844017267227173, -2.308126926422119, 1.11865234375, -0.394287109375, 0.0546875
267, 112747415, -6.802579879760742, -0.8491273522377014, 7.1496171951293945, -2.4212708473205566, -1.740779995918274, -2.244953155517578, 1.1181640625, -0.396240234375, 0.05419921875
268, 112764082, -6.7900614738464355, -0.8426932692527771, 7.151292324066162, -2.301236867904663, -1.916021704673767, -2.1231257915496826, 1.119140625, -0.396728515625, 0.05322265625
269, 112780749, -6.7924723625183105, -0.8400214314460754, 7.152608871459961, -2.146164894104004, -2.065523386001587, -1.9462064504623413, 1.11865234375, -0.395751953125, 0.0537109375
270, 112797416, -6.776588439941406, -0.8110960721969604, 7.16591215133667, -2.0900089740753174, -1.9962408542633057, -1.784270167350769, 1.120361328125, -0.396240234375, 0.05517578125
271, 112814083, -6.800004005432129, -0.797060489654541, 7.139941215515137, -2.217329978942871, -1.7909551858901978, -1.8835326433181763, 1.1181640625, -0.396240234375, 0.0556640625
272, 112830750, -6.799391746520996, -0.8084086179733276, 7.133412837982178, -2.222926139831543, -1.6871724128723145, -1.9285850524902344, 1.1181640625, -0.395751953125, 0.05615234375
273, 112847417, -6.801838397979736, -0.8237951397895813, 7.1225481033325195, -2.160175085067749, -1.7517294883728027, -1.8362385034561157, 1.119140625, -0.396240234375, 0.0546875
274, 112864084, -6.796537399291992, -0.8049320578575134, 7.134554862976074, -2.125239133834839, -1.8116886615753174, -1.9209907054901123, 1.11669921875, -0.392822265625, 0.05517578125
275, 112880751, -6.787887096405029, -0.796790361404419, 7.13709831237793, -2.2191357612609863, -1.9471546411514282, -2.016218900680542, 1.11572265625, -0.395263671875, 0.05615234375
276, 112897418, -6.790715217590332, -0.799979031085968, 7.168724536895752, -2.2699127197265625, -1.9049702882766724, -2.0802505016326904, 1.1171875, -0.3974609375, 0.052734375
277, 112914085, -6.789065361022949, -0.8139327764511108, 7.1507086753845215, -2.381481885910034, -1.6951767206192017, -2.1850454807281494, 1.11767578125, -0.396240234375, 0.0537109375
278, 112930752, -6.783425331115723, -0.7979226112365723, 7.148916721343994, -2.5517163276672363, -1.5646926164627075, -2.214512586593628, 1.11767578125, -0.395751953125, 0.05322265625
279, 112947419, -6.794441223144531, -0.8189767599105835, 7.1435627937316895, -2.3943135738372803, -1.5384013652801514, -2.1833677291870117, 1.11767578125, -0.395751953125, 0.05517578125
280, 112964086, -6.798684597015381, -0.8275123238563538, 7.170443058013916, -2.352962017059326, -1.7263600826263428, -2.0982439517974854, 1.1171875, -0.393798828125, 0.0537109375
281, 112980753, -6.798470973968506, -0.7955653667449951, 7.159989356994629, -2.3380932807922363, -1.6870571374893188, -2.0750768184661865, 1.11767578125, -0.397216796875, 0.05224609375
282, 112997420, -6.799007892608643, -0.7956147193908691, 7.1689348220825195, -2.4293007850646973, -1.6600615978240967, -2.0408456325531006, 1.11865234375, -0.396728515625, 0.0556640625
283, 113014087, -6.787235736846924, -0.8015639781951904, 7.134385585784912, -2.494805097579956, -1.5865659713745117, -2.229700803756714, 1.1171875, -0.396240234375, 0.05322265625
284, 113030754, -6.777829170227051, -0.8258582353591919, 7.139354228973389, -2.583822250366211, -1.5167328119277954, -2.31563138961792, 1.1181640625, -0.395751953125, 0.05419921875
285, 113047421, -6.7914910316467285, -0.8004158735275269, 7.1607561111450195, -2.768541097640991, -1.4470280408859253, -2.3897032737731934, 1.1181640625, -0.396728515625, 0.05517578125
286, 113064088, -6.788642406463623, -0.8068671226501465, 7.1331257820129395, -2.7801053524017334, -1.1417759656906128, -2.4762487411499023, 1.11767578125, -0.394775390625, 0.05615234375
287, 113080755, -6.798282623291016, -0.8184897303581238, 7.147705554962158, -2.8420238494873047, -1.0091403722763062, -2.4379706382751465, 1.1181640625, -0.397216796875, 0.050048828125
288, 113097422, -6.800164222717285, -0.831132709980011, 7.131584167480469, -2.761791944503784, -1.139957308769226, -2.4438741207122803, 1.11572265625, -0.395263671875, 0.05419921875
289, 113114089, -6.79619026184082, -0.823832631111145, 7.15527868270874, -2.9011764526367188, -1.1066480875015259, -2.4864299297332764, 1.1201171875, -0.396240234375, 0.05517578125
290, 113130756, -6.775874137878418, -0.802766740322113, 7.132199764251709, -2.9194254875183105, -0.8280202746391296, -2.52351713180542, 1.119140625, -0.395263671875, 0.05517578125
291, 113147423, -6.794206619262695, -0.8051130175590515, 7.152673244476318, -3.1687538623809814, -0.42659229040145874, -2.67449688911438, 1.1181640625, -0.394775390625, 0.05517578125
292, 113164090, -6.809414863586426, -0.7859331369400024, 7.164586544036865, -3.3974480628967285, -0.10558834671974182, -2.921922445297241, 1.11669921875, -0.393310546875, 0.05615234375
293, 113180757, -6.8045878410339355, -0.8070868253707886, 7.149341106414795, -3.413161516189575, -0.12029004842042923, -3.110163450241089, 1.11865234375, -0.396240234375, 0.056884765625
294, 113197424, -6.811323642730713, -0.8271998167037964, 7.138994216918945, -3.403057336807251, -0.15007762610912323, -3.14340877532959, 1.11962890625, -0.395751953125, 0.057373046875
295, 113214091, -6.813231945037842, -0.8354267477989197, 7.133206844329834, -3.2824602127075195, -0.4150410592556, -3.11472225189209, 1.11962890625, -0.393310546875, 0.05517578125
296, 113230758, -6.819825172424316, -0.8513239026069641, 7.110292911529541, -2.971815824508667, -0.7337141633033752, -3.0007071495056152, 1.11865234375, -0.393310546875, 0.056884765625
297, 113247425, -6.800062656402588, -0.8629186749458313, 7.12453556060791, -2.885558843612671, -1.0010915994644165, -2.7813405990600586, 1.1181640625, -0.393798828125, 0.05517578125
298, 113264092, -6.822761058807373, -0.849664032459259, 7.12540340423584, -2.8061017990112305, -1.0854790210723877, -2.7974443435668945, 1.1162109375, -0.392333984375, 0.05712890625
299, 113280759, -6.789602279663086, -0.8412997722625732, 7.1406474113464355, -2.670790195465088, -1.1042532920837402, -2.6915106773376465, 1.11962890625, -0.393798828125, 0.056884765625
300, 113297426, -6.797842502593994, -0.8551950454711914, 7.136390209197998, -2.6561012268066406, -1.1168161630630493, -2.6613903045654297, 1.12060546875, -0.393310546875, 0.057373046875
301, 113314093, -6.808651447296143, -0.8685624599456787, 7.131516933441162, -2.604555130004883, -1.1477433443069458, -2.4445910453796387, 1.1181640625, -0.392333984375, 0.05615234375
302, 113330760, -6.819400787353516, -0.8403544425964355, 7.1317667961120605, -2.664476156234741, -1.0105360746383667, -2.310009241104126, 1.12060546875, -0.393310546875, 0.057861328125
303, 113347427, -6.843393802642822, -0.8390904068946838, 7.094980716705322, -2.296422004699707, -1.1770957708358765, -1.7850005626678467, 1.11767578125, -0.39111328125, 0.058349609375
304, 113364094, -6.8483357429504395, -0.9205185174942017, 7.108109474182129, -1.5842350721359253, -1.9689120054244995, -1.0812656879425049, 1.11767578125, -0.393310546875, 0.056640625
305, 113380761, -6.81018590927124, -0.8172250390052795, 7.154937267303467, -1.5381195545196533, -1.6028684377670288, -0.433110773563385, 1.11962890625, -0.392822265625, 0.058349609375
306, 113397428, -6.797934532165527, -0.9032882452011108, 7.121422290802002, -1.4057146310806274, -0.6486928462982178, 0.07616576552391052, 1.11767578125, -0.395751953125, 0.05517578125
307, 113414095, -6.766051769256592, -0.9673783779144287, 7.081923007965088, -1.0784482955932617, -1.0254427194595337, 1.0893784761428833, 1.120849609375, -0.396728515625, 0.058349609375
308, 113430762, -6.762516021728516, -0.9569907188415527, 7.121017932891846, -0.4449694752693176, -1.0341126918792725, 2.0579354763031006, 1.121337890625, -0.397216796875, 0.057861328125
309, 113447429, -6.754504680633545, -0.8860777616500854, 7.139198303222656, -0.0784388929605484, -0.10325760394334793, 3.030897855758667, 1.11865234375, -0.397705078125, 0.058349609375
310, 113464096, -6.798429489135742, -0.7837734222412109, 7.148197174072266, -0.3282267451286316, 0.7949734330177307, 3.2666118144989014, 1.120361328125, -0.40234375, 0.058349609375
311, 113480763, -6.857409477233887, -0.6611533164978027, 7.132108211517334, -1.0393506288528442, 1.9437668323516846, 2.551697015762329, 1.122314453125, -0.4013671875, 0.0595703125
312, 113497430, -6.942712783813477, -0.5628420114517212, 7.08527946472168, -2.448817253112793, 2.0686287879943848, 0.5618336796760559, 1.122314453125, -0.4013671875, 0.0615234375
313, 113514097, -6.929718971252441, -0.5143789052963257, 7.13469934463501, -3.3306119441986084, 1.087765097618103, -1.9684131145477295, 1.120361328125, -0.40234375, 0.0625
314, 113530764, -6.903694152832031, -0.5643590688705444, 7.0765604972839355, -3.7904365062713623, 0.08740974962711334, -4.112964630126953, 1.120361328125, -0.40234375, 0.060546875
315, 113547431, -6.881525993347168, -0.7001379132270813, 7.057743549346924, -3.7762093544006348, -1.5381840467453003, -5.6570916175842285, 1.122802734375, -0.39990234375, 0.0625
316, 113564098, -6.859118461608887, -0.7654861211776733, 7.005343914031982, -2.866240978240967, -4.64533805847168, -6.406595230102539, 1.121826171875, -0.39892578125, 0.060546875
317, 113580765, -6.793005466461182, -0.5819361805915833, 7.074748992919922, -2.1906044483184814, -8.425583839416504, -7.54194450378418, 1.120361328125, -0.39990234375, 0.060546875
318, 113597432, -6.749570846557617, -0.7736093997955322, 7.013792514801025, -1.9161385297775269, -10.520794868469238, -8.164053916931152, 1.119873046875, -0.39794921875, 0.058349609375
319, 113614099, -6.566041469573975, -1.0449864864349365, 6.913850784301758, -0.4374651312828064, -11.484894752502441, -5.692873477935791, 1.11669921875, -0.395751953125, 0.05615234375
320, 113630766, -6.687335968017578, -1.2423559427261353, 7.084527969360352, 1.0591431856155396, -8.87950325012207, -1.1414175033569336, 1.11669921875, -0.395751953125, 0.0537109375
321, 113647433, -6.839937686920166, -0.9506065845489502, 7.175654411315918, 1.432973027229309, -5.8443450927734375, 2.1090331077575684, 1.1142578125, -0.39892578125, 0.052734375
322, 113664100, -6.742774486541748, -0.8276273608207703, 7.322540760040283, 1.9714288711547852, -5.479914665222168, 2.60077166557312, 1.11474609375, -0.39892578125, 0.051025390625
323, 113680767, -6.835493564605713, -0.7699459791183472, 7.39310359954834, 2.5615837574005127, -3.165780782699585, 2.6091079711914062, 1.115234375, -0.400390625, 0.051513671875
324, 113697434, -6.8624162673950195, -0.881646990776062, 7.229475975036621, 1.6019140481948853, -2.143244981765747, 1.747291922569275, 1.1162109375, -0.39892578125, 0.050537109375
325, 113714101, -6.829511642456055, -0.786648154258728, 7.146859645843506, 1.1314858198165894, -3.2253305912017822, 1.7651313543319702, 1.115234375, -0.40185546875, 0.0546875
326, 113730768, -6.83404016494751, -0.6097079515457153, 7.155900001525879, 0.44235050678253174, -3.920663833618164, 1.0868172645568848, 1.11376953125, -0.400390625, 0.052001953125
327, 113747435, -6.713450908660889, -0.49208712577819824, 7.229634761810303, -2.080458879470825, -2.800926685333252, -1.1523102521896362, 1.112548828125, -0.39990234375, 0.052001953125
328, 113764102, -6.636235237121582, -0.7706447243690491, 7.239899635314941, -3.7626850605010986, -0.9532279372215271, -1.9791574478149414, 1.112548828125, -0.39794921875, 0.052490234375
329, 113780769, -6.638850212097168, -0.7194063067436218, 7.177931785583496, -5.113550662994385, 0.5647408962249756, -1.5213432312011719, 1.112060546875, -0.400390625, 0.052734375
330, 113797436, -6.679924011230469, -0.6963056921958923, 7.216843128204346, -6.762266635894775, 3.0045688152313232, -1.4030382633209229, 1.112060546875, -0.3994140625, 0.05322265625
331, 113814103, -6.651930332183838, -0.7823811173439026, 7.216679096221924, -7.965002059936523, 6.379953384399414, -1.1923741102218628, 1.1142578125, -0.39794921875, 0.05419921875
332, 113830770, -6.639019966125488, -0.9604714512825012, 7.375723361968994, -8.577993392944336, 11.894412994384766, 0.3905107080936432, 1.11474609375, -0.39794921875, 0.057373046875
333, 113847437, -7.047512054443359, -1.6733677387237549, 6.920658588409424, -4.854903221130371, 12.494620323181152, 5.2451066970825195, 1.11572265625, -0.397216796875, 0.0615234375
334, 113864104, -7.090652942657471, -0.5015444755554199, 7.018615245819092, -1.5269266366958618, 4.065497875213623, 5.970134735107422, 1.11669921875, -0.40087890625, 0.064453125
335, 113880771, -6.9789299964904785, -1.1093075275421143, 7.006610870361328, 0.3455345034599304, -0.918420135974884, 6.121480464935303, 1.119873046875, -0.40234375, 0.064208984375
336, 113897438, -6.924993991851807, -1.3039398193359375, 7.0192179679870605, 2.6132326126098633, -3.7155332565307617, 9.659955024719238, 1.116943359375, -0.405029296875, 0.066162109375
337, 113914105, -6.851004600524902, -1.1306672096252441, 7.155509948730469, 4.928432464599609, -5.2081298828125, 13.8654146194458, 1.119384765625, -0.407958984375, 0.067138671875
338, 113930772, -6.583113193511963, 0.7808565497398376, 7.529153347015381, 2.599747657775879, -0.921622097492218, 11.091053009033203, 1.118408203125, -0.41357421875, 0.065673828125
339, 113947439, -6.577628135681152, 0.5965592265129089, 7.463822841644287, -6.703886985778809, 14.389184951782227, 1.9158893823623657, 1.117431640625, -0.4130859375, 0.0703125
340, 113964106, -6.820161819458008, 0.6088160872459412, 7.110061168670654, -15.230998992919922, 26.24637222290039, -7.265986919403076, 1.12060546875, -0.4130859375, 0.075439453125
341, 113980773, -7.167666435241699, -0.20052364468574524, 6.709351062774658, -16.711271286010742, 25.01421356201172, -11.723512649536133, 1.125, -0.408447265625, 0.08544921875
342, 113997440, -7.474545955657959, -0.5813044905662537, 6.648476600646973, -12.166061401367188, 11.780532836914062, -11.046157836914062, 1.12646484375, -0.405029296875, 0.0888671875
343, 114014107, -7.368734836578369, -0.5672597885131836, 6.767014026641846, -10.058846473693848, -0.41394004225730896, -12.591176986694336, 1.128173828125, -0.40087890625, 0.0869140625
344, 114030774, -7.15022611618042, -0.8517420887947083, 6.914105415344238, -9.386845588684082, -6.430394172668457, -13.428930282592773, 1.12646484375, -0.398193359375, 0.0869140625
345, 114047441, -7.1180267333984375, -0.9780962467193604, 6.925057411193848, -6.273222923278809, -10.407846450805664, -11.520783424377441, 1.125732421875, -0.392578125, 0.083251953125
346, 114064108, -6.948122978210449, -0.7352469563484192, 6.971220016479492, -2.5934805870056152, -15.127350807189941, -9.87923812866211, 1.125244140625, -0.39208984375, 0.0810546875
347, 114080775, -6.883555889129639, -1.1953433752059937, 7.092273712158203, -0.3604094684123993, -14.956538200378418, -7.810306072235107, 1.123291015625, -0.39306640625, 0.077392578125
348, 114097442, -6.93958854675293, -1.0706614255905151, 6.968557834625244, 1.8636518716812134, -14.963936805725098, -5.3801188468933105, 1.120849609375, -0.393798828125, 0.07373046875
349, 114114109, -6.790602207183838, -0.8835530281066895, 7.195075988769531, 0.23108433187007904, -11.345664978027344, -6.078652858734131, 1.12109375, -0.3916015625, 0.069091796875
350, 114130776, -6.869091987609863, -0.6660617589950562, 7.153424263000488, -1.5162335634231567, -6.47645378112793, -5.749680042266846, 1.11865234375, -0.3896484375, 0.067626953125
351, 114147443, -6.854634761810303, -0.4744313955307007, 7.214721202850342, -4.477190971374512, -2.6368155479431152, -6.9768500328063965, 1.11962890625, -0.39013671875, 0.067626953125
352, 114164110, -6.838899612426758, -0.72320157289505, 7.166466236114502, -8.371092796325684, 0.8187937140464783, -9.513445854187012, 1.11962890625, -0.3876953125, 0.069091796875
353, 114180777, -6.900413990020752, -0.923742413520813, 6.960811138153076, -10.676957130432129, 2.1680076122283936, -10.826676368713379, 1.12060546875, -0.385498046875, 0.069580078125
354, 114197444, -6.8387370109558105, -1.5684223175048828, 6.863011360168457, -11.75128173828125, 0.5472093820571899, -10.368668556213379, 1.12109375, -0.38134765625, 0.071533203125
355, 114214111, -6.779167175292969, -1.6945433616638184, 6.850982666015625, -6.589572906494141, -3.6956698894500732, -5.237657070159912, 1.12158203125, -0.383056640625, 0.072265625
356, 114230778, -6.762386322021484, -0.857187807559967, 7.070869445800781, -2.2890713214874268, -5.627021312713623, -2.197979688644409, 1.1201171875, -0.384521484375, 0.068603515625
357, 114247445, -6.716839790344238, -0.2865212857723236, 7.378382682800293, -3.5938589572906494, -2.0417675971984863, -3.73173189163208, 1.1220703125, -0.385009765625, 0.068115234375
358, 114264112, -6.8586907386779785, -0.9838582873344421, 7.096117973327637, -5.557470798492432, 2.438579559326172, -4.947183132171631, 1.123046875, -0.386474609375, 0.070068359375
359, 114280779, -6.933582305908203, -1.496080756187439, 6.888765811920166, -2.9497885704040527, 1.6190873384475708, -2.5572614669799805, 1.123291015625, -0.385986328125, 0.069091796875
360, 114297446, -6.977768898010254, -1.6050233840942383, 6.7733283042907715, 1.00339674949646, -3.4139554500579834, 0.7728312611579895, 1.122802734375, -0.386962890625, 0.069580078125
361, 114314113, -6.9689130783081055, -1.3716329336166382, 6.9414544105529785, 4.066356658935547, -8.178995132446289, 2.7723639011383057, 1.123291015625, -0.38916015625, 0.064453125
362, 114330780, -6.793468475341797, -0.6816302537918091, 7.115630149841309, 4.737346172332764, -9.608711242675781, 2.980391025543213, 1.12109375, -0.39111328125, 0.06396484375
363, 114347447, -6.623665809631348, -0.10571359097957611, 7.303415775299072, 2.9282848834991455, -6.759043216705322, 1.5043294429779053, 1.12060546875, -0.392822265625, 0.06396484375
364, 114364114, -6.7698655128479, -0.690657377243042, 7.243030071258545, 0.41933754086494446, -1.4270116090774536, -0.09262832999229431, 1.1201171875, -0.393310546875, 0.06396484375
365, 114380781, -6.960146903991699, -1.1374115943908691, 7.033023357391357, 0.46871885657310486, -0.8212072849273682, 0.7727159857749939, 1.121826171875, -0.393310546875, 0.0625
366, 114397448, -6.896764755249023, -0.9601189494132996, 7.087342262268066, 1.0606539249420166, -2.35959529876709, 1.1166304349899292, 1.121337890625, -0.397705078125, 0.064208984375
367, 114414115, -6.832996368408203, -0.9072360396385193, 7.133923530578613, 1.207606554031372, -2.2731142044067383, 0.9039425849914551, 1.122314453125, -0.396728515625, 0.0615234375
368, 114430782, -6.880502223968506, -1.0757548809051514, 7.0483078956604, 2.07403302192688, -2.1889891624450684, 1.7722129821777344, 1.120361328125, -0.39892578125, 0.0615234375
369, 114447449, -6.834856986999512, -1.0214024782180786, 7.026002883911133, 3.2472102642059326, -3.9033114910125732, 3.1627907752990723, 1.121826171875, -0.40185546875, 0.06298828125
370, 114464116, -6.840538501739502, -0.6522526144981384, 7.0771660804748535, 3.027761220932007, -4.665841102600098, 3.1207351684570312, 1.120849609375, -0.403076171875, 0.06103515625
371, 114480783, -6.847136974334717, -0.40145978331565857, 7.114078044891357, 1.323286771774292, -4.7649617195129395, 1.021005630493164, 1.120849609375, -0.405517578125, 0.060546875
372, 114497450, -6.796947002410889, -0.3115366995334625, 7.19171142578125, -1.236081600189209, -3.3120675086975098, -2.341794729232788, 1.120849609375, -0.406494140625, 0.06103515625
373, 114514117, -6.827176570892334, -0.5780021548271179, 7.207733631134033, -3.4912288188934326, -0.9127982258796692, -4.504351615905762, 1.120361328125, -0.404052734375, 0.0595703125
374, 114530784, -6.84560489654541, -0.8330550789833069, 7.1184163093566895, -3.9336626529693604, -0.29156216979026794, -4.618252277374268, 1.119384765625, -0.405517578125, 0.060546875
375, 114547451, -6.84797477722168, -0.9657109379768372, 7.11391544342041, -2.985992670059204, -0.6244888305664062, -3.305178165435791, 1.119384765625, -0.40185546875, 0.0595703125
376, 114564118, -6.837864875793457, -0.9260435700416565, 7.134807109832764, -2.1432836055755615, -1.4338759183883667, -1.654516339302063, 1.118896484375, -0.40283203125, 0.06103515625
377, 114580785, -6.835300445556641, -0.8095635175704956, 7.143856048583984, -1.6078500747680664, -1.7901098728179932, -0.6597318649291992, 1.122314453125, -0.403564453125, 0.060546875
378, 114597452, -6.821573257446289, -0.6798164248466492, 7.1392903327941895, -1.544778823852539, -1.5462772846221924, -0.5116649270057678, 1.120849609375, -0.406494140625, 0.06103515625
379, 114614119, -6.815661907196045, -0.6495121717453003, 7.165310382843018, -1.940008282661438, -1.3746721744537354, -1.2682769298553467, 1.119384765625, -0.406005859375, 0.0595703125
380, 114630786, -6.848721504211426, -0.6044999957084656, 7.109095573425293, -2.315490245819092, -1.262283444404602, -2.1441028118133545, 1.120849609375, -0.406005859375, 0.0625
381, 114647453, -6.841026782989502, -0.7330849766731262, 7.104434967041016, -2.385810613632202, -1.5188974142074585, -2.855867862701416, 1.12353515625, -0.4033203125, 0.06005859375
382, 114664120, -6.826542854309082, -0.8204607963562012, 7.099510669708252, -2.0962717533111572, -1.7757928371429443, -2.7842674255371094, 1.119384765625, -0.404541015625, 0.0595703125
383, 114680787, -6.849109649658203, -0.8412459492683411, 7.0969390869140625, -1.6513402462005615, -1.8632216453552246, -2.1571526527404785, 1.122314453125, -0.4033203125, 0.0595703125
384, 114697454, -6.858184337615967, -0.7946316003799438, 7.107637405395508, -1.1369990110397339, -2.228573799133301, -1.5302436351776123, 1.118896484375, -0.403564453125, 0.06103515625
385, 114714121, -6.834142208099365, -0.7679332494735718, 7.119692802429199, -0.7978867292404175, -2.6050162315368652, -1.110003113746643, 1.118896484375, -0.404052734375, 0.058349609375
386, 114730788, -6.830905914306641, -0.7151052355766296, 7.107774257659912, -0.8335397839546204, -2.9253034591674805, -1.0352909564971924, 1.118896484375, -0.404541015625, 0.057861328125
387, 114747455, -6.818602085113525, -0.707202672958374, 7.111474990844727, -1.1250762939453125, -2.912727117538452, -1.2311254739761353, 1.120361328125, -0.406982421875, 0.05859375
388, 114764122, -6.776451110839844, -0.6463829278945923, 7.135293483734131, -1.376029372215271, -2.494292736053467, -1.5305635929107666, 1.120361328125, -0.407470703125, 0.05859375
389, 114780789, -6.775838375091553, -0.701142430305481, 7.087873935699463, -1.7189451456069946, -1.4851140975952148, -1.983857274055481, 1.12158203125, -0.407958984375, 0.05810546875
390, 114797456, -6.811540603637695, -0.8471255302429199, 7.079886436462402, -1.949177861213684, -1.0751060247421265, -1.5059114694595337, 1.121337890625, -0.406494140625, 0.05859375
391, 114814123, -6.809429168701172, -0.931014358997345, 7.118520736694336, -1.4337605237960815, -1.7716048955917358, -0.26442548632621765, 1.120849609375, -0.406494140625, 0.057861328125
392, 114830790, -6.810929298400879, -0.9270772337913513, 7.183874607086182, -0.8495476841926575, -2.641514778137207, 0.8573019504547119, 1.12109375, -0.408447265625, 0.0576171875
393, 114847457, -6.789347171783447, -0.814437210559845, 7.179195880889893, -0.45101398229599, -2.7281875610351562, 1.8118997812271118, 1.119384765625, -0.41015625, 0.055908203125
394, 114864124, -6.83592414855957, -0.630475640296936, 7.183999538421631, -0.5915380716323853, -2.3699300289154053, 1.7155320644378662, 1.118896484375, -0.4111328125, 0.05810546875
395, 114880791, -6.798199653625488, -0.5148351192474365, 7.213561534881592, -0.9290238618850708, -1.9583343267440796, 0.7997502088546753, 1.12060546875, -0.412109375, 0.05712890625
396, 114897458, -6.803193092346191, -0.5137733221054077, 7.204052448272705, -1.6051735877990723, -0.9582222700119019, -0.3746497631072998, 1.12255859375, -0.41162109375, 0.05810546875
397, 114914125, -6.810364723205566, -0.5985836982727051, 7.157466411590576, -2.0192155838012695, -0.345476895570755, -1.0482637882232666, 1.12109375, -0.414306640625, 0.05810546875
398, 114930792, -6.820962905883789, -0.7127355337142944, 7.147960662841797, -1.94819176197052, -0.5450254678726196, -1.0367894172668457, 1.117431640625, -0.412109375, 0.055908203125
399, 114947459, -6.833926200866699, -0.7404797673225403, 7.137436389923096, -1.647335410118103, -0.8283674120903015, -0.7699099779129028, 1.12060546875, -0.412109375, 0.05810546875
400, 114964126, -6.845037937164307, -0.6974261403083801, 7.109742641448975, -1.314892053604126, -1.3587536811828613, -0.4904959499835968, 1.12255859375, -0.413818359375, 0.05859375
401, 114980793, -6.825307369232178, -0.5946690440177917, 7.166572570800781, -1.2756789922714233, -1.737898588180542, -0.6122844815254211, 1.1220703125, -0.41357421875, 0.061279296875
402, 114997460, -6.8343963623046875, -0.5916311740875244, 7.165531158447266, -1.6195294857025146, -1.571313500404358, -0.93798828125, 1.12109375, -0.416259765625, 0.0576171875
403, 115014127, -6.831819534301758, -0.6094942688941956, 7.1457695960998535, -2.0266430377960205, -0.9256173372268677, -1.490454077720642, 1.1220703125, -0.41259765625, 0.05810546875
404, 115030794, -6.828160285949707, -0.6272168755531311, 7.161160945892334, -2.200989007949829, -0.7375946044921875, -1.6243959665298462, 1.12109375, -0.414794921875, 0.06005859375
405, 115047461, -6.83707332611084, -0.6428440809249878, 7.115738391876221, -2.2317497730255127, -0.8905150890350342, -1.7653424739837646, 1.1201171875, -0.414794921875, 0.06005859375
406, 115064128, -6.830733299255371, -0.6319154500961304, 7.119580268859863, -2.119387149810791, -1.2153996229171753, -1.8336900472640991, 1.1201171875, -0.414794921875, 0.0595703125
407, 115080795, -6.843395233154297, -0.6402655839920044, 7.133800983428955, -2.2609355449676514, -1.2470567226409912, -2.0964889526367188, 1.12109375, -0.413818359375, 0.06103515625
408, 115097462, -6.811865329742432, -0.6630246639251709, 7.119497776031494, -2.127377986907959, -1.315852403640747, -2.0181140899658203, 1.12255859375, -0.415283203125, 0.056640625
409, 115114129, -6.826292514801025, -0.6100509762763977, 7.137507438659668, -1.932311773300171, -1.07880699634552, -1.8531430959701538, 1.12060546875, -0.4130859375, 0.05908203125
410, 115130796, -6.858523845672607, -0.595511794090271, 7.139424800872803, -2.190103530883789, -0.8349868655204773, -2.2455294132232666, 1.123046875, -0.414794921875, 0.061279296875
411, 115147463, -6.8738884925842285, -0.6013663411140442, 7.144936561584473, -2.468449354171753, -1.0092555284500122, -2.7017297744750977, 1.12158203125, -0.413818359375, 0.0576171875
412, 115164130, -6.8663811683654785, -0.6310226917266846, 7.142159938812256, -2.8601574897766113, -1.0469703674316406, -3.19126558303833, 1.12255859375, -0.415283203125, 0.060791015625
413, 115180797, -6.858500003814697, -0.6419997215270996, 7.147065162658691, -2.902559280395508, -1.0637083053588867, -3.2896056175231934, 1.12060546875, -0.414794921875, 0.06103515625
414, 115197464, -6.855766773223877, -0.6568363308906555, 7.127976417541504, -2.8839776515960693, -1.2141573429107666, -3.3244521617889404, 1.12060546875, -0.414306640625, 0.05859375
415, 115214131, -6.841067790985107, -0.678252637386322, 7.105523586273193, -2.703458786010742, -1.4673386812210083, -3.26228928565979, 1.12353515625, -0.412109375, 0.05908203125
416, 115230798, -6.832476615905762, -0.6936036348342896, 7.122004985809326, -2.701205015182495, -1.5521169900894165, -3.22186017036438, 1.12109375, -0.4130859375, 0.06005859375
417, 115247465, -6.8397216796875, -0.6864306330680847, 7.119406700134277, -2.64469051361084, -1.512071132659912, -3.0104141235351562, 1.12158203125, -0.412109375, 0.06103515625
418, 115264132, -6.841158390045166, -0.6700741052627563, 7.107185363769531, -2.5785329341888428, -1.7559425830841064, -2.8952977657318115, 1.123046875, -0.41357421875, 0.060546875
419, 115280799, -6.843807697296143, -0.6589231491088867, 7.124545097351074, -2.366600513458252, -2.0904572010040283, -3.0065464973449707, 1.123046875, -0.413818359375, 0.05859375
420, 115297466, -6.839644432067871, -0.6509639620780945, 7.112004280090332, -2.198145627975464, -2.383363723754883, -3.123225212097168, 1.12353515625, -0.413818359375, 0.0595703125
421, 115314133, -6.839405059814453, -0.633164644241333, 7.153426647186279, -2.188157320022583, -2.6993613243103027, -3.286391496658325, 1.12060546875, -0.412109375, 0.05859375
422, 115330800, -6.828378677368164, -0.6428192853927612, 7.145354270935059, -2.1491103172302246, -2.8440468311309814, -3.467664957046509, 1.12060546875, -0.412109375, 0.05908203125
423, 115347467, -6.83958625793457, -0.6328983306884766, 7.114394187927246, -2.1146998405456543, -2.887626886367798, -3.5223355293273926, 1.12158203125, -0.41259765625, 0.0576171875
424, 115364134, -6.834880828857422, -0.6156020760536194, 7.158332347869873, -2.1039681434631348, -2.9492130279541016, -3.7516589164733887, 1.12060546875, -0.41162109375, 0.056396484375
425, 115380801, -6.835350513458252, -0.5992861390113831, 7.133119106292725, -2.029934883117676, -2.8303959369659424, -3.9653072357177734, 1.12109375, -0.412109375, 0.0595703125
426, 115397468, -6.839416027069092, -0.6594535708427429, 7.154983043670654, -2.130976915359497, -2.858262300491333, -4.400313377380371, 1.12060546875, -0.41015625, 0.055908203125
427, 115414135, -6.826863765716553, -0.7236598134040833, 7.172191143035889, -2.4728682041168213, -2.394224166870117, -4.448311805725098, 1.119384765625, -0.4111328125, 0.057373046875
428, 115430802, -6.809597969055176, -0.7406890392303467, 7.210778713226318, -2.7165474891662598, -1.6974307298660278, -4.284441947937012, 1.119873046875, -0.40966796875, 0.055419921875
429, 115447469, -6.815982341766357, -0.6594951152801514, 7.197415351867676, -2.8080999851226807, -1.1654163599014282, -4.109865665435791, 1.119873046875, -0.40869140625, 0.055908203125
430, 115464136, -6.829126834869385, -0.6661553978919983, 7.176272392272949, -3.0451712608337402, -0.3934495449066162, -4.189456939697266, 1.120361328125, -0.40966796875, 0.055908203125
431, 115480803, -6.820903301239014, -0.6940428614616394, 7.145196914672852, -3.047360897064209, -0.4095342755317688, -4.213225841522217, 1.120849609375, -0.40869140625, 0.057373046875
432, 115497470, -6.809832572937012, -0.7552281022071838, 7.131816864013672, -2.7546463012695312, -0.6161647439002991, -3.7126126289367676, 1.1220703125, -0.40869140625, 0.056884765625
433, 115514137, -6.813811779022217, -0.7266901135444641, 7.140331268310547, -2.413407564163208, -0.607302725315094, -3.2775161266326904, 1.121337890625, -0.406982421875, 0.0595703125
434, 115530804, -6.829378128051758, -0.753507137298584, 7.136324405670166, -2.122063398361206, -0.6715009808540344, -3.0697717666625977, 1.12158203125, -0.40869140625, 0.054931640625
435, 115547471, -6.8239850997924805, -0.7514314651489258, 7.10973596572876, -2.135113000869751, -0.9940589070320129, -2.791412115097046, 1.120849609375, -0.406494140625, 0.057861328125
436, 115564138, -6.808898448944092, -0.7396420240402222, 7.136356830596924, -1.9513545036315918, -1.354245901107788, -2.6530404090881348, 1.120849609375, -0.407958984375, 0.056884765625
437, 115580805, -6.810486793518066, -0.734272301197052, 7.129566669464111, -1.9697833061218262, -1.650533676147461, -2.4809229373931885, 1.1220703125, -0.406494140625, 0.057373046875
438, 115597472, -6.794400215148926, -0.7455204725265503, 7.120140075683594, -2.132129430770874, -1.637791395187378, -2.3496451377868652, 1.121337890625, -0.406982421875, 0.05810546875
439, 115614139, -6.797192096710205, -0.72834712266922, 7.15266752243042, -2.128530502319336, -1.7684543132781982, -2.1968393325805664, 1.121826171875, -0.406494140625, 0.056396484375
440, 115630806, -6.804136276245117, -0.7100567817687988, 7.14225959777832, -2.1820995807647705, -1.8461887836456299, -1.9894022941589355, 1.12109375, -0.41015625, 0.056884765625
441, 115647473, -6.7880353927612305, -0.7174388766288757, 7.123043060302734, -2.0061912536621094, -1.7770859003067017, -1.749616265296936, 1.119384765625, -0.407470703125, 0.058349609375
442, 115664140, -6.811131954193115, -0.7470018863677979, 7.113966941833496, -2.043074369430542, -1.7935936450958252, -1.5991291999816895, 1.119873046875, -0.406494140625, 0.054931640625
443, 115680807, -6.823798656463623, -0.7611454725265503, 7.122592449188232, -1.8996812105178833, -2.0749361515045166, -1.4514204263687134, 1.121337890625, -0.407470703125, 0.055908203125
444, 115697474, -6.8196492195129395, -0.7516375184059143, 7.112149715423584, -1.8444730043411255, -2.3653199672698975, -1.290419101715088, 1.120849609375, -0.40869140625, 0.055419921875
445, 115714141, -6.795290470123291, -0.7318300604820251, 7.126179218292236, -1.8693045377731323, -2.567878246307373, -1.1367812156677246, 1.12158203125, -0.40869140625, 0.057373046875
446, 115730808, -6.806893825531006, -0.6566232442855835, 7.1304826736450195, -1.924807071685791, -2.3502724170684814, -1.1327855587005615, 1.120849609375, -0.4091796875, 0.055908203125
447, 115747475, -6.817689418792725, -0.6342847347259521, 7.158491611480713, -2.175389051437378, -2.1733272075653076, -1.5311782360076904, 1.12109375, -0.40966796875, 0.052978515625
448, 115764142, -6.819670677185059, -0.6634426116943359, 7.149367332458496, -2.388960599899292, -2.134050130844116, -1.9634826183319092, 1.119873046875, -0.40869140625, 0.055908203125
449, 115780809, -6.819077014923096, -0.6765660047531128, 7.158298015594482, -2.466810703277588, -1.9552866220474243, -2.257657527923584, 1.119873046875, -0.40869140625, 0.053955078125
450, 115797476, -6.80018424987793, -0.7267032861709595, 7.135917663574219, -2.695762872695923, -1.8515936136245728, -2.0850021839141846, 1.1220703125, -0.4091796875, 0.056884765625
451, 115814143, -6.78691291809082, -0.6769083738327026, 7.142970085144043, -2.650568723678589, -1.4893015623092651, -1.8788450956344604, 1.119873046875, -0.407958984375, 0.056884765625
452, 115830810, -6.816913604736328, -0.7019233703613281, 7.16486930847168, -2.6530661582946777, -1.2712736129760742, -2.0014662742614746, 1.119384765625, -0.4091796875, 0.056884765625
453, 115847477, -6.804723739624023, -0.6944550275802612, 7.1769795417785645, -2.5528688430786133, -1.5718384981155396, -1.806758165359497, 1.12060546875, -0.41015625, 0.056396484375
454, 115864144, -6.802664756774902, -0.7266666293144226, 7.1451921463012695, -2.4978530406951904, -1.5847601890563965, -1.6103986501693726, 1.120361328125, -0.408203125, 0.055908203125
455, 115880811, -6.818597316741943, -0.6779297590255737, 7.161057472229004, -2.3368260860443115, -1.3310409784317017, -1.535622477531433, 1.12158203125, -0.4111328125, 0.055419921875
456, 115897478, -6.814000606536865, -0.6422433853149414, 7.174778461456299, -2.373349666595459, -1.3571144342422485, -1.5818147659301758, 1.120361328125, -0.40966796875, 0.0576171875
457, 115914145, -6.81185245513916, -0.6706296801567078, 7.12380313873291, -2.3854641914367676, -1.44624662399292, -1.8104976415634155, 1.12158203125, -0.41015625, 0.056884765625
458, 115930812, -6.798709869384766, -0.7238752841949463, 7.134313583374023, -2.316028356552124, -1.811202049255371, -1.7109923362731934, 1.12109375, -0.41015625, 0.056396484375
459, 115947479, -6.773264408111572, -0.7229611277580261, 7.167089462280273, -2.204664707183838, -1.744621992111206, -1.3360097408294678, 1.1201171875, -0.41162109375, 0.055419921875
460, 115964146, -6.7942585945129395, -0.689582109451294, 7.164504528045654, -2.252573013305664, -1.3640555143356323, -1.0723907947540283, 1.12060546875, -0.41015625, 0.055908203125
461, 115980813, -6.825917720794678, -0.6891027688980103, 7.125479698181152, -2.4341542720794678, -1.0230097770690918, -0.9637802839279175, 1.12255859375, -0.41259765625, 0.054931640625
462, 115997480, -6.845380783081055, -0.664680004119873, 7.165733337402344, -2.560731887817383, -0.8221035003662109, -1.0273510217666626, 1.119384765625, -0.4111328125, 0.056884765625
463, 116014147, -6.836522579193115, -0.6612566113471985, 7.148519039154053, -2.521134614944458, -0.8775423169136047, -1.2719393968582153, 1.12158203125, -0.41162109375, 0.055908203125
464, 116030814, -6.841703414916992, -0.6089791059494019, 7.151861190795898, -2.68100905418396, -0.8178134560585022, -1.6462947130203247, 1.1201171875, -0.412109375, 0.056396484375
465, 116047481, -6.835949420928955, -0.6565948724746704, 7.125484943389893, -2.6681642532348633, -1.067601203918457, -1.999570369720459, 1.119873046875, -0.41162109375, 0.054931640625
466, 116064148, -6.829009056091309, -0.6821553111076355, 7.120316028594971, -2.6787168979644775, -1.2890232801437378, -2.212156057357788, 1.12255859375, -0.41162109375, 0.05712890625
467, 116080815, -6.8155622482299805, -0.6829261779785156, 7.1308465003967285, -2.7781076431274414, -1.3980693817138672, -2.316950559616089, 1.1201171875, -0.41259765625, 0.055419921875
468, 116097482, -6.803915977478027, -0.668793797492981, 7.139199256896973, -2.7754054069519043, -1.290700912475586, -2.3066928386688232, 1.123046875, -0.41064453125, 0.05810546875
469, 116114149, -6.836752414703369, -0.680241584777832, 7.128726482391357, -2.856289863586426, -1.097017526626587, -2.3721587657928467, 1.12255859375, -0.41259765625, 0.056396484375
470, 116130816, -6.822376251220703, -0.6973692178726196, 7.1278839111328125, -2.7113993167877197, -1.21962571144104, -2.4394948482513428, 1.1220703125, -0.41015625, 0.05712890625
471, 116147483, -6.821706771850586, -0.7066074013710022, 7.1392927169799805, -2.731981039047241, -1.1463557481765747, -2.2994470596313477, 1.12255859375, -0.412109375, 0.05859375
472, 116164150, -6.8296356201171875, -0.6844087839126587, 7.126608848571777, -2.630296468734741, -1.163162350654602, -2.1647725105285645, 1.1220703125, -0.41015625, 0.05908203125
473, 116180817, -6.8246026039123535, -0.6861952543258667, 7.115257740020752, -2.494741439819336, -1.2939409017562866, -2.0779075622558594, 1.12060546875, -0.40966796875, 0.05810546875
474, 116197484, -6.819742202758789, -0.7162497043609619, 7.1335248947143555, -2.4797189235687256, -1.3368933200836182, -2.0403459072113037, 1.1201171875, -0.412109375, 0.060546875
475, 116214151, -6.825899600982666, -0.678313672542572, 7.1348724365234375, -2.4320411682128906, -1.3940863609313965, -1.9295967817306519, 1.120361328125, -0.40966796875, 0.055419921875
476, 116230818, -6.8490095138549805, -0.6415464878082275, 7.145371437072754, -2.528613805770874, -1.1691813468933105, -2.083272933959961, 1.12060546875, -0.41162109375, 0.056396484375
477, 116247485, -6.840442657470703, -0.6485706567764282, 7.119142532348633, -2.5591440200805664, -1.2434067726135254, -2.2340803146362305, 1.12255859375, -0.41015625, 0.056640625
478, 116264152, -6.833313941955566, -0.669753909111023, 7.126400470733643, -2.6035056114196777, -1.4458627700805664, -2.4030351638793945, 1.12158203125, -0.41259765625, 0.056640625
479, 116280819, -6.8280768394470215, -0.6780653595924377, 7.146485328674316, -2.567481517791748, -1.5405913591384888, -2.4421072006225586, 1.12158203125, -0.41162109375, 0.056396484375
480, 116297486, -6.8278656005859375, -0.6924034357070923, 7.121228218078613, -2.5466713905334473, -1.5359553098678589, -2.475454807281494, 1.12060546875, -0.41162109375, 0.05810546875
481, 116314153, -6.841065883636475, -0.710093080997467, 7.120840549468994, -2.614596128463745, -1.5763980150222778, -2.4048409461975098, 1.12060546875, -0.412109375, 0.05859375
482, 116330820, -6.827776908874512, -0.6712540984153748, 7.139761447906494, -2.493076801300049, -1.7440330982208252, -2.3989241123199463, 1.12158203125, -0.4111328125, 0.05712890625
483, 116347487, -6.835105895996094, -0.650896430015564, 7.13866662979126, -2.5993692874908447, -1.8042867183685303, -2.503065347671509, 1.1220703125, -0.41015625, 0.055908203125
484, 116364154, -6.825923442840576, -0.659851610660553, 7.138955593109131, -2.601327896118164, -1.6918084621429443, -2.6855552196502686, 1.12060546875, -0.412109375, 0.05908203125
485, 116380821, -6.837002277374268, -0.6638656258583069, 7.136022090911865, -2.7088375091552734, -1.55536949634552, -2.867597818374634, 1.1220703125, -0.4111328125, 0.05712890625
486, 116397488, -6.813661098480225, -0.679293155670166, 7.129068851470947, -2.8393471240997314, -1.4100943803787231, -3.185669183731079, 1.120361328125, -0.4091796875, 0.0576171875
487, 116414155, -6.813256740570068, -0.7240620255470276, 7.098359107971191, -2.794729709625244, -1.3017269372940063, -2.947342872619629, 1.119384765625, -0.40869140625, 0.05859375
488, 116430822, -6.804072380065918, -0.7510305047035217, 7.141686916351318, -2.785189390182495, -1.2694936990737915, -2.551703929901123, 1.12060546875, -0.41015625, 0.05810546875
489, 116447489, -6.811728000640869, -0.7148475646972656, 7.135563850402832, -2.775033712387085, -1.1970608234405518, -2.243685483932495, 1.119384765625, -0.40966796875, 0.057373046875
490, 116464156, -6.820985317230225, -0.6800744533538818, 7.120499610900879, -2.6988232135772705, -1.0959290266036987, -2.1595475673675537, 1.120849609375, -0.4091796875, 0.05859375
491, 116480823, -6.852563381195068, -0.6692410111427307, 7.11993932723999, -2.7738938331604004, -1.052131175994873, -2.2196602821350098, 1.120361328125, -0.407470703125, 0.057373046875
492, 116497490, -6.8518476486206055, -0.6918187141418457, 7.111200332641602, -2.638056755065918, -1.1909905672073364, -2.3085367679595947, 1.123046875, -0.4111328125, 0.0576171875
493, 116514157, -6.848333835601807, -0.6997414827346802, 7.125885486602783, -2.6171958446502686, -1.5498759746551514, -2.3166306018829346, 1.1220703125, -0.41015625, 0.0595703125
494, 116530824, -6.834568977355957, -0.6928024291992188, 7.11848783493042, -2.4514942169189453, -1.8498647212982178, -2.381622791290283, 1.12109375, -0.407958984375, 0.06005859375
495, 116547491, -6.8307061195373535, -0.7058478593826294, 7.142488956451416, -2.4367926120758057, -1.9120780229568481, -2.3341240882873535, 1.12158203125, -0.4091796875, 0.05908203125
496, 116564158, -6.836703777313232, -0.6962841153144836, 7.1449809074401855, -2.3870911598205566, -1.9238852262496948, -2.3954665660858154, 1.12109375, -0.4091796875, 0.057373046875
497, 116580825, -6.83528995513916, -0.6868945360183716, 7.114354133605957, -2.4354095458984375, -1.9727030992507935, -2.5198161602020264, 1.123046875, -0.41015625, 0.056396484375
498, 116597492, -6.832458972930908, -0.6953451037406921, 7.13042688369751, -2.289250612258911, -1.9934622049331665, -2.6147496700286865, 1.1220703125, -0.406494140625, 0.05859375
499, 116614159, -6.836702823638916, -0.7046364545822144, 7.127551078796387, -2.3343160152435303, -1.9824999570846558, -2.619347333908081, 1.120361328125, -0.407958984375, 0.05859375
500, 116630826, -6.830113887786865, -0.7037674784660339, 7.147911071777344, -2.339233636856079, -2.008151054382324, -2.4309654235839844, 1.120849609375, -0.40869140625, 0.05810546875
501, 116647493, -6.830967426300049, -0.6896944046020508, 7.1360392570495605, -2.334469795227051, -1.8225356340408325, -2.349248170852661, 1.1220703125, -0.408447265625, 0.055908203125
502, 116664160, -6.821102142333984, -0.6997538805007935, 7.125789165496826, -2.374028444290161, -1.7758182287216187, -2.291107416152954, 1.120849609375, -0.4091796875, 0.0576171875
503, 116680827, -6.82603120803833, -0.701217770576477, 7.142398357391357, -2.371133804321289, -1.7280247211456299, -2.382826089859009, 1.1220703125, -0.407470703125, 0.0576171875
504, 116697494, -6.826108932495117, -0.7239881753921509, 7.140442848205566, -2.3366336822509766, -1.7706570625305176, -2.406338691711426, 1.120361328125, -0.408203125, 0.055419921875
505, 116714161, -6.825632095336914, -0.7058049440383911, 7.129815101623535, -2.369213104248047, -1.7136561870574951, -2.3356735706329346, 1.12158203125, -0.408447265625, 0.056884765625
506, 116730828, -6.817334175109863, -0.6971599459648132, 7.139854431152344, -2.319383382797241, -1.783591389656067, -2.317040205001831, 1.12109375, -0.41015625, 0.05810546875
507, 116747495, -6.833585262298584, -0.6987256407737732, 7.108725547790527, -2.2696611881256104, -1.9362294673919678, -2.3395285606384277, 1.121337890625, -0.406982421875, 0.057861328125
508, 116764162, -6.831270694732666, -0.6865809559822083, 7.143549919128418, -2.1930365562438965, -2.2010021209716797, -2.424562454223633, 1.12109375, -0.40966796875, 0.057373046875
509, 116780829, -6.83003044128418, -0.6906325817108154, 7.14022970199585, -2.216843605041504, -2.186441421508789, -2.447831869125366, 1.12109375, -0.40966796875, 0.057373046875
510, 116797496, -6.8158063888549805, -0.700587809085846, 7.142797470092773, -2.2646241188049316, -2.204357624053955, -2.475480318069458, 1.120849609375, -0.40869140625, 0.056396484375
511, 116814163, -6.825621128082275, -0.7035064101219177, 7.1376447677612305, -2.2627029418945312, -2.2316091060638428, -2.5227999687194824, 1.1220703125, -0.40869140625, 0.055908203125
512, 116830830, -6.822027683258057, -0.6904193758964539, 7.161487102508545, -2.313416004180908, -2.0737197399139404, -2.556365489959717, 1.12158203125, -0.407470703125, 0.055419921875
513, 116847497, -6.821918964385986, -0.6993348002433777, 7.128713130950928, -2.3048102855682373, -1.9872256517410278, -2.639324903488159, 1.121337890625, -0.407958984375, 0.054443359375
514, 116864164, -6.814299583435059, -0.7014227509498596, 7.141095161437988, -2.3715310096740723, -2.0557265281677246, -2.731632709503174, 1.120361328125, -0.40966796875, 0.056396484375
515, 116880831, -6.8110857009887695, -0.6919630169868469, 7.134804725646973, -2.4523518085479736, -2.005218029022217, -2.821200370788574, 1.119384765625, -0.407958984375, 0.054443359375
516, 116897498, -6.821125507354736, -0.7216174006462097, 7.159151554107666, -2.4312984943389893, -1.9233089685440063, -2.910832166671753, 1.119873046875, -0.407958984375, 0.054931640625
517, 116914165, -6.808719635009766, -0.7102956771850586, 7.121787071228027, -2.391611337661743, -1.8628500699996948, -2.8360939025878906, 1.120361328125, -0.406982421875, 0.054931640625
518, 116930832, -6.81065559387207, -0.7287050485610962, 7.132360458374023, -2.3577768802642822, -1.9293276071548462, -2.725536584854126, 1.119384765625, -0.406494140625, 0.055908203125
519, 116947499, -6.818660259246826, -0.7218963503837585, 7.120645523071289, -2.363821506500244, -1.9912464618682861, -2.7207601070404053, 1.121337890625, -0.407470703125, 0.056396484375
520, 116964166, -6.797398090362549, -0.7380983829498291, 7.15171480178833, -2.3269524574279785, -1.9644943475723267, -2.6087820529937744, 1.119873046875, -0.408203125, 0.053466796875
521, 116980833, -6.806819915771484, -0.7137561440467834, 7.154843807220459, -2.3708655834198, -1.7819782495498657, -2.5514349937438965, 1.117431640625, -0.407958984375, 0.0537109375
522, 116997500, -6.7983717918396, -0.7219125628471375, 7.14985466003418, -2.3308839797973633, -1.709007740020752, -2.560053825378418, 1.12109375, -0.40869140625, 0.055419921875
523, 117014167, -6.809372901916504, -0.7226248979568481, 7.135332107543945, -2.4807567596435547, -1.6675406694412231, -2.5139636993408203, 1.120849609375, -0.406982421875, 0.053466796875
524, 117030834, -6.808843612670898, -0.7174162864685059, 7.1398186683654785, -2.3687267303466797, -1.693050742149353, -2.5498852729797363, 1.121337890625, -0.406494140625, 0.054931640625
525, 117047501, -6.810300350189209, -0.7277494668960571, 7.143350601196289, -2.4132158756256104, -1.6681936979293823, -2.4553744792938232, 1.119384765625, -0.405517578125, 0.053955078125
526, 117064168, -6.813949108123779, -0.7205772399902344, 7.165345191955566, -2.4618163108825684, -1.6979173421859741, -2.4098222255706787, 1.118896484375, -0.406982421875, 0.052734375
527, 117080835, -6.7990875244140625, -0.7186158299446106, 7.147111892700195, -2.4739437103271484, -1.592085361480713, -2.331575393676758, 1.119384765625, -0.406005859375, 0.055419921875
528, 117097502, -6.798947334289551, -0.7080973982810974, 7.149224281311035, -2.4846625328063965, -1.6288654804229736, -2.4018311500549316, 1.119384765625, -0.407958984375, 0.053955078125
529, 117114169, -6.800587177276611, -0.7208016514778137, 7.141562461853027, -2.4225516319274902, -1.6163280010223389, -2.344356060028076, 1.120361328125, -0.406005859375, 0.053466796875
530, 117130836, -6.814154148101807, -0.7096952199935913, 7.16625452041626, -2.4148805141448975, -1.578420877456665, -2.282872438430786, 1.120849609375, -0.407470703125, 0.054931640625
531, 117147503, -6.808002471923828, -0.7240962386131287, 7.159101486206055, -2.4593698978424072, -1.5990264415740967, -2.292285680770874, 1.119384765625, -0.406005859375, 0.054443359375
532, 117164170, -6.817035675048828, -0.7211319804191589, 7.159571170806885, -2.4576923847198486, -1.6176854372024536, -2.3340086936950684, 1.118896484375, -0.4091796875, 0.054443359375
533, 117180837, -6.804994583129883, -0.7126185297966003, 7.131916522979736, -2.4247031211853027, -1.7004656791687012, -2.3781392574310303, 1.119384765625, -0.408203125, 0.057861328125
534, 117197504, -6.800057888031006, -0.7228493094444275, 7.127737045288086, -2.4306583404541016, -1.896902322769165, -2.5465176105499268, 1.118408203125, -0.405517578125, 0.055908203125
535, 117214171, -6.8031744956970215, -0.7181310653686523, 7.155765533447266, -2.3062572479248047, -1.9610109329223633, -2.5132205486297607, 1.119873046875, -0.407958984375, 0.054931640625
536, 117230838, -6.810311317443848, -0.7212476134300232, 7.1561102867126465, -2.3224704265594482, -1.888911247253418, -2.5032706260681152, 1.120361328125, -0.406005859375, 0.054931640625
537, 117247505, -6.797312259674072, -0.7137295007705688, 7.15165901184082, -2.304631233215332, -2.0363380908966064, -2.538090944290161, 1.118896484375, -0.407470703125, 0.055908203125
538, 117264172, -6.791420936584473, -0.7328947186470032, 7.154613018035889, -2.318551540374756, -2.0624630451202393, -2.533057928085327, 1.118408203125, -0.405029296875, 0.0537109375
539, 117280839, -6.8031158447265625, -0.7340331077575684, 7.1580400466918945, -2.3364803791046143, -1.9993020296096802, -2.4421839714050293, 1.119873046875, -0.406005859375, 0.054443359375
540, 117297506, -6.803473949432373, -0.7255710959434509, 7.16574239730835, -2.415905475616455, -1.8984519243240356, -2.5069587230682373, 1.119384765625, -0.405517578125, 0.055908203125
541, 117314173, -6.805532455444336, -0.7314981818199158, 7.178744792938232, -2.530855417251587, -1.8562806844711304, -2.537360906600952, 1.118408203125, -0.406982421875, 0.054931640625
542, 117330840, -6.783662796020508, -0.7255027294158936, 7.179138660430908, -2.5711824893951416, -1.7784693241119385, -2.566918134689331, 1.120849609375, -0.406005859375, 0.052734375
543, 117347507, -6.793284893035889, -0.7296209335327148, 7.156526565551758, -2.577110767364502, -1.527104139328003, -2.50295352935791, 1.117919921875, -0.404541015625, 0.0546875
544, 117364174, -6.7937116622924805, -0.7141415476799011, 7.143165588378906, -2.5871903896331787, -1.559249997138977, -2.434640884399414, 1.116455078125, -0.408203125, 0.05419921875
545, 117380841, -6.806236267089844, -0.7303548455238342, 7.148090362548828, -2.698503255844116, -1.4939504861831665, -2.5235939025878906, 1.119873046875, -0.404541015625, 0.053955078125
546, 117397508, -6.795039176940918, -0.7344958782196045, 7.1309590339660645, -2.7151131629943848, -1.4962557554244995, -2.6340231895446777, 1.121337890625, -0.405517578125, 0.053466796875
547, 117414175, -6.800679683685303, -0.7277534008026123, 7.144992351531982, -2.681060791015625, -1.538798451423645, -2.5841424465179443, 1.118896484375, -0.406494140625, 0.0537109375
548, 117430842, -6.793965816497803, -0.7139394879341125, 7.14027738571167, -2.625430107116699, -1.5016728639602661, -2.6033904552459717, 1.121337890625, -0.404541015625, 0.052734375
549, 117447509, -6.797550678253174, -0.7314479947090149, 7.165043830871582, -2.696864128112793, -1.5087547302246094, -2.6325759887695312, 1.117919921875, -0.404541015625, 0.0546875
550, 117464176, -6.797557353973389, -0.7389878630638123, 7.148061275482178, -2.63757061958313, -1.452150583267212, -2.5642800331115723, 1.119873046875, -0.405517578125, 0.055908203125
551, 117480843, -6.7983527183532715, -0.740706205368042, 7.165101528167725, -2.530458450317383, -1.539387583732605, -2.441326141357422, 1.117431640625, -0.404541015625, 0.05419921875
552, 117497510, -6.787679672241211, -0.7467499375343323, 7.127748966217041, -2.392559051513672, -1.6116790771484375, -2.285818099975586, 1.118408203125, -0.405029296875, 0.05419921875
553, 117514177, -6.807862758636475, -0.7361875772476196, 7.134325981140137, -2.317744255065918, -1.7269489765167236, -2.1970958709716797, 1.119384765625, -0.405517578125, 0.053955078125
554, 117530844, -6.799932479858398, -0.7275466918945312, 7.132664203643799, -2.2127578258514404, -1.7742170095443726, -2.099165678024292, 1.117919921875, -0.405029296875, 0.054443359375
555, 117547511, -6.791833400726318, -0.7356795072555542, 7.14958381652832, -2.0191643238067627, -1.8456125259399414, -2.0769338607788086, 1.118408203125, -0.406982421875, 0.053955078125
556, 117564178, -6.8032941818237305, -0.7327696084976196, 7.144228935241699, -2.029435157775879, -1.8050678968429565, -1.967375636100769, 1.118896484375, -0.405517578125, 0.055419921875
557, 117580845, -6.787750244140625, -0.7183002233505249, 7.160526752471924, -2.1223578453063965, -1.7595670223236084, -2.0945682525634766, 1.119873046875, -0.406005859375, 0.054443359375
558, 117597512, -6.800014019012451, -0.7235056161880493, 7.1517863273620605, -2.2245399951934814, -1.7608091831207275, -2.247476100921631, 1.117919921875, -0.406005859375, 0.052734375
559, 117614179, -6.803000450134277, -0.7078427672386169, 7.179502010345459, -2.3032093048095703, -1.7144373655319214, -2.2849860191345215, 1.119873046875, -0.405517578125, 0.053955078125
560, 117630846, -6.7919535636901855, -0.7156392931938171, 7.171182155609131, -2.2975616455078125, -1.7490273714065552, -2.4661571979522705, 1.117919921875, -0.404541015625, 0.052734375
561, 117647513, -6.797827243804932, -0.7278894186019897, 7.16649055480957, -2.225846290588379, -1.6486895084381104, -2.4424784183502197, 1.118896484375, -0.405029296875, 0.0537109375
562, 117664180, -6.778689861297607, -0.7672239542007446, 7.139952182769775, -2.0955159664154053, -1.7761256694793701, -2.3344058990478516, 1.116943359375, -0.406494140625, 0.055908203125
563, 117680847, -6.790213108062744, -0.720812201499939, 7.150496959686279, -2.022570848464966, -1.8140449523925781, -2.083195924758911, 1.119384765625, -0.406005859375, 0.0537109375
564, 117697514, -6.800553321838379, -0.7165082097053528, 7.167675971984863, -2.1021623611450195, -1.6919878721237183, -2.075025796890259, 1.118408203125, -0.404541015625, 0.054931640625
565, 117714181, -6.783470153808594, -0.7448616027832031, 7.163062572479248, -2.12892746925354, -1.6372789144515991, -2.1297855377197266, 1.120849609375, -0.406982421875, 0.055419921875
566, 117730848, -6.7740936279296875, -0.7349619269371033, 7.152338981628418, -2.2511770725250244, -1.5101631879806519, -2.124227523803711, 1.119873046875, -0.406982421875, 0.05322265625
567, 117747515, -6.799816131591797, -0.7249656319618225, 7.149416923522949, -2.2133212089538574, -1.5774091482162476, -2.050142526626587, 1.118896484375, -0.406005859375, 0.055908203125
568, 117764182, -6.785768985748291, -0.7393338084220886, 7.162869930267334, -2.286612033843994, -1.7137712240219116, -2.0575194358825684, 1.118408203125, -0.406494140625, 0.05419921875
569, 117780849, -6.793673038482666, -0.7285060286521912, 7.167149066925049, -2.34527850151062, -1.653402328491211, -2.115980625152588, 1.118896484375, -0.406982421875, 0.054443359375
570, 117797516, -6.783933162689209, -0.7330657243728638, 7.163529396057129, -2.288149118423462, -1.7562882900238037, -1.9985716342926025, 1.118408203125, -0.406005859375, 0.0537109375
571, 117814183, -6.777640342712402, -0.6901460886001587, 7.181469917297363, -2.344944953918457, -1.6100525856018066, -2.0397441387176514, 1.118896484375, -0.406494140625, 0.0537109375
572, 117830850, -6.765613555908203, -0.7249370217323303, 7.159915447235107, -2.528613805770874, -1.405394434928894, -2.0790979862213135, 1.119384765625, -0.406494140625, 0.054443359375
573, 117847517, -6.787060260772705, -0.7148519158363342, 7.167439937591553, -2.4873387813568115, -1.302687406539917, -2.131514549255371, 1.120361328125, -0.406494140625, 0.053466796875
574, 117864184, -6.790909290313721, -0.7292210459709167, 7.160120964050293, -2.58284854888916, -1.39139723777771, -2.062821388244629, 1.119873046875, -0.406494140625, 0.054443359375
575, 117880851, -6.793618202209473, -0.7453168034553528, 7.15764856338501, -2.555814504623413, -1.5038368701934814, -2.0089704990386963, 1.117431640625, -0.405517578125, 0.055908203125
576, 117897518, -6.805286884307861, -0.6909722685813904, 7.1711883544921875, -2.3924694061279297, -1.554089069366455, -1.9661973714828491, 1.119873046875, -0.405517578125, 0.054443359375
577, 117914185, -6.777713775634766, -0.7274669408798218, 7.174938678741455, -2.492858409881592, -1.4560563564300537, -2.0543177127838135, 1.118408203125, -0.405029296875, 0.0537109375
578, 117930852, -6.7981858253479, -0.7260079383850098, 7.148373603820801, -2.424177885055542, -1.5163356065750122, -2.0627315044403076, 1.118408203125, -0.406494140625, 0.05322265625
579, 117947519, -6.800477027893066, -0.7205926179885864, 7.162228584289551, -2.4931187629699707, -1.5959341526031494, -2.141413450241089, 1.119384765625, -0.406494140625, 0.054931640625
580, 117964186, -6.792126178741455, -0.7157610058784485, 7.167798042297363, -2.639094352722168, -1.615265130996704, -2.289276123046875, 1.118896484375, -0.406494140625, 0.0537109375
581, 117980853, -6.802199840545654, -0.7308337092399597, 7.167002201080322, -2.510211229324341, -1.5606459379196167, -2.2590277194976807, 1.117919921875, -0.405029296875, 0.054443359375
582, 117997520, -6.791189670562744, -0.7183502316474915, 7.178240776062012, -2.5550334453582764, -1.5169122219085693, -2.3048741817474365, 1.119384765625, -0.405029296875, 0.05322265625
583, 118014187, -6.794491291046143, -0.7215263247489929, 7.166476249694824, -2.568019151687622, -1.4790951013565063, -2.368227005004883, 1.119873046875, -0.404052734375, 0.05224609375
584, 118030854, -6.8015265464782715, -0.7096430659294128, 7.187350749969482, -2.7272660732269287, -1.2696855068206787, -2.4590370655059814, 1.119384765625, -0.406005859375, 0.053955078125
585, 118047521, -6.802801132202148, -0.7099682688713074, 7.182124614715576, -2.743645668029785, -1.1842416524887085, -2.7296483516693115, 1.118408203125, -0.406005859375, 0.05126953125
586, 118064188, -6.7982001304626465, -0.7180789113044739, 7.157662391662598, -2.7380237579345703, -1.2090604305267334, -2.6941235065460205, 1.118896484375, -0.406494140625, 0.055908203125
587, 118080855, -6.792926788330078, -0.7461681962013245, 7.144287109375, -2.5911474227905273, -1.438332438468933, -2.590545654296875, 1.120849609375, -0.405517578125, 0.05322265625
588, 118097522, -6.8111891746521, -0.7189368605613708, 7.156060695648193, -2.5131053924560547, -1.4970240592956543, -2.4871726036071777, 1.118896484375, -0.405517578125, 0.054931640625
589, 118114189, -6.784970283508301, -0.7242224812507629, 7.167907238006592, -2.443195343017578, -1.4855239391326904, -2.426086187362671, 1.120361328125, -0.404541015625, 0.054931640625
590, 118130856, -6.79179048538208, -0.742152214050293, 7.159856796264648, -2.4331037998199463, -1.391781210899353, -2.4553613662719727, 1.118896484375, -0.406494140625, 0.054931640625
591, 118147523, -6.7835564613342285, -0.7546823024749756, 7.156365394592285, -2.4160590171813965, -1.407584547996521, -2.371441602706909, 1.119384765625, -0.405029296875, 0.054443359375
592, 118164190, -6.7986016273498535, -0.7388714551925659, 7.161923885345459, -2.3477370738983154, -1.4328514337539673, -2.3930459022521973, 1.118408203125, -0.405029296875, 0.05322265625
593, 118180857, -6.796308994293213, -0.743665337562561, 7.166535377502441, -2.3097152709960938, -1.5172066688537598, -2.3894855976104736, 1.120849609375, -0.403564453125, 0.0537109375
594, 118197524, -6.784186363220215, -0.7356564402580261, 7.158684253692627, -2.220710515975952, -1.600934624671936, -2.2509078979492188, 1.118408203125, -0.405029296875, 0.055908203125
595, 118214191, -6.791963577270508, -0.7407484650611877, 7.15270471572876, -2.221492052078247, -1.5548831224441528, -2.2464773654937744, 1.117919921875, -0.405517578125, 0.0537109375
596, 118230858, -6.79829740524292, -0.7557845115661621, 7.158153057098389, -2.2110543251037598, -1.579304575920105, -2.2486412525177, 1.120849609375, -0.406005859375, 0.053955078125
597, 118247525, -6.77989387512207, -0.7418266534805298, 7.1475677490234375, -2.1413114070892334, -1.6543370485305786, -2.1551291942596436, 1.118896484375, -0.406982421875, 0.0537109375
598, 118264192, -6.799696445465088, -0.7326781749725342, 7.149316787719727, -2.342383861541748, -1.647050380706787, -2.3322927951812744, 1.119384765625, -0.406005859375, 0.054931640625
599, 118280859, -6.808720111846924, -0.7466270923614502, 7.183577060699463, -2.2895705699920654, -1.5295008420944214, -2.246502637863159, 1.1171875, -0.404541015625, 0.05322265625
600, 118297526, -6.800447463989258, -0.702425479888916, 7.151294708251953, -2.5055367946624756, -1.5356096029281616, -2.418684244155884, 1.118408203125, -0.404052734375, 0.0537109375
601, 118314193, -6.790987014770508, -0.729472279548645, 7.144351005554199, -2.583348512649536, -1.3581136465072632, -2.619680166244507, 1.120361328125, -0.405517578125, 0.05322265625
602, 118330860, -6.7957916259765625, -0.7415456175804138, 7.16269588470459, -2.675631284713745, -1.1906577348709106, -2.5588114261627197, 1.119384765625, -0.405517578125, 0.053955078125
603, 118347527, -6.807097911834717, -0.7445886731147766, 7.167232513427734, -2.5398197174072266, -1.3680641651153564, -2.498365640640259, 1.116943359375, -0.405029296875, 0.05419921875
604, 118364194, -6.801633834838867, -0.7693701982498169, 7.155093669891357, -2.4104878902435303, -1.4958713054656982, -2.3612220287323, 1.119873046875, -0.404052734375, 0.054443359375
605, 118380861, -6.80239725112915, -0.740416407585144, 7.141755104064941, -2.2240660190582275, -1.5700712203979492, -2.1713805198669434, 1.117919921875, -0.406494140625, 0.05419921875
606, 118397528, -6.796473503112793, -0.7460477352142334, 7.1783270835876465, -2.1652462482452393, -1.6663109064102173, -2.041165590286255, 1.119873046875, -0.407470703125, 0.05322265625
607, 118414195, -6.812182903289795, -0.739722728729248, 7.147784233093262, -2.130643606185913, -1.606057047843933, -2.072003126144409, 1.119384765625, -0.407470703125, 0.055908203125
608, 118430862, -6.792263507843018, -0.7417077422142029, 7.164060115814209, -2.025273084640503, -1.5915089845657349, -2.131962776184082, 1.117919921875, -0.405029296875, 0.0537109375
609, 118447529, -6.802287578582764, -0.7511150240898132, 7.16126012802124, -2.0975522994995117, -1.5984630584716797, -1.970679521560669, 1.118896484375, -0.405029296875, 0.055419921875
610, 118464196, -6.80560827255249, -0.7264307141304016, 7.152275085449219, -2.0554065704345703, -1.5578669309616089, -2.062821388244629, 1.120361328125, -0.404052734375, 0.055419921875
611, 118480863, -6.805053234100342, -0.7216404676437378, 7.151894569396973, -2.2485647201538086, -1.708943486213684, -2.1811647415161133, 1.117919921875, -0.405029296875, 0.0537109375
612, 118497530, -6.799407958984375, -0.7114969491958618, 7.15008020401001, -2.3280787467956543, -1.571569561958313, -2.05877423286438, 1.117919921875, -0.404541015625, 0.0546875
613, 118514197, -6.810992240905762, -0.7435384392738342, 7.1493940353393555, -2.2539045810699463, -1.6457823514938354, -2.0488874912261963, 1.119384765625, -0.404541015625, 0.055419921875
614, 118530864, -6.801774978637695, -0.7282214760780334, 7.15437650680542, -2.224411725997925, -1.8317816257476807, -2.0136191844940186, 1.119384765625, -0.406982421875, 0.053955078125
615, 118547531, -6.788647174835205, -0.7103381752967834, 7.156884670257568, -2.378431797027588, -1.7162808179855347, -2.1574714183807373, 1.118408203125, -0.405029296875, 0.05322265625
616, 118564198, -6.798790454864502, -0.7187178134918213, 7.1434173583984375, -2.4736616611480713, -1.7542905807495117, -2.2751119136810303, 1.119384765625, -0.404541015625, 0.05126953125
617, 118580865, -6.802966117858887, -0.7227886319160461, 7.178316593170166, -2.5445070266723633, -1.7500391006469727, -2.393238067626953, 1.119384765625, -0.404541015625, 0.05224609375
618, 118597532, -6.793848037719727, -0.721854567527771, 7.1588616371154785, -2.5303943157196045, -1.759016513824463, -2.451507091522217, 1.120849609375, -0.405029296875, 0.052734375
619, 118614199, -6.78506326675415, -0.7167261838912964, 7.154829502105713, -2.7508556842803955, -1.221649169921875, -2.343050241470337, 1.119873046875, -0.406982421875, 0.053466796875
620, 118630866, -6.796996116638184, -0.7091817855834961, 7.177408695220947, -3.2002296447753906, -1.0249944925308228, -2.476376533508301, 1.12255859375, -0.404541015625, 0.053955078125
621, 118647533, -6.802759647369385, -0.7455660700798035, 7.157737731933594, -3.2468833923339844, -1.0297200679779053, -2.5035386085510254, 1.118896484375, -0.404052734375, 0.0537109375
622, 118664200, -6.781992435455322, -0.7413877248764038, 7.165023326873779, -3.066045045852661, -1.0919207334518433, -2.5697989463806152, 1.119873046875, -0.404541015625, 0.05322265625
623, 118680867, -6.808447360992432, -0.7728596329689026, 7.155360221862793, -3.0204925537109375, -1.1107585430145264, -2.504896402359009, 1.118408203125, -0.405029296875, 0.054931640625
624, 118697534, -6.783344745635986, -0.7745205163955688, 7.153423309326172, -2.9175045490264893, -1.0352013111114502, -2.174992322921753, 1.120361328125, -0.405029296875, 0.054443359375
625, 118714201, -6.79872989654541, -0.765058159828186, 7.1618218421936035, -3.1013009548187256, -0.7558820247650146, -1.7751266956329346, 1.122802734375, -0.403564453125, 0.056396484375
626, 118730868, -6.814409255981445, -0.7649959921836853, 7.156620025634766, -3.516777992248535, -0.35889798402786255, -1.4087625741958618, 1.120849609375, -0.405029296875, 0.054443359375
627, 118747535, -6.803188800811768, -0.7282294631004333, 7.1353278160095215, -3.519646644592285, -0.473412424325943, -1.4993419647216797, 1.121826171875, -0.405517578125, 0.053466796875
628, 118764202, -6.811267375946045, -0.7266833782196045, 7.131986141204834, -3.5044710636138916, -0.6969729065895081, -1.6707935333251953, 1.116943359375, -0.405029296875, 0.056884765625
629, 118780869, -6.810805797576904, -0.7238994240760803, 7.145057201385498, -3.6713881492614746, -0.7895114421844482, -1.873940348625183, 1.121826171875, -0.40283203125, 0.054931640625
630, 118797536, -6.797720432281494, -0.7435703277587891, 7.13397216796875, -3.552058696746826, -1.0261600017547607, -1.9537878036499023, 1.122314453125, -0.403564453125, 0.054931640625
631, 118814203, -6.804986000061035, -0.7620645761489868, 7.147383689880371, -3.6123385429382324, -1.0393506288528442, -2.1266865730285645, 1.120849609375, -0.405029296875, 0.055908203125
632, 118830870, -6.817473411560059, -0.7360687851905823, 7.153947830200195, -4.249800205230713, -0.1868574619293213, -1.9270100593566895, 1.121337890625, -0.403076171875, 0.056884765625
633, 118847537, -6.845003128051758, -0.6367678046226501, 7.108811855316162, -6.051680088043213, 1.5918742418289185, -2.074244737625122, 1.122802734375, -0.4033203125, 0.057861328125
634, 118864204, -6.852265357971191, -0.4811251163482666, 7.16240119934082, -9.00818157196045, 4.013428211212158, -3.9265947341918945, 1.118896484375, -0.403076171875, 0.056884765625
635, 118880871, -6.794261455535889, -0.6629552841186523, 7.189245223999023, -10.89438247680664, 6.0604753494262695, -6.343719482421875, 1.123291015625, -0.400390625, 0.0595703125
636, 118897538, -6.810111045837402, -0.7642964720726013, 7.160827159881592, -12.0906400680542, 9.448092460632324, -8.292106628417969, 1.122802734375, -0.39990234375, 0.0615234375
637, 118914205, -6.87183952331543, -0.6954969763755798, 7.2667036056518555, -14.859108924865723, 15.435722351074219, -11.703938484191895, 1.126953125, -0.394287109375, 0.063720703125
638, 118930872, -7.131226062774658, -0.4437277317047119, 7.6361083984375, -19.183353424072266, 24.257553100585938, -16.340791702270508, 1.12890625, -0.38818359375, 0.072509765625
639, 118947539, -6.901701927185059, -0.6927047371864319, 7.618475914001465, -22.039031982421875, 28.152875900268555, -22.484233856201172, 1.130859375, -0.380859375, 0.08154296875
640, 118964206, -6.2435622215271, -1.1826260089874268, 7.492659091949463, -20.861549377441406, 34.1899299621582, -23.610336303710938, 1.1337890625, -0.377197265625, 0.091552734375
641, 118980873, -5.920921325683594, -1.3745142221450806, 7.590317726135254, -21.926965713500977, 48.68650817871094, -20.93402671813965, 1.139404296875, -0.368408203125, 0.101806640625
642, 118997540, -6.758685111999512, -0.4442334473133087, 10.45885944366455, -51.620330810546875, 70.08501434326172, -15.958251953125, 1.145751953125, -0.35986328125, 0.12353515625
643, 119014207, -5.362674236297607, -2.62505841255188, 11.143357276916504, -66.81949615478516, 77.4366455078125, 7.223541736602783, 1.15234375, -0.355712890625, 0.14453125
644, 119030874, -3.826030731201172, -5.811071395874023, 10.93484115600586, -53.197608947753906, 95.38247680664062, 33.04994583129883, 1.1630859375, -0.356201171875, 0.171142578125
645, 119047541, -4.192361354827881, -7.234865188598633, 14.238642692565918, -16.448253631591797, 83.4700698852539, 38.80854034423828, 1.171142578125, -0.3671875, 0.195068359375
646, 119064208, -2.286668539047241, -6.659613132476807, 15.383056640625, 9.746603012084961, 46.50624465942383, 22.5408992767334, 1.178466796875, -0.3759765625, 0.20703125
647, 119080875, 1.8513236045837402, -4.121127128601074, 14.453158378601074, 11.44077205657959, 23.75444793701172, 12.961762428283691, 1.1806640625, -0.37890625, 0.21435546875
648, 119097542, 1.6758188009262085, -2.842322587966919, 15.284894943237305, -9.319177627563477, 4.100898742675781, 15.101744651794434, 1.18359375, -0.381103515625, 0.215087890625
649, 119114209, 0.34931516647338867, -2.630277633666992, 15.58617115020752, -30.356021881103516, -34.95833206176758, 20.42770004272461, 1.185791015625, -0.38427734375, 0.20947265625
650, 119130876, -0.5647768974304199, -2.4703357219696045, 14.443473815917969, -47.8144416809082, -75.75015258789062, 24.407594680786133, 1.18212890625, -0.38427734375, 0.19384765625
651, 119147543, -1.4914064407348633, -2.6801822185516357, 12.57784652709961, -60.6874885559082, -104.31587219238281, 25.04883575439453, 1.177001953125, -0.383056640625, 0.170654296875
652, 119164210, -2.9177160263061523, -3.1730456352233887, 10.986037254333496, -65.27229309082031, -120.06825256347656, 21.077451705932617, 1.168212890625, -0.3828125, 0.14306640625
653, 119180877, -4.119025230407715, -3.63285493850708, 9.683027267456055, -58.48220443725586, -126.24067687988281, 14.492631912231445, 1.160400390625, -0.378662109375, 0.114013671875
654, 119197544, -4.798337936401367, -3.637417793273926, 8.875080108642578, -44.467464447021484, -120.31009674072266, 9.344358444213867, 1.1474609375, -0.374755859375, 0.083984375
655, 119214211, -7.382152557373047, -3.306424617767334, 9.946292877197266, -37.62549591064453, -110.34882354736328, -0.16973064839839935, 1.1357421875, -0.36865234375, 0.057861328125
656, 119230878, -9.832110404968262, -3.158252000808716, 10.673687934875488, -39.852821350097656, -119.00341033935547, -20.367469787597656, 1.12060546875, -0.35595703125, 0.03173828125
