sep=,
DeviceTag:,B,,,,,,,,,,,,,,,,,
FirmwareVersion:,2.2.1,,,,,,,,,,,,,,,,,
AppVersion:,2023.6.1,,,,,,,,,,,,,,,,,
SyncStatus:,Synced,,,,,,,,,,,,,,,,,
OutputRate:,60Hz,,,,,,,,,,,,,,,,,
FilterProfile:,General,,,,,,,,,,,,,,,,,
Measurement Mode:,Inertial Mode - Rate quantities (with mag),,,,,,,,,,,,,,,,,
StartTime:,2023-12-07 12:27:49.611 +0200,,,,,,,,,,,,,,,,,
 2023,,,,,,,,,,,,,,,,,,,

PacketCounter,SampleTimeFine,Acc_X,Acc_Y,Acc_Z,Gyr_X,Gyr_Y,Gyr_Z,Mag_X,Mag_Y,Mag_Z
1, 108313993, -6.259274005889893, 1.700971245765686, 7.209390163421631, -0.03684386610984802, -0.6738700866699219, -1.491798758506775, 0.59765625, 0.1953125, -0.71044921875
2, 108330660, -6.251586437225342, 1.6919550895690918, 7.188658237457275, -0.12643709778785706, -0.6464517712593079, -1.4629205465316772, 0.59521484375, 0.1953125, -0.7109375
3, 108347327, -6.261041164398193, 1.6837531328201294, 7.1702680587768555, -0.12446492165327072, -0.595264732837677, -1.470271348953247, 0.595703125, 0.1943359375, -0.709228515625
4, 108363994, -6.256625175476074, 1.6960763931274414, 7.1644511222839355, -0.15354815125465393, -0.7565863728523254, -1.4388446807861328, 0.59619140625, 0.19482421875, -0.709228515625
5, 108380661, -6.267940521240234, 1.6762487888336182, 7.183884143829346, -0.18537190556526184, -0.8480748534202576, -1.2557265758514404, 0.59716796875, 0.196044921875, -0.709716796875
6, 108397328, -6.244308948516846, 1.6779366731643677, 7.187222957611084, -0.1355680227279663, -0.909430205821991, -1.3026107549667358, 0.59521484375, 0.197021484375, -0.7099609375
7, 108413995, -6.2587995529174805, 1.692592740058899, 7.193847179412842, -0.06937199831008911, -0.8925386071205139, -1.2263489961624146, 0.59814453125, 0.197021484375, -0.709716796875
8, 108430662, -6.263229846954346, 1.6956777572631836, 7.161619186401367, -0.04054490476846695, -0.8045974373817444, -1.1775439977645874, 0.5966796875, 0.1962890625, -0.71044921875
9, 108447329, -6.266659259796143, 1.6972662210464478, 7.177685260772705, -0.24837914109230042, -0.7930331826210022, -1.2660740613937378, 0.59716796875, 0.197509765625, -0.71044921875
10, 108463996, -6.254952907562256, 1.6856099367141724, 7.180330753326416, -0.05540027096867561, -0.7665881514549255, -1.1910419464111328, 0.59765625, 0.1943359375, -0.710205078125
11, 108480663, -6.253137588500977, 1.666536808013916, 7.186649799346924, -0.07768331468105316, -0.8107188940048218, -1.255611538887024, 0.595947265625, 0.19287109375, -0.707275390625
12, 108497330, -6.262724876403809, 1.7031491994857788, 7.166989326477051, 0.010187450796365738, -0.7771918177604675, -1.2161550521850586, 0.59619140625, 0.19580078125, -0.7109375
13, 108513997, -6.2517900466918945, 1.6994198560714722, 7.179163455963135, -0.029736345633864403, -0.844463586807251, -1.2253628969192505, 0.595703125, 0.1943359375, -0.709716796875
14, 108530664, -6.259639739990234, 1.698297142982483, 7.171004295349121, -0.07934814691543579, -0.8944339156150818, -1.1915924549102783, 0.5947265625, 0.1943359375, -0.708251953125
15, 108547331, -6.257663726806641, 1.6899702548980713, 7.163463592529297, -0.05989529564976692, -0.892013430595398, -1.2304340600967407, 0.5986328125, 0.196533203125, -0.7109375
16, 108563998, -6.258589267730713, 1.6929627656936646, 7.18356466293335, -0.12319710105657578, -0.8822551369667053, -1.2753459215164185, 0.59716796875, 0.196044921875, -0.708740234375
17, 108580665, -6.2636260986328125, 1.6776623725891113, 7.187912464141846, -0.055208172649145126, -0.9494754672050476, -1.1959850788116455, 0.595703125, 0.19482421875, -0.708740234375
18, 108597332, -6.261049270629883, 1.6893612146377563, 7.161703586578369, -0.12166032940149307, -0.9285884499549866, -1.0820854902267456, 0.59619140625, 0.19580078125, -0.708740234375
19, 108613999, -6.259243011474609, 1.6830493211746216, 7.194890975952148, -0.05481117591261864, -0.9584271907806396, -1.1060843467712402, 0.59521484375, 0.19482421875, -0.7109375
20, 108630666, -6.265626430511475, 1.6899582147598267, 7.173901557922363, 0.06689397245645523, -0.9754340648651123, -0.9700425863265991, 0.598876953125, 0.195556640625, -0.709228515625
21, 108647333, -6.259092330932617, 1.6913927793502808, 7.160983085632324, 0.14984071254730225, -0.9593492746353149, -0.9162943363189697, 0.5966796875, 0.19482421875, -0.709228515625
22, 108664000, -6.25880765914917, 1.7089534997940063, 7.18025541305542, 0.0328931100666523, -0.959989607334137, -1.0186939239501953, 0.59521484375, 0.193359375, -0.709228515625
23, 108680667, -6.253100395202637, 1.6977678537368774, 7.181046962738037, -0.11119753122329712, -0.8916548490524292, -1.0964667797088623, 0.597412109375, 0.193359375, -0.710693359375
24, 108697334, -6.257063865661621, 1.6915723085403442, 7.162169933319092, -0.1592341661453247, -0.9503976702690125, -1.2151434421539307, 0.597412109375, 0.19482421875, -0.708251953125
25, 108714001, -6.269373416900635, 1.6728532314300537, 7.162342071533203, -0.158516988158226, -0.9740510582923889, -1.049032211303711, 0.596435546875, 0.19287109375, -0.708740234375
26, 108730668, -6.2507123947143555, 1.691910743713379, 7.149109840393066, 0.026874123141169548, -0.907355546951294, -1.019808053970337, 0.5947265625, 0.193359375, -0.71142578125
27, 108747335, -6.254185676574707, 1.7025851011276245, 7.200832366943359, 0.050015199929475784, -0.8883253335952759, -1.076373815536499, 0.595703125, 0.19287109375, -0.710205078125
28, 108764002, -6.251476287841797, 1.685441493988037, 7.173908233642578, 0.012825559824705124, -0.9387949705123901, -1.0528613328933716, 0.5966796875, 0.19482421875, -0.709228515625
29, 108780669, -6.25303840637207, 1.717997670173645, 7.170045375823975, 0.003912339918315411, -0.9020665287971497, -1.009908676147461, 0.59619140625, 0.193359375, -0.709716796875
30, 108797336, -6.249137878417969, 1.706160545349121, 7.186391353607178, -0.10398755967617035, -0.9733721613883972, -1.091702938079834, 0.59619140625, 0.19384765625, -0.710205078125
31, 108814003, -6.251276969909668, 1.7130346298217773, 7.1664719581604, -0.1751524657011032, -1.0199873447418213, -1.1169698238372803, 0.59716796875, 0.1943359375, -0.7109375
32, 108830670, -6.245566368103027, 1.701613187789917, 7.166274547576904, -0.17552383244037628, -0.976740300655365, -1.0949429273605347, 0.59521484375, 0.19482421875, -0.71142578125
33, 108847337, -6.259552001953125, 1.7129052877426147, 7.168638229370117, -0.154739111661911, -0.9012596011161804, -1.1320940256118774, 0.595703125, 0.1943359375, -0.709716796875
34, 108864004, -6.253388404846191, 1.7200357913970947, 7.1827898025512695, -0.1585041880607605, -0.9734490513801575, -1.1718323230743408, 0.596923828125, 0.19287109375, -0.708740234375
35, 108880671, -6.2503437995910645, 1.7180063724517822, 7.181830406188965, -0.2850949764251709, -1.0596102476119995, -1.2276294231414795, 0.59521484375, 0.193359375, -0.709228515625
36, 108897338, -6.2516770362854, 1.6992137432098389, 7.180870056152344, -0.333259642124176, -1.0500439405441284, -1.3102432489395142, 0.597412109375, 0.1943359375, -0.708740234375
37, 108914005, -6.247198581695557, 1.7105242013931274, 7.180344581604004, -0.13865435123443604, -0.8659908175468445, -1.322908639907837, 0.598388671875, 0.19140625, -0.711181640625
38, 108930672, -6.254593849182129, 1.703237533569336, 7.1761627197265625, -0.010206661187112331, -0.7778705358505249, -1.2659589052200317, 0.59619140625, 0.19140625, -0.710693359375
39, 108947339, -6.251574516296387, 1.7163562774658203, 7.165730953216553, -0.03893130645155907, -0.7451887130737305, -1.1757254600524902, 0.5947265625, 0.1943359375, -0.7119140625
40, 108964006, -6.244976997375488, 1.711364507675171, 7.167024612426758, 0.071965292096138, -0.7546398639678955, -1.2961050271987915, 0.59619140625, 0.193359375, -0.7109375
41, 108980673, -6.255362510681152, 1.7074999809265137, 7.16013240814209, 0.07456497102975845, -0.7752323746681213, -1.1051751375198364, 0.59521484375, 0.1923828125, -0.710205078125
42, 108997340, -6.253162384033203, 1.712653636932373, 7.179121017456055, -0.00755574693903327, -0.7852981686592102, -1.0933678150177002, 0.595703125, 0.19384765625, -0.707763671875
43, 109014007, -6.25516414642334, 1.7074223756790161, 7.194223880767822, -0.06861642003059387, -0.8058139085769653, -1.1898506879806519, 0.598388671875, 0.19287109375, -0.708251953125
44, 109030674, -6.25181245803833, 1.7149558067321777, 7.166110038757324, -0.044374000281095505, -0.8108084201812744, -1.2048983573913574, 0.59521484375, 0.193359375, -0.7109375
45, 109047341, -6.249483585357666, 1.6986476182937622, 7.2080302238464355, -0.018774110823869705, -0.833270788192749, -1.077193260192871, 0.5966796875, 0.1943359375, -0.7109375
46, 109064008, -6.240611553192139, 1.7175657749176025, 7.1691436767578125, 0.017884068191051483, -0.7168611288070679, -1.2422159910202026, 0.59423828125, 0.19287109375, -0.709716796875
47, 109080675, -6.2574262619018555, 1.7038098573684692, 7.198025226593018, 0.03236164525151253, -0.7591667771339417, -1.153948187828064, 0.597412109375, 0.193359375, -0.710693359375
48, 109097342, -6.254140853881836, 1.7202942371368408, 7.190091609954834, 0.03717042878270149, -0.7323567271232605, -1.1486655473709106, 0.598388671875, 0.193359375, -0.709228515625
49, 109114009, -6.25175142288208, 1.7078619003295898, 7.184420585632324, -0.07489153742790222, -0.652931809425354, -1.2194079160690308, 0.59423828125, 0.19189453125, -0.71044921875
50, 109130676, -6.252552032470703, 1.732496976852417, 7.171530246734619, -0.08249850571155548, -0.7812769412994385, -1.2775230407714844, 0.59521484375, 0.1943359375, -0.709716796875
51, 109147343, -6.248726844787598, 1.7106571197509766, 7.210296630859375, -0.09661110490560532, -0.9585680961608887, -1.32719886302948, 0.5966796875, 0.19384765625, -0.7109375
52, 109164010, -6.247401714324951, 1.6912368535995483, 7.178757190704346, -0.06432628631591797, -0.7870654463768005, -1.2214312553405762, 0.595703125, 0.1943359375, -0.708740234375
53, 109180677, -6.254048824310303, 1.70010507106781, 7.160608291625977, -0.011769035831093788, -0.7266194224357605, -1.1683872938156128, 0.596923828125, 0.19091796875, -0.710205078125
54, 109197344, -6.24346399307251, 1.7204806804656982, 7.17195987701416, -0.03000527434051037, -0.7862458229064941, -1.2892664670944214, 0.597900390625, 0.19287109375, -0.7119140625
55, 109214011, -6.254566669464111, 1.7247868776321411, 7.196868896484375, -0.14904029667377472, -0.7056426405906677, -1.3092700242996216, 0.59619140625, 0.1943359375, -0.712890625
56, 109230678, -6.249846935272217, 1.7144502401351929, 7.198732376098633, -0.09940288215875626, -0.6684786081314087, -1.3275830745697021, 0.5966796875, 0.1943359375, -0.71240234375
57, 109247345, -6.255194187164307, 1.7214727401733398, 7.184059143066406, -0.11966253072023392, -0.7441769242286682, -1.321884036064148, 0.59423828125, 0.19384765625, -0.708740234375
58, 109264012, -6.260822772979736, 1.7156802415847778, 7.159308910369873, -0.1278970092535019, -0.7272086143493652, -1.3216665983200073, 0.595703125, 0.19384765625, -0.709228515625
59, 109280679, -6.259685516357422, 1.7187250852584839, 7.16825532913208, -0.15745407342910767, -0.7125452756881714, -1.3638763427734375, 0.59521484375, 0.19287109375, -0.71044921875
60, 109297346, -6.260563373565674, 1.7019885778427124, 7.1846466064453125, -0.1709647923707962, -0.7457777857780457, -1.3214232921600342, 0.59716796875, 0.1943359375, -0.709228515625
61, 109314013, -6.250061511993408, 1.7097413539886475, 7.171860218048096, -0.19679519534111023, -0.8054554462432861, -1.3377385139465332, 0.598388671875, 0.19287109375, -0.710205078125
62, 109330680, -6.256891250610352, 1.6954625844955444, 7.188673496246338, -0.07188203930854797, -0.6711423993110657, -1.2749872207641602, 0.59375, 0.1943359375, -0.709716796875
63, 109347347, -6.275755882263184, 1.7186310291290283, 7.170049667358398, -0.08285709470510483, -0.8020361661911011, -1.1562854051589966, 0.59423828125, 0.19287109375, -0.7109375
64, 109364014, -6.262317657470703, 1.728469967842102, 7.193992614746094, -0.028852706775069237, -0.8280585408210754, -1.15483820438385, 0.598388671875, 0.19287109375, -0.710693359375
65, 109380681, -6.265530586242676, 1.7228279113769531, 7.173895359039307, -0.08666057139635086, -0.8518656492233276, -1.169463038444519, 0.5966796875, 0.193359375, -0.710205078125
66, 109397348, -6.254202365875244, 1.7154635190963745, 7.198702812194824, -0.16005375981330872, -0.909199595451355, -1.2339942455291748, 0.59423828125, 0.1943359375, -0.7099609375
67, 109414015, -6.257507801055908, 1.7129584550857544, 7.171654224395752, -0.204005166888237, -0.940652072429657, -1.2290637493133545, 0.59619140625, 0.19287109375, -0.7119140625
68, 109430682, -6.246592044830322, 1.7084131240844727, 7.16988468170166, -0.14409704506397247, -0.9551872611045837, -1.229204773902893, 0.5966796875, 0.193359375, -0.71337890625
69, 109447349, -6.2457709312438965, 1.7106469869613647, 7.18943452835083, -0.21287992596626282, -0.9689283967018127, -1.1570920944213867, 0.597900390625, 0.1923828125, -0.71240234375
70, 109464016, -6.241300106048584, 1.7105300426483154, 7.176220893859863, -0.09385772794485092, -0.9892520904541016, -1.1077876091003418, 0.5966796875, 0.19384765625, -0.708740234375
71, 109480683, -6.24286413192749, 1.720725178718567, 7.183030605316162, -0.19178786873817444, -0.8845601677894592, -1.150151014328003, 0.595703125, 0.193359375, -0.709716796875
72, 109497350, -6.25094747543335, 1.7267093658447266, 7.1737446784973145, -0.08865836262702942, -0.9097503423690796, -1.324471116065979, 0.59521484375, 0.19140625, -0.708740234375
73, 109514017, -6.253856182098389, 1.7231976985931396, 7.189774990081787, -0.2480589747428894, -0.9185994267463684, -1.3636585474014282, 0.59619140625, 0.19189453125, -0.7109375
74, 109530684, -6.249369144439697, 1.716458797454834, 7.197469234466553, -0.1976660043001175, -0.9228895306587219, -1.2811214923858643, 0.597900390625, 0.1943359375, -0.710205078125
75, 109547351, -6.24318265914917, 1.7263737916946411, 7.169968605041504, -0.196039617061615, -0.8373688459396362, -1.3475353717803955, 0.59521484375, 0.19189453125, -0.710693359375
76, 109564018, -6.261839389801025, 1.7162023782730103, 7.1933488845825195, -0.15603256225585938, -0.7124044895172119, -1.3094749450683594, 0.5947265625, 0.19384765625, -0.709228515625
77, 109580685, -6.246448993682861, 1.724110722541809, 7.170708656311035, -0.2125725895166397, -0.7222013473510742, -1.3189642429351807, 0.59716796875, 0.19384765625, -0.71142578125
78, 109597352, -6.2494893074035645, 1.7276475429534912, 7.1722493171691895, -0.16316570341587067, -0.8719587326049805, -1.3179911375045776, 0.59423828125, 0.1923828125, -0.7109375
79, 109614019, -6.234736442565918, 1.7325162887573242, 7.196325302124023, -0.2533736228942871, -0.8301460146903992, -1.3698312044143677, 0.59521484375, 0.1943359375, -0.71240234375
80, 109630686, -6.247125148773193, 1.7018769979476929, 7.177731990814209, -0.26822900772094727, -0.9534072279930115, -1.4367444515228271, 0.59716796875, 0.1943359375, -0.7119140625
81, 109647353, -6.255520343780518, 1.7132289409637451, 7.174564361572266, -0.1342489868402481, -0.8525699973106384, -1.3376233577728271, 0.595703125, 0.193359375, -0.71044921875
82, 109664020, -6.239938735961914, 1.71317458152771, 7.188526630401611, -0.2263394445180893, -0.8461284041404724, -1.4346059560775757, 0.59619140625, 0.190673828125, -0.71142578125
83, 109680687, -6.250823020935059, 1.7169451713562012, 7.179551601409912, -0.2599688768386841, -0.915756344795227, -1.3078739643096924, 0.595703125, 0.193359375, -0.710205078125
84, 109697354, -6.242853164672852, 1.7164469957351685, 7.182044506072998, -0.2691895067691803, -0.9398964643478394, -1.3454480171203613, 0.597412109375, 0.19140625, -0.7119140625
85, 109714021, -6.253399848937988, 1.706453561782837, 7.16028356552124, -0.3570154309272766, -0.9176517128944397, -1.4166384935379028, 0.595703125, 0.19189453125, -0.710693359375
86, 109730688, -6.251321315765381, 1.7205090522766113, 7.1828203201293945, -0.35847538709640503, -0.8739053606987, -1.383777379989624, 0.59375, 0.19482421875, -0.708251953125
87, 109747355, -6.256327152252197, 1.7113066911697388, 7.183572292327881, -0.31673943996429443, -0.8643773794174194, -1.4888020753860474, 0.59619140625, 0.19189453125, -0.71142578125
88, 109764022, -6.241408348083496, 1.7155407667160034, 7.150363445281982, -0.33637160062789917, -0.8396868109703064, -1.4950388669967651, 0.59619140625, 0.1943359375, -0.7119140625
89, 109780689, -6.242547988891602, 1.7043086290359497, 7.1814069747924805, -0.39143887162208557, -0.9107365012168884, -1.3975441455841064, 0.5947265625, 0.19384765625, -0.7109375
90, 109797356, -6.238163471221924, 1.7150189876556396, 7.1716790199279785, -0.23261453211307526, -0.8627509474754333, -1.3655154705047607, 0.595703125, 0.1943359375, -0.7119140625
91, 109814023, -6.253595352172852, 1.7237324714660645, 7.1603569984436035, -0.2407081425189972, -0.9077780246734619, -1.3130861520767212, 0.59716796875, 0.193359375, -0.710693359375
92, 109830690, -6.244387149810791, 1.7174701690673828, 7.165355682373047, -0.26027625799179077, -0.9563654661178589, -1.4142179489135742, 0.59619140625, 0.19384765625, -0.7109375
93, 109847357, -6.2406907081604, 1.7079269886016846, 7.168957710266113, -0.328546941280365, -1.0100880861282349, -1.4712576866149902, 0.59619140625, 0.193359375, -0.71142578125
94, 109864024, -6.2694854736328125, 1.7197521924972534, 7.192597389221191, -0.28473639488220215, -0.9744991660118103, -1.4467846155166626, 0.5947265625, 0.19384765625, -0.71044921875
95, 109880691, -6.2488837242126465, 1.7200933694839478, 7.191429615020752, -0.3689253628253937, -0.9543035626411438, -1.3823941946029663, 0.5966796875, 0.19482421875, -0.71142578125
96, 109897358, -6.24737024307251, 1.7099502086639404, 7.172105312347412, -0.4218027591705322, -0.9443658590316772, -1.4372055530548096, 0.5947265625, 0.1943359375, -0.710205078125
97, 109914025, -6.251166343688965, 1.7106941938400269, 7.193461894989014, -0.3057003915309906, -0.8182617425918579, -1.4438008069992065, 0.597412109375, 0.19287109375, -0.7109375
98, 109930692, -6.248074531555176, 1.7296901941299438, 7.197116374969482, -0.2660135328769684, -0.787872314453125, -1.5332788228988647, 0.59375, 0.19482421875, -0.7109375
99, 109947359, -6.236796855926514, 1.7335970401763916, 7.176140785217285, -0.45315274596214294, -0.7723382711410522, -1.4996494054794312, 0.59326171875, 0.193359375, -0.709716796875
100, 109964026, -6.247836589813232, 1.709738850593567, 7.157864570617676, -0.4965149462223053, -0.9499365091323853, -1.6488431692123413, 0.595703125, 0.19287109375, -0.71240234375
101, 109980693, -6.244124412536621, 1.7105598449707031, 7.169008255004883, -0.4646015763282776, -0.8842785358428955, -1.508985161781311, 0.5966796875, 0.1953125, -0.710205078125
102, 109997360, -6.248871326446533, 1.7038846015930176, 7.203845024108887, -0.35353851318359375, -0.871030330657959, -1.4532966613769531, 0.5947265625, 0.19482421875, -0.71044921875
103, 110014027, -6.253472328186035, 1.6990002393722534, 7.1875691413879395, -0.32389822602272034, -0.8191069960594177, -1.4940271377563477, 0.595703125, 0.1943359375, -0.7109375
104, 110030694, -6.258255958557129, 1.7166470289230347, 7.182015895843506, -0.23588013648986816, -0.7735803723335266, -1.4668649435043335, 0.5966796875, 0.19482421875, -0.71142578125
105, 110047361, -6.245616436004639, 1.6931121349334717, 7.1856770515441895, -0.20159754157066345, -0.7887815237045288, -1.420902967453003, 0.5947265625, 0.19580078125, -0.7119140625
106, 110064028, -6.25697135925293, 1.7027482986450195, 7.190073490142822, -0.23900490999221802, -0.8788486123085022, -1.3764777183532715, 0.59423828125, 0.1943359375, -0.7099609375
107, 110080695, -6.234336853027344, 1.6937620639801025, 7.185153007507324, -0.17999325692653656, -0.8805006146430969, -1.3972752094268799, 0.595703125, 0.19384765625, -0.7119140625
108, 110097362, -6.257959365844727, 1.7062662839889526, 7.185551166534424, -0.24294286966323853, -0.8750259280204773, -1.3133487701416016, 0.595703125, 0.19287109375, -0.7119140625
109, 110114029, -6.248302936553955, 1.6916090250015259, 7.197403907775879, -0.16543243825435638, -0.9167553782463074, -1.2784581184387207, 0.59619140625, 0.19384765625, -0.71240234375
110, 110130696, -6.25690221786499, 1.6873482465744019, 7.19794225692749, -0.15951590240001678, -0.829761803150177, -1.3091803789138794, 0.59619140625, 0.1943359375, -0.710205078125
111, 110147363, -6.245049476623535, 1.6924234628677368, 7.212267875671387, -0.09097631275653839, -0.8646590113639832, -1.1414682865142822, 0.5947265625, 0.19677734375, -0.7109375
112, 110164030, -6.235562324523926, 1.6977646350860596, 7.218974590301514, -0.15172962844371796, -0.8291855454444885, -1.160588264465332, 0.59423828125, 0.191650390625, -0.7109375
113, 110180697, -6.2480244636535645, 1.6957744359970093, 7.216590881347656, -0.05981845781207085, -0.9994460344314575, -1.2690579891204834, 0.595703125, 0.1923828125, -0.710693359375
114, 110197364, -6.249200344085693, 1.703494668006897, 7.195695877075195, -0.04450206831097603, -0.8684754967689514, -1.258044719696045, 0.59716796875, 0.1953125, -0.71044921875
115, 110214031, -6.238066673278809, 1.7144088745117188, 7.1945343017578125, -0.05933181941509247, -0.7634121179580688, -1.1633929014205933, 0.59521484375, 0.1953125, -0.7109375
116, 110230698, -6.260161399841309, 1.7110456228256226, 7.166787624359131, -0.03786837309598923, -0.785503089427948, -1.1660693883895874, 0.5947265625, 0.19287109375, -0.71240234375
117, 110247365, -6.253760814666748, 1.7020117044448853, 7.170604705810547, -0.1271030306816101, -0.9090203642845154, -1.2084327936172485, 0.5947265625, 0.19482421875, -0.709228515625
118, 110264032, -6.257225036621094, 1.692627191543579, 7.189085483551025, -0.1282043606042862, -0.9080983400344849, -1.2437654733657837, 0.5947265625, 0.19189453125, -0.710205078125
119, 110280699, -6.245018482208252, 1.7013198137283325, 7.216177463531494, -0.14171507954597473, -1.0147240161895752, -1.1428898572921753, 0.595703125, 0.1943359375, -0.708740234375
120, 110297366, -6.237557411193848, 1.69131600856781, 7.18925142288208, -0.08974689245223999, -0.9247592687606812, -1.202580213546753, 0.59375, 0.198486328125, -0.709228515625
121, 110314033, -6.257033348083496, 1.6963034868240356, 7.2017822265625, -0.08548238128423691, -0.8702682256698608, -1.148127555847168, 0.5947265625, 0.193359375, -0.7109375
122, 110330700, -6.2586565017700195, 1.703290343284607, 7.192034721374512, -0.04673037305474281, -0.9154748320579529, -1.1152154207229614, 0.59423828125, 0.19482421875, -0.7099609375
123, 110347367, -6.250300884246826, 1.7097171545028687, 7.166439056396484, -0.04074980318546295, -0.9711695909500122, -1.1212087869644165, 0.59326171875, 0.19482421875, -0.7109375
124, 110364034, -6.2403883934021, 1.7061209678649902, 7.176164627075195, -0.10977602005004883, -0.8445146679878235, -1.141532301902771, 0.5947265625, 0.19287109375, -0.71240234375
125, 110380701, -6.236279010772705, 1.7158100605010986, 7.184120178222656, -0.15806879103183746, -0.9055755138397217, -1.3522098064422607, 0.595703125, 0.191162109375, -0.709716796875
126, 110397368, -6.233716011047363, 1.7015058994293213, 7.192863464355469, -0.17845647037029266, -0.9178310036659241, -1.214759111404419, 0.595703125, 0.193359375, -0.71044921875
127, 110414035, -6.239926338195801, 1.702724575996399, 7.186767578125, -0.13222557306289673, -0.8339879512786865, -1.1936159133911133, 0.59375, 0.19189453125, -0.7109375
128, 110430702, -6.244228839874268, 1.718001127243042, 7.164865016937256, -0.1363876312971115, -0.7982070446014404, -1.251141905784607, 0.59423828125, 0.193359375, -0.71142578125
129, 110447369, -6.246280670166016, 1.709100604057312, 7.175565242767334, -0.11623042076826096, -0.8502263426780701, -1.2401412725448608, 0.59375, 0.191162109375, -0.7119140625
130, 110464036, -6.235954761505127, 1.7000751495361328, 7.188098907470703, -0.2161327749490738, -0.7571114897727966, -1.2407560348510742, 0.595703125, 0.19189453125, -0.7109375
131, 110480703, -6.248319625854492, 1.7126069068908691, 7.17563533782959, -0.16082215309143066, -0.9432004690170288, -1.316185474395752, 0.59326171875, 0.193359375, -0.709228515625
132, 110497370, -6.245372772216797, 1.6907985210418701, 7.186307430267334, -0.27520203590393066, -0.9013172388076782, -1.2698583602905273, 0.595703125, 0.19482421875, -0.71044921875
133, 110514037, -6.217103958129883, 1.714227557182312, 7.201644420623779, -0.2188989222049713, -0.8275207281112671, -1.3009203672409058, 0.59619140625, 0.1953125, -0.710205078125
134, 110530704, -6.248779773712158, 1.7085692882537842, 7.17476749420166, -0.2010340839624405, -0.8385598063468933, -1.1859064102172852, 0.59375, 0.19580078125, -0.708740234375
135, 110547371, -6.263478755950928, 1.717674970626831, 7.1737871170043945, -0.22033323347568512, -0.9646895527839661, -1.3130861520767212, 0.5947265625, 0.19287109375, -0.7109375
136, 110564038, -6.23408842086792, 1.7043836116790771, 7.194286346435547, -0.18683181703090668, -1.0676782131195068, -1.2521793842315674, 0.59619140625, 0.193359375, -0.7119140625
137, 110580705, -6.24402379989624, 1.6980425119400024, 7.195857048034668, -0.15060265362262726, -0.9611803889274597, -1.1954084634780884, 0.59375, 0.19287109375, -0.71337890625
138, 110597372, -6.247828483581543, 1.7017381191253662, 7.196435928344727, -0.12360688298940659, -0.958260715007782, -1.179772138595581, 0.59375, 0.193359375, -0.71240234375
139, 110614039, -6.231603622436523, 1.712046504020691, 7.192425727844238, -0.12884469330310822, -0.97273188829422, -1.2416653633117676, 0.5966796875, 0.19482421875, -0.71044921875
140, 110630706, -6.237107753753662, 1.706706166267395, 7.203932762145996, -0.20415882766246796, -0.9190733432769775, -1.0681391954421997, 0.595703125, 0.1943359375, -0.71142578125
141, 110647373, -6.23637056350708, 1.7087514400482178, 7.206907749176025, -0.07687652111053467, -0.9085593223571777, -1.0612493753433228, 0.59423828125, 0.1943359375, -0.712890625
142, 110664040, -6.237000942230225, 1.7171003818511963, 7.182182312011719, -0.11132560670375824, -0.9256046414375305, -1.1976243257522583, 0.59521484375, 0.1953125, -0.71044921875
143, 110680707, -6.235580921173096, 1.729880452156067, 7.198190212249756, -0.20395393669605255, -1.035662293434143, -1.2861801385879517, 0.595703125, 0.19287109375, -0.710205078125
144, 110697374, -6.229569435119629, 1.7129569053649902, 7.2000651359558105, -0.2284780740737915, -1.001495122909546, -1.2170002460479736, 0.59765625, 0.19384765625, -0.71240234375
145, 110714041, -6.225771903991699, 1.7179440259933472, 7.193782329559326, -0.23065514862537384, -0.9857175350189209, -1.217141032218933, 0.59521484375, 0.19189453125, -0.7119140625
146, 110730708, -6.236854553222656, 1.7224324941635132, 7.19248628616333, -0.07372614741325378, -0.8930635452270508, -1.3290044069290161, 0.59423828125, 0.19287109375, -0.71435546875
147, 110747375, -6.227376937866211, 1.725354552268982, 7.203538417816162, -0.16577821969985962, -0.9908658266067505, -1.3609693050384521, 0.59375, 0.19287109375, -0.71240234375
148, 110764042, -6.239201545715332, 1.707433819770813, 7.192286491394043, -0.17894312739372253, -0.9244263172149658, -1.4138978719711304, 0.59619140625, 0.19384765625, -0.7109375
149, 110780709, -6.240494251251221, 1.7029131650924683, 7.190830230712891, -0.18516702950000763, -0.9339030981063843, -1.4070338010787964, 0.59716796875, 0.19482421875, -0.71240234375
150, 110797376, -6.233517646789551, 1.6932834386825562, 7.192880630493164, -0.24843037128448486, -0.9368485808372498, -1.4089288711547852, 0.59521484375, 0.1943359375, -0.71435546875
151, 110814043, -6.239358901977539, 1.7136974334716797, 7.217384338378906, -0.2584321200847626, -0.9063308835029602, -1.3678972721099854, 0.59619140625, 0.19189453125, -0.71337890625
152, 110830710, -6.24009370803833, 1.7183935642242432, 7.193033695220947, -0.2016744166612625, -0.8074148297309875, -1.4748690128326416, 0.5927734375, 0.193359375, -0.71484375
153, 110847377, -6.233764171600342, 1.7166142463684082, 7.1847333908081055, -0.30837690830230713, -0.7864508032798767, -1.4762520790100098, 0.595703125, 0.19140625, -0.710205078125
154, 110864044, -6.239102840423584, 1.7023121118545532, 7.193629741668701, -0.2960699796676636, -0.7234946489334106, -1.5551261901855469, 0.59375, 0.19384765625, -0.71044921875
155, 110880711, -6.230909824371338, 1.700051188468933, 7.181546688079834, -0.26799851655960083, -0.8129215240478516, -1.5636426210403442, 0.595703125, 0.193359375, -0.709228515625
156, 110897378, -6.2348103523254395, 1.6963562965393066, 7.18811559677124, -0.2700091004371643, -0.7673565149307251, -1.5261071920394897, 0.59521484375, 0.193359375, -0.710205078125
157, 110914045, -6.226658821105957, 1.703791618347168, 7.195749759674072, -0.3322735130786896, -0.8621106147766113, -1.4701817035675049, 0.59619140625, 0.19384765625, -0.71240234375
158, 110930712, -6.246920108795166, 1.700325846672058, 7.212943077087402, -0.31449833512306213, -0.7036064267158508, -1.4555569887161255, 0.59423828125, 0.19384765625, -0.7109375
159, 110947379, -6.23351526260376, 1.716977596282959, 7.196650981903076, -0.36471205949783325, -0.8039186596870422, -1.4008866548538208, 0.595703125, 0.19384765625, -0.71142578125
160, 110964046, -6.2380805015563965, 1.7197933197021484, 7.203075408935547, -0.28993576765060425, -0.8300564289093018, -1.4819124937057495, 0.595703125, 0.1923828125, -0.708740234375
161, 110980713, -6.2370219230651855, 1.6997679471969604, 7.1803131103515625, -0.3519057333469391, -0.7932253479957581, -1.4882515668869019, 0.595703125, 0.193359375, -0.7119140625
162, 110997380, -6.246771335601807, 1.7060970067977905, 7.20662260055542, -0.39693281054496765, -0.8835485577583313, -1.5183976888656616, 0.595703125, 0.1953125, -0.712890625
163, 111014047, -6.233868598937988, 1.699916124343872, 7.1833882331848145, -0.32074782252311707, -0.8114102482795715, -1.4422765970230103, 0.595703125, 0.19580078125, -0.7109375
164, 111030714, -6.223526477813721, 1.7097593545913696, 7.192068576812744, -0.360914945602417, -0.7414940595626831, -1.5410969257354736, 0.5947265625, 0.193359375, -0.712890625
165, 111047381, -6.231459617614746, 1.6944502592086792, 7.17453145980835, -0.2317437082529068, -0.7528084516525269, -1.4699127674102783, 0.59521484375, 0.19384765625, -0.7109375
166, 111064048, -6.240200996398926, 1.6887696981430054, 7.187160015106201, -0.2498134821653366, -0.7462260127067566, -1.4553776979446411, 0.5947265625, 0.19677734375, -0.7099609375
167, 111080715, -6.245543956756592, 1.7081438302993774, 7.179465293884277, -0.22936813533306122, -0.6879251599311829, -1.4004576206207275, 0.59521484375, 0.19384765625, -0.71240234375
168, 111097382, -6.2409586906433105, 1.7020528316497803, 7.196084499359131, -0.2407209724187851, -0.6504217386245728, -1.4859720468521118, 0.59423828125, 0.19189453125, -0.7109375
169, 111114049, -6.245751857757568, 1.7023452520370483, 7.205607891082764, -0.3199538588523865, -0.6731914281845093, -1.538081169128418, 0.5927734375, 0.193359375, -0.71435546875
170, 111130716, -6.235198497772217, 1.6863294839859009, 7.199401378631592, -0.23821090161800385, -0.7219963669776917, -1.4812207221984863, 0.59375, 0.1923828125, -0.71142578125
171, 111147383, -6.241868019104004, 1.700957179069519, 7.194840431213379, -0.21515947580337524, -0.651215672492981, -1.436910629272461, 0.59130859375, 0.19287109375, -0.71240234375
172, 111164050, -6.241575241088867, 1.702042818069458, 7.209725856781006, -0.1880740523338318, -0.7005072832107544, -1.4714751243591309, 0.59521484375, 0.1943359375, -0.7119140625
173, 111180717, -6.240240097045898, 1.697076439857483, 7.189314842224121, -0.13593941926956177, -0.701352596282959, -1.3776814937591553, 0.595703125, 0.19384765625, -0.709716796875
174, 111197384, -6.2394537925720215, 1.7035095691680908, 7.2028489112854, -0.23146192729473114, -0.7258766293525696, -1.3812673091888428, 0.59521484375, 0.19287109375, -0.710205078125
175, 111214051, -6.241392135620117, 1.6906598806381226, 7.187983512878418, -0.19141650199890137, -0.6788390278816223, -1.4074946641921997, 0.59423828125, 0.19580078125, -0.712890625
176, 111230718, -6.249207973480225, 1.685953140258789, 7.187300682067871, -0.23645642399787903, -0.8055450320243835, -1.2819538116455078, 0.595703125, 0.196533203125, -0.7099609375
177, 111247385, -6.242872714996338, 1.6925853490829468, 7.195893287658691, -0.15078195929527283, -0.7742719650268555, -1.35256826877594, 0.59423828125, 0.193359375, -0.710205078125
178, 111264052, -6.241099834442139, 1.698232650756836, 7.21723747253418, -0.09417788684368134, -0.7624772191047668, -1.256277084350586, 0.59375, 0.19482421875, -0.7109375
179, 111280719, -6.239739894866943, 1.700819969177246, 7.202742099761963, -0.1314699947834015, -0.7258383631706238, -1.2588385343551636, 0.595703125, 0.19482421875, -0.71240234375
180, 111297386, -6.244258880615234, 1.692354679107666, 7.200745105743408, -0.08320285379886627, -0.6677999496459961, -1.2843873500823975, 0.59716796875, 0.1943359375, -0.709228515625
181, 111314053, -6.250581741333008, 1.6972917318344116, 7.191269397735596, 0.01847316138446331, -0.6629335284233093, -1.2225453853607178, 0.59423828125, 0.19677734375, -0.71044921875
182, 111330720, -6.243783950805664, 1.7086724042892456, 7.181123733520508, -0.09043844044208527, -0.7479932904243469, -1.289420247077942, 0.5947265625, 0.1943359375, -0.7109375
183, 111347387, -6.246809005737305, 1.7130409479141235, 7.1788330078125, -0.14427633583545685, -0.7607868909835815, -1.303852915763855, 0.59521484375, 0.19384765625, -0.71044921875
184, 111364054, -6.240996837615967, 1.693368911743164, 7.195644855499268, -0.19980469346046448, -0.7794713377952576, -1.2858728170394897, 0.595703125, 0.1953125, -0.710205078125
185, 111380721, -6.24163293838501, 1.7059283256530762, 7.195092678070068, -0.21180421113967896, -0.8696792721748352, -1.2943634986877441, 0.59521484375, 0.1962890625, -0.712890625
186, 111397388, -6.237426280975342, 1.688757061958313, 7.186392784118652, -0.1357729285955429, -0.7810977101325989, -1.347112774848938, 0.59521484375, 0.19384765625, -0.7109375
187, 111414055, -6.247577667236328, 1.6958205699920654, 7.1941022872924805, -0.24679116904735565, -0.8611887097358704, -1.3982741832733154, 0.59765625, 0.19384765625, -0.710693359375
188, 111430722, -6.241707801818848, 1.6906006336212158, 7.202883720397949, -0.12634743750095367, -0.828622043132782, -1.3343831300735474, 0.5947265625, 0.19580078125, -0.7109375
189, 111447389, -6.241863250732422, 1.689538836479187, 7.1816725730896, -0.17572873830795288, -0.7612478733062744, -1.3083992004394531, 0.59619140625, 0.19384765625, -0.71240234375
190, 111464056, -6.245790958404541, 1.7002792358398438, 7.193095684051514, -0.16242292523384094, -0.7503495812416077, -1.3696134090423584, 0.59521484375, 0.193359375, -0.712890625
191, 111480723, -6.253043174743652, 1.700195550918579, 7.222457408905029, -0.2773471176624298, -0.7197169065475464, -1.4789540767669678, 0.595703125, 0.1953125, -0.71240234375
192, 111497390, -6.241656303405762, 1.6981124877929688, 7.194441318511963, -0.18035180866718292, -0.7290910482406616, -1.4448635578155518, 0.595703125, 0.1943359375, -0.71044921875
193, 111514057, -6.241150856018066, 1.696811318397522, 7.187469959259033, -0.13186699151992798, -0.6358736753463745, -1.3265074491500854, 0.59375, 0.193359375, -0.71142578125
194, 111530724, -6.249690532684326, 1.7070629596710205, 7.186254501342773, -0.2223566621541977, -0.7095485925674438, -1.4117591381072998, 0.59521484375, 0.1953125, -0.71337890625
195, 111547391, -6.24647331237793, 1.7084624767303467, 7.188539981842041, -0.28720802068710327, -0.8131008148193359, -1.401987910270691, 0.59375, 0.1953125, -0.709716796875
196, 111564058, -6.243853569030762, 1.7111470699310303, 7.198686599731445, -0.40071070194244385, -0.942380964756012, -1.364183783531189, 0.59521484375, 0.19287109375, -0.710205078125
197, 111580725, -6.234093189239502, 1.6913087368011475, 7.203299522399902, -0.3298787772655487, -0.8576028943061829, -1.4274983406066895, 0.595703125, 0.1953125, -0.71044921875
198, 111597392, -6.233483791351318, 1.6996009349822998, 7.176023960113525, -0.31767433881759644, -0.9421888589859009, -1.5055530071258545, 0.59423828125, 0.193359375, -0.710205078125
199, 111614059, -6.247040748596191, 1.69525945186615, 7.174246788024902, -0.3101954162120819, -0.8755061626434326, -1.4630101919174194, 0.59326171875, 0.193359375, -0.71337890625
200, 111630726, -6.233094692230225, 1.7070671319961548, 7.210110187530518, -0.29349589347839355, -0.8001151084899902, -1.4686192274093628, 0.5947265625, 0.191162109375, -0.709716796875
201, 111647393, -6.234565734863281, 1.6968467235565186, 7.184913635253906, -0.3607932925224304, -0.7371719479560852, -1.5269780158996582, 0.59521484375, 0.1943359375, -0.71142578125
202, 111664060, -6.243961334228516, 1.6960119009017944, 7.187397480010986, -0.4983718991279602, -0.8743407130241394, -1.6344871520996094, 0.59375, 0.193359375, -0.7109375
203, 111680727, -6.243894100189209, 1.6836014986038208, 7.190030574798584, -0.5016887187957764, -0.936413049697876, -1.5969773530960083, 0.59521484375, 0.1962890625, -0.7099609375
204, 111697394, -6.230785369873047, 1.6790660619735718, 7.197645664215088, -0.5321165919303894, -0.8734570145606995, -1.5895369052886963, 0.59521484375, 0.19482421875, -0.712890625
205, 111714061, -6.241169452667236, 1.678739070892334, 7.166568756103516, -0.3674269914627075, -0.8529670238494873, -1.4665833711624146, 0.59619140625, 0.19384765625, -0.71435546875
206, 111730728, -6.24579381942749, 1.6815804243087769, 7.178200721740723, -0.24250103533267975, -0.7520913481712341, -1.3835597038269043, 0.5947265625, 0.197021484375, -0.715087890625
207, 111747395, -6.247288703918457, 1.6900867223739624, 7.218244552612305, -0.09744350612163544, -0.5942146182060242, -1.3771692514419556, 0.59326171875, 0.19482421875, -0.71337890625
208, 111764062, -6.247897624969482, 1.6964366436004639, 7.18333101272583, -0.11356031149625778, -0.6241622567176819, -1.3266290426254272, 0.5947265625, 0.19482421875, -0.71142578125
209, 111780729, -6.24612283706665, 1.70150887966156, 7.189631462097168, -0.17440970242023468, -0.7340983748435974, -1.3542588949203491, 0.5947265625, 0.19482421875, -0.709716796875
210, 111797396, -6.243123531341553, 1.6915130615234375, 7.177933216094971, -0.2886807322502136, -0.7916885614395142, -1.3855574131011963, 0.59521484375, 0.1943359375, -0.709228515625
211, 111814063, -6.25077486038208, 1.6945981979370117, 7.195260047912598, -0.23865914344787598, -0.8477163910865784, -1.4051640033721924, 0.59521484375, 0.1962890625, -0.7119140625
212, 111830730, -6.241653919219971, 1.6850939989089966, 7.2140302658081055, -0.26014819741249084, -0.8564375042915344, -1.4501783847808838, 0.595703125, 0.19482421875, -0.71142578125
213, 111847397, -6.23610258102417, 1.6876879930496216, 7.195433616638184, -0.16193629801273346, -0.7748609781265259, -1.4079045057296753, 0.5947265625, 0.19482421875, -0.71240234375
214, 111864064, -6.246974468231201, 1.6845210790634155, 7.185819625854492, -0.16118071973323822, -0.7425761222839355, -1.3948802947998047, 0.5947265625, 0.1953125, -0.7109375
215, 111880731, -6.234029293060303, 1.6914681196212769, 7.184564113616943, -0.1260785013437271, -0.7330226302146912, -1.4171762466430664, 0.59521484375, 0.19482421875, -0.71142578125
216, 111897398, -6.241286754608154, 1.6742124557495117, 7.182116985321045, -0.23207664489746094, -0.8030349612236023, -1.3929849863052368, 0.595703125, 0.1953125, -0.71044921875
217, 111914065, -6.25214958190918, 1.6847068071365356, 7.181872367858887, -0.2323455959558487, -0.7245832681655884, -1.399657130241394, 0.5947265625, 0.196533203125, -0.708251953125
218, 111930732, -6.237445831298828, 1.6824668645858765, 7.198818206787109, -0.2767068147659302, -0.7919319272041321, -1.4590531587600708, 0.595703125, 0.1953125, -0.7109375
219, 111947399, -6.2344279289245605, 1.6882383823394775, 7.197868347167969, -0.18457792699337006, -0.8129598498344421, -1.3691524267196655, 0.5947265625, 0.197021484375, -0.709716796875
220, 111964066, -6.243196487426758, 1.6819067001342773, 7.171722888946533, -0.20163597166538239, -0.775539755821228, -1.3301057815551758, 0.5947265625, 0.1962890625, -0.71142578125
221, 111980733, -6.250110626220703, 1.6771259307861328, 7.20294189453125, -0.17352603375911713, -0.789921224117279, -1.3653874397277832, 0.59521484375, 0.19482421875, -0.71044921875
222, 111997400, -6.2363200187683105, 1.6919182538986206, 7.197158336639404, -0.26148003339767456, -0.7657684683799744, -1.356845498085022, 0.59521484375, 0.197021484375, -0.71044921875
223, 112014067, -6.248883247375488, 1.6961824893951416, 7.216764450073242, -0.22139616310596466, -0.8582944273948669, -1.4068800210952759, 0.59521484375, 0.19580078125, -0.71142578125
224, 112030734, -6.2699689865112305, 1.6713706254959106, 7.198391914367676, -0.24535682797431946, -0.8631479144096375, -1.3910255432128906, 0.59521484375, 0.1962890625, -0.71044921875
225, 112047401, -6.25182580947876, 1.69032621383667, 7.212735652923584, -0.24980062246322632, -0.7770124077796936, -1.3881186246871948, 0.59326171875, 0.1962890625, -0.7109375
226, 112064068, -6.25807523727417, 1.6869049072265625, 7.197020530700684, -0.24115636944770813, -0.6346698999404907, -1.3613662719726562, 0.5966796875, 0.19580078125, -0.71142578125
227, 112080735, -6.249973773956299, 1.6767677068710327, 7.18276834487915, -0.21728533506393433, -0.7489537596702576, -1.3543226718902588, 0.59716796875, 0.1953125, -0.709716796875
228, 112097402, -6.24143123626709, 1.690664529800415, 7.194772720336914, -0.3230145275592804, -0.7929562926292419, -1.365451455116272, 0.5927734375, 0.19482421875, -0.71142578125
229, 112114069, -6.243668556213379, 1.6661332845687866, 7.18339204788208, -0.290294349193573, -0.807056188583374, -1.3175044059753418, 0.59619140625, 0.1953125, -0.71044921875
230, 112130736, -6.234490871429443, 1.6880027055740356, 7.1930155754089355, -0.17143860459327698, -0.6936047077178955, -1.297961950302124, 0.59521484375, 0.1962890625, -0.7109375
231, 112147403, -6.243390083312988, 1.697880744934082, 7.195533752441406, -0.13981972634792328, -0.7070385813713074, -1.2764471769332886, 0.59375, 0.19677734375, -0.71240234375
232, 112164070, -6.2509870529174805, 1.683065414428711, 7.1910624504089355, -0.2014695107936859, -0.6658533811569214, -1.270607590675354, 0.59619140625, 0.19580078125, -0.7119140625
233, 112180737, -6.244976043701172, 1.6685312986373901, 7.182515621185303, -0.11547486484050751, -0.6793897151947021, -1.2043731212615967, 0.595703125, 0.196533203125, -0.7099609375
234, 112197404, -6.2370686531066895, 1.696128010749817, 7.199306011199951, -0.12656517326831818, -0.6963196992874146, -1.216295838356018, 0.5947265625, 0.19482421875, -0.708740234375
235, 112214071, -6.246963977813721, 1.6766453981399536, 7.179742813110352, -0.09882660210132599, -0.6633176803588867, -1.1934109926223755, 0.5947265625, 0.1953125, -0.7119140625
236, 112230738, -6.2472662925720215, 1.6641865968704224, 7.197739124298096, -0.0765051394701004, -0.6295857429504395, -1.1172516345977783, 0.59423828125, 0.19580078125, -0.708251953125
237, 112247405, -6.252639293670654, 1.6991722583770752, 7.170834064483643, -0.11071088910102844, -0.7654739618301392, -1.0955959558486938, 0.59619140625, 0.19580078125, -0.71044921875
238, 112264072, -6.257662773132324, 1.6772475242614746, 7.190001010894775, -0.19723060727119446, -0.8305429816246033, -1.1010515689849854, 0.59423828125, 0.1953125, -0.7099609375
239, 112280739, -6.249081134796143, 1.686774730682373, 7.186031341552734, -0.13243047893047333, -0.9759079217910767, -1.0373528003692627, 0.5947265625, 0.19384765625, -0.71044921875
240, 112297406, -6.254678726196289, 1.6907023191452026, 7.176706314086914, -0.1753317415714264, -1.100564956665039, -1.0411049127578735, 0.59619140625, 0.193359375, -0.709228515625
241, 112314073, -6.246292591094971, 1.6936414241790771, 7.18558406829834, -0.23826216161251068, -1.0449341535568237, -1.0762969255447388, 0.59521484375, 0.196533203125, -0.709228515625
242, 112330740, -6.250871658325195, 1.7020975351333618, 7.198380947113037, -0.2080903798341751, -1.15387761592865, -1.1425952911376953, 0.59521484375, 0.19580078125, -0.7109375
243, 112347407, -6.239023685455322, 1.6843355894088745, 7.207282066345215, -0.3566056191921234, -1.1772750616073608, -1.2000702619552612, 0.5947265625, 0.19580078125, -0.71044921875
244, 112364074, -6.237613677978516, 1.675481915473938, 7.206779479980469, -0.2239958494901657, -1.1019607782363892, -1.1963562965393066, 0.59423828125, 0.197998046875, -0.70947265625
245, 112380741, -6.234267711639404, 1.6929314136505127, 7.19124174118042, -0.2480590045452118, -0.9005681276321411, -1.123526692390442, 0.59326171875, 0.19384765625, -0.7099609375
246, 112397408, -6.2334794998168945, 1.7048295736312866, 7.198380947113037, -0.25637033581733704, -0.9053705930709839, -1.1756614446640015, 0.59521484375, 0.19482421875, -0.71142578125
247, 112414075, -6.245430946350098, 1.7161011695861816, 7.186253547668457, -0.09046405553817749, -0.8349868655204773, -1.1708462238311768, 0.59326171875, 0.19482421875, -0.7099609375
248, 112430742, -6.245796203613281, 1.717093586921692, 7.181803226470947, -0.13665655255317688, -0.771480143070221, -1.2573145627975464, 0.59619140625, 0.19189453125, -0.7119140625
249, 112447409, -6.221673011779785, 1.6845999956130981, 7.181954383850098, -0.15324078500270844, -0.7681376934051514, -1.2606699466705322, 0.59375, 0.19677734375, -0.7099609375
250, 112464076, -6.253173828125, 1.6827199459075928, 7.181351184844971, -0.12646269798278809, -0.8356142640113831, -1.2812623977661133, 0.59326171875, 0.1953125, -0.712890625
251, 112480743, -6.246591091156006, 1.6894320249557495, 7.200159549713135, -0.18944431841373444, -0.7768843770027161, -1.3165953159332275, 0.59619140625, 0.19384765625, -0.71044921875
252, 112497410, -6.239981651306152, 1.69968843460083, 7.193735599517822, -0.26229968667030334, -0.7353406548500061, -1.2846819162368774, 0.5966796875, 0.1953125, -0.71240234375
253, 112514077, -6.238153457641602, 1.6919054985046387, 7.200061321258545, -0.15113414824008942, -0.838284432888031, -1.2647615671157837, 0.59375, 0.1953125, -0.709716796875
254, 112530744, -6.226238250732422, 1.6996978521347046, 7.2022175788879395, -0.062226053327322006, -0.8464357256889343, -1.2412298917770386, 0.59228515625, 0.19384765625, -0.71240234375
255, 112547411, -6.239073276519775, 1.7037473917007446, 7.187638282775879, -0.05501607805490494, -0.7186794281005859, -1.2024778127670288, 0.5947265625, 0.19580078125, -0.709228515625
256, 112564078, -6.244687080383301, 1.6963402032852173, 7.202108383178711, -0.07893834263086319, -0.5729176998138428, -1.3562308549880981, 0.5947265625, 0.19580078125, -0.71142578125
257, 112580745, -6.243502140045166, 1.7014820575714111, 7.18536901473999, -0.09589395672082901, -0.5209367275238037, -1.3952776193618774, 0.5947265625, 0.19580078125, -0.71240234375
258, 112597412, -6.248453617095947, 1.6995006799697876, 7.182060241699219, -0.18951475620269775, -0.5651378035545349, -1.4650912284851074, 0.5947265625, 0.1962890625, -0.7109375
259, 112614079, -6.242701530456543, 1.6999210119247437, 7.199786186218262, -0.1796666979789734, -0.7273046970367432, -1.5060333013534546, 0.59619140625, 0.19580078125, -0.709716796875
260, 112630746, -6.232690811157227, 1.6979320049285889, 7.199650287628174, -0.21116392314434052, -0.6676461696624756, -1.4884437322616577, 0.5966796875, 0.19580078125, -0.712890625
261, 112647413, -6.245162487030029, 1.7032649517059326, 7.19562292098999, -0.21385322511196136, -0.6517919301986694, -1.5221627950668335, 0.59619140625, 0.1953125, -0.7109375
262, 112664080, -6.254860877990723, 1.6950757503509521, 7.196242809295654, -0.15366339683532715, -0.7387855648994446, -1.476303219795227, 0.59423828125, 0.193359375, -0.71044921875
263, 112680747, -6.237692356109619, 1.6693674325942993, 7.2011942863464355, -0.23488126695156097, -0.6895579099655151, -1.4035502672195435, 0.59521484375, 0.19384765625, -0.708740234375
264, 112697414, -6.2515974044799805, 1.6959435939788818, 7.189812183380127, -0.2969024181365967, -0.7314730286598206, -1.5299489498138428, 0.59521484375, 0.19384765625, -0.71142578125
265, 112714081, -6.238013744354248, 1.6795259714126587, 7.179831027984619, -0.34939566254615784, -0.7601849436759949, -1.557559609413147, 0.5947265625, 0.1962890625, -0.7099609375
266, 112730748, -6.246261119842529, 1.6928023099899292, 7.178639888763428, -0.2846979796886444, -0.537187933921814, -1.5571367740631104, 0.5986328125, 0.196533203125, -0.7119140625
267, 112747415, -6.2609076499938965, 1.6845170259475708, 7.196600914001465, -0.24189913272857666, -0.7839279770851135, -1.4895577430725098, 0.59521484375, 0.19580078125, -0.71240234375
268, 112764082, -6.260557174682617, 1.6814900636672974, 7.201592922210693, -0.3100801706314087, -0.8894777894020081, -1.4814130067825317, 0.5947265625, 0.1962890625, -0.71044921875
269, 112780749, -6.251946449279785, 1.6990097761154175, 7.193122386932373, -0.28617069125175476, -1.0167601108551025, -1.518833041191101, 0.59619140625, 0.196533203125, -0.71142578125
270, 112797416, -6.234935760498047, 1.6749565601348877, 7.206334590911865, -0.26145443320274353, -0.814586341381073, -1.3657715320587158, 0.59765625, 0.19580078125, -0.710205078125
271, 112814083, -6.239328384399414, 1.6750738620758057, 7.197292327880859, -0.11615359783172607, -0.7168994545936584, -1.4043186902999878, 0.59423828125, 0.197509765625, -0.7109375
272, 112830750, -6.232034206390381, 1.6638206243515015, 7.19364595413208, -0.10019689053297043, -0.758353590965271, -1.3557186126708984, 0.595703125, 0.196533203125, -0.708740234375
273, 112847417, -6.237366676330566, 1.6731339693069458, 7.18646240234375, -0.13940991461277008, -0.7086520791053772, -1.3728150129318237, 0.59619140625, 0.1962890625, -0.709228515625
274, 112864084, -6.242978572845459, 1.7136856317520142, 7.192586421966553, -0.34942126274108887, -0.7916117906570435, -1.507717251777649, 0.595703125, 0.1962890625, -0.709228515625
275, 112880751, -6.236605167388916, 1.668245553970337, 7.1941819190979, -0.2564343512058258, -0.7613887786865234, -1.547058343887329, 0.59423828125, 0.1953125, -0.709228515625
276, 112897418, -6.260288238525391, 1.6795164346694946, 7.215118408203125, -0.2556276023387909, -0.5683842301368713, -1.5778064727783203, 0.5966796875, 0.1962890625, -0.71240234375
277, 112914085, -6.2565155029296875, 1.6503639221191406, 7.189918041229248, -0.21504421532154083, -0.4014662504196167, -1.4087495803833008, 0.59619140625, 0.1962890625, -0.7109375
278, 112930752, -6.245601654052734, 1.7051998376846313, 7.19092321395874, -0.13278904557228088, -0.5465365648269653, -1.3799611330032349, 0.59521484375, 0.1953125, -0.709228515625
279, 112947419, -6.244494438171387, 1.6807953119277954, 7.18807315826416, -0.05303749814629555, -0.44347745180130005, -1.430680513381958, 0.59521484375, 0.1953125, -0.709716796875
280, 112964086, -6.255375862121582, 1.6608631610870361, 7.193844795227051, 0.23443306982517242, -0.27864697575569153, -1.1303588151931763, 0.595703125, 0.19580078125, -0.709228515625
281, 112980753, -6.255286693572998, 1.7070136070251465, 7.186438083648682, 0.13011892139911652, -0.5550143718719482, -1.1708077192306519, 0.5966796875, 0.1953125, -0.7109375
282, 112997420, -6.248424530029297, 1.6982027292251587, 7.16949987411499, -0.02542060613632202, -0.611400842666626, -1.2484655380249023, 0.5947265625, 0.19482421875, -0.709228515625
283, 113014087, -6.2545599937438965, 1.693037986755371, 7.193370342254639, 0.03813090920448303, -0.4894075095653534, -1.2268483638763428, 0.59619140625, 0.1962890625, -0.708251953125
284, 113030754, -6.26265811920166, 1.6700165271759033, 7.178699970245361, 0.10619664937257767, -0.5691013932228088, -1.1430820226669312, 0.5966796875, 0.19580078125, -0.71142578125
285, 113047421, -6.245398044586182, 1.6775643825531006, 7.202013969421387, 0.07263121753931046, -0.7395923137664795, -1.0942641496658325, 0.595703125, 0.19384765625, -0.71240234375
286, 113064088, -6.24938440322876, 1.6924983263015747, 7.17055606842041, -0.005032895132899284, -0.7194479703903198, -1.1521103382110596, 0.5947265625, 0.1953125, -0.708251953125
287, 113080755, -6.266435146331787, 1.704379916191101, 7.2008466720581055, -0.17804667353630066, -0.8033038973808289, -1.1898635625839233, 0.5966796875, 0.1953125, -0.709228515625
288, 113097422, -6.246292591094971, 1.7240742444992065, 7.169975280761719, -0.36962971091270447, -0.8104755282402039, -1.395379900932312, 0.59521484375, 0.197998046875, -0.70947265625
289, 113114089, -6.250472545623779, 1.6909153461456299, 7.200922012329102, -0.6245272755622864, -1.0234194993972778, -1.5830953121185303, 0.595703125, 0.196533203125, -0.709716796875
290, 113130756, -6.264795303344727, 1.6808429956436157, 7.1776323318481445, -0.6246168613433838, -1.0869901180267334, -1.6716127395629883, 0.5966796875, 0.197021484375, -0.71142578125
291, 113147423, -6.245673179626465, 1.6677602529525757, 7.175553798675537, -0.5986584424972534, -1.001725435256958, -1.5254411697387695, 0.59716796875, 0.19384765625, -0.710205078125
292, 113164090, -6.266378879547119, 1.6784136295318604, 7.17421817779541, -0.5687811970710754, -1.0032622814178467, -1.5002381801605225, 0.59619140625, 0.196533203125, -0.709228515625
293, 113180757, -6.251466274261475, 1.6902943849563599, 7.169584274291992, -0.5368548631668091, -1.0174131393432617, -1.5095226764678955, 0.59814453125, 0.196533203125, -0.709228515625
294, 113197424, -6.254256725311279, 1.670324444770813, 7.202260494232178, -0.5996188521385193, -0.9297281503677368, -1.5319081544876099, 0.59814453125, 0.19580078125, -0.71044921875
295, 113214091, -6.252604961395264, 1.681837558746338, 7.189554691314697, -0.5060557126998901, -0.8573466539382935, -1.5369539260864258, 0.59765625, 0.197021484375, -0.709716796875
296, 113230758, -6.2481231689453125, 1.6670540571212769, 7.193333148956299, -0.3642125725746155, -0.8225389719009399, -1.4786338806152344, 0.59619140625, 0.196533203125, -0.71142578125
297, 113247425, -6.24791955947876, 1.669665813446045, 7.198633670806885, -0.3102722465991974, -0.7146328091621399, -1.5698024034500122, 0.5947265625, 0.1953125, -0.7109375
298, 113264092, -6.231897830963135, 1.6615262031555176, 7.2033209800720215, -0.42505553364753723, -0.6683762073516846, -1.5259917974472046, 0.59326171875, 0.19482421875, -0.707275390625
299, 113280759, -6.257415771484375, 1.6599526405334473, 7.193978786468506, -0.27607929706573486, -0.574697732925415, -1.5078709125518799, 0.59521484375, 0.19580078125, -0.709716796875
300, 113297426, -6.259060859680176, 1.6630719900131226, 7.18826961517334, -0.3283419907093048, -0.4518336057662964, -1.5347129106521606, 0.5947265625, 0.197998046875, -0.708251953125
301, 113314093, -6.272058010101318, 1.6533820629119873, 7.189326763153076, -0.33031415939331055, -0.39520391821861267, -1.4223371744155884, 0.59619140625, 0.197021484375, -0.71044921875
302, 113330760, -6.26290225982666, 1.661212682723999, 7.1530375480651855, -0.3108997642993927, -0.7222269773483276, -1.3786035776138306, 0.59716796875, 0.1953125, -0.7109375
303, 113347427, -6.2726898193359375, 1.6548984050750732, 7.174893856048584, -0.34735941886901855, -1.2961819171905518, -1.0023273229599, 0.5966796875, 0.197509765625, -0.7109375
304, 113364094, -6.264163494110107, 1.6324068307876587, 7.156439781188965, -0.21106143295764923, -1.9351801872253418, -0.6891224384307861, 0.59423828125, 0.19580078125, -0.7109375
305, 113380761, -6.245489597320557, 1.5252485275268555, 7.147347450256348, 0.36446231603622437, -2.6384153366088867, 0.02267364412546158, 0.59521484375, 0.1962890625, -0.7099609375
306, 113397428, -6.23979377746582, 1.616836428642273, 7.178713321685791, 1.314206838607788, -2.5631654262542725, 1.0516254901885986, 0.595703125, 0.19580078125, -0.71142578125
307, 113414095, -6.248626708984375, 1.7975099086761475, 7.196038246154785, 1.7953993082046509, -2.1292097568511963, 1.2221996784210205, 0.5966796875, 0.193359375, -0.710205078125
308, 113430762, -6.21414041519165, 1.8406087160110474, 7.207355499267578, 1.4293744564056396, -1.7301251888275146, 0.23255692422389984, 0.5947265625, 0.19482421875, -0.7138671875
309, 113447429, -6.201132774353027, 1.7097704410552979, 7.202847003936768, 0.8744111061096191, -1.2027339935302734, -0.3988921642303467, 0.59326171875, 0.19287109375, -0.71337890625
310, 113464096, -6.203264236450195, 1.6586016416549683, 7.218433856964111, 0.596897542476654, -0.7393617033958435, -0.5582543015480042, 0.59326171875, 0.1943359375, -0.7109375
311, 113480763, -6.231907367706299, 1.735865592956543, 7.174031734466553, 0.623553991317749, -0.3907729387283325, -0.5182473063468933, 0.59326171875, 0.1923828125, -0.7109375
312, 113497430, -6.214907169342041, 1.7187570333480835, 7.212403297424316, 0.6212232112884521, -0.22070463001728058, -0.9343512058258057, 0.59521484375, 0.19287109375, -0.71044921875
313, 113514097, -6.226583003997803, 1.671735405921936, 7.215378284454346, 0.7136914134025574, 0.2154860496520996, -1.0957881212234497, 0.5927734375, 0.1923828125, -0.7109375
314, 113530764, -6.257408142089844, 1.6791980266571045, 7.20570707321167, 0.5571210980415344, 0.4194656014442444, -0.8970720171928406, 0.59619140625, 0.193359375, -0.71142578125
315, 113547431, -6.257938861846924, 1.7389851808547974, 7.1696038246154785, 0.1729433387517929, 0.5781106352806091, -1.0763224363327026, 0.59375, 0.19189453125, -0.7109375
316, 113564098, -6.230825424194336, 1.7685627937316895, 7.201894760131836, 0.20937740802764893, 1.3461329936981201, -1.5683168172836304, 0.59326171875, 0.19287109375, -0.707763671875
317, 113580765, -6.147695064544678, 1.6995538473129272, 7.2117767333984375, 1.8765208721160889, 4.742569446563721, -1.9957799911499023, 0.59619140625, 0.193359375, -0.708251953125
318, 113597432, -6.1306538581848145, 1.641493797302246, 7.246011257171631, 5.41736364364624, 11.085265159606934, -2.328810214996338, 0.596923828125, 0.19287109375, -0.708740234375
319, 113614099, -5.966275215148926, 1.5092277526855469, 7.5623860359191895, 11.40121841430664, 23.018436431884766, -1.8503555059432983, 0.60302734375, 0.19140625, -0.70263671875
320, 113630766, -5.98548698425293, 0.5674673914909363, 8.196892738342285, 18.83912467956543, 40.78179931640625, 1.9499279260635376, 0.608642578125, 0.1875, -0.69384765625
321, 113647433, -5.181449890136719, -0.06551381945610046, 9.109024047851562, 22.174196243286133, 68.99557495117188, 8.404998779296875, 0.612548828125, 0.182861328125, -0.678466796875
322, 113664100, 0.8982604742050171, 1.3264878988265991, 14.935550689697266, -28.180837631225586, 114.56009674072266, 43.2910270690918, 0.626708984375, 0.17529296875, -0.65478515625
323, 113680767, 4.347422122955322, -11.575815200805664, 27.65528678894043, -99.73912811279297, 115.40170288085938, 69.3571548461914, 0.638916015625, 0.16845703125, -0.62353515625
324, 113697434, 8.032495498657227, -17.374380111694336, 34.581939697265625, -27.42057991027832, 37.915809631347656, 28.533048629760742, 0.646728515625, 0.162353515625, -0.610107421875
325, 113714101, 1.151716947555542, -14.907198905944824, 40.02757263183594, 13.09913158416748, -91.26075744628906, -50.48565673828125, 0.640869140625, 0.166015625, -0.6259765625
326, 113730768, -0.05056595802307129, -13.762504577636719, 36.809696197509766, 4.060291767120361, -226.08224487304688, -96.27449035644531, 0.620361328125, 0.179931640625, -0.67333984375
327, 113747435, -3.321664810180664, -11.192045211791992, 31.48415756225586, -6.886621475219727, -282.1376037597656, -127.04515075683594, 0.588134765625, 0.20556640625, -0.737548828125
328, 113764102, -7.135298728942871, -8.024828910827637, 26.632463455200195, -19.76695442199707, -295.7710876464844, -148.18922424316406, 0.544677734375, 0.23193359375, -0.804443359375
329, 113780769, -10.778894424438477, -5.2827653884887695, 22.387107849121094, -31.58327293395996, -269.8056640625, -173.32081604003906, 0.499755859375, 0.2666015625, -0.867431640625
330, 113797436, -16.025117874145508, -3.461211919784546, 19.99201011657715, -20.92461395263672, -235.14797973632812, -192.63636779785156, 0.453857421875, 0.305419921875, -0.918212890625
331, 113814103, -21.044652938842773, -1.3852758407592773, 18.591489791870117, 37.559444427490234, -236.47808837890625, -168.2537078857422, 0.405029296875, 0.32958984375, -0.967041015625
332, 113830770, -21.44195556640625, 3.585878849029541, 15.913019180297852, 76.69365692138672, -273.275390625, -120.23036193847656, 0.345703125, 0.333984375, -1.018310546875
333, 113847437, -18.231046676635742, 8.316149711608887, 11.626737594604492, 33.03445816040039, -295.12188720703125, -87.96114349365234, 0.275146484375, 0.33349609375, -1.06884765625
334, 113864104, -17.526554107666016, 10.023978233337402, 7.556909084320068, -31.81708335876465, -279.6860656738281, -78.80924987792969, 0.20166015625, 0.3486328125, -1.106201171875
335, 113880771, -18.04268455505371, 11.159178733825684, 2.5923383235931396, -50.290313720703125, -250.18434143066406, -66.09481811523438, 0.130615234375, 0.36962890625, -1.13232421875
336, 113897438, -22.076148986816406, 10.775425910949707, -4.665788650512695, -27.300783157348633, -216.20591735839844, -64.54467010498047, 0.06982421875, 0.3828125, -1.150390625
337, 113914105, -27.732341766357422, 7.20094108581543, -12.824207305908203, 63.444427490234375, -184.4360809326172, -76.2171630859375, 0.013671875, 0.380859375, -1.167236328125
338, 113930772, -31.275650024414062, 7.5235819816589355, -22.143266677856445, 165.06117248535156, -180.86219787597656, -52.536373138427734, -0.04248046875, 0.34228515625, -1.180419921875
339, 113947439, -24.621183395385742, 9.214529991149902, -30.80278968811035, 137.23374938964844, -123.83690643310547, -23.38323402404785, -0.084716796875, 0.300537109375, -1.191162109375
340, 113964106, -20.66958236694336, 9.535918235778809, -29.14632225036621, 8.972484588623047, 18.892839431762695, -9.483811378479004, -0.091064453125, 0.290283203125, -1.190673828125
341, 113980773, -20.87462043762207, 7.21958065032959, -20.416858673095703, -65.22042846679688, 115.35159301757812, 39.14364242553711, -0.065185546875, 0.303466796875, -1.18603515625
342, 113997440, -19.282094955444336, 6.280978679656982, -12.917398452758789, -84.49752807617188, 167.70567321777344, 91.48623657226562, -0.017822265625, 0.322998046875, -1.174560546875
343, 114014107, -19.1314754486084, 4.758371353149414, -6.068728446960449, -98.31442260742188, 203.66603088378906, 113.94259643554688, 0.040771484375, 0.34228515625, -1.16259765625
344, 114030774, -18.30232810974121, 3.059971570968628, -0.9725886583328247, -98.08015441894531, 217.51919555664062, 116.48233795166016, 0.102294921875, 0.358642578125, -1.138671875
345, 114047441, -16.91818618774414, 1.748504638671875, 3.217088222503662, -76.17240142822266, 228.96815490722656, 95.5376968383789, 0.166259765625, 0.372802734375, -1.11279296875
346, 114064108, -16.406204223632812, 1.0531668663024902, 7.22055721282959, -23.282482147216797, 235.15281677246094, 66.44148254394531, 0.230712890625, 0.3720703125, -1.081787109375
347, 114080775, -16.73250389099121, 2.343871831893921, 10.678234100341797, 41.9852294921875, 223.71383666992188, 43.01805114746094, 0.289306640625, 0.356201171875, -1.04736328125
348, 114097442, -15.347092628479004, 2.9611809253692627, 12.776274681091309, 77.15615844726562, 213.0575714111328, 33.615211486816406, 0.338623046875, 0.33837890625, -1.013671875
349, 114114109, -12.611080169677734, 2.512669801712036, 15.614341735839844, 85.31598663330078, 228.1078643798828, 40.71945571899414, 0.38623046875, 0.31103515625, -0.974365234375
350, 114130776, -11.56308650970459, 4.33439826965332, 18.51919174194336, 46.801971435546875, 247.5900115966797, 63.14134979248047, 0.438720703125, 0.291748046875, -0.930908203125
351, 114147443, -8.977763175964355, 1.5340286493301392, 21.441818237304688, -6.330674648284912, 262.7962951660156, 90.6528549194336, 0.4873046875, 0.276123046875, -0.874755859375
352, 114164110, -3.4485960006713867, -1.443962812423706, 26.786487579345703, -32.0468635559082, 263.24127197265625, 126.59474182128906, 0.534912109375, 0.261474609375, -0.81640625
353, 114180777, 2.0496017932891846, -5.366320610046387, 30.988035202026367, -57.338897705078125, 219.5208282470703, 145.1106414794922, 0.5712890625, 0.24169921875, -0.760986328125
354, 114197444, 0.832514762878418, -10.551939010620117, 30.98069953918457, -40.82368087768555, 129.9063262939453, 135.89993286132812, 0.591552734375, 0.222412109375, -0.72705078125
355, 114214111, 0.08552861213684082, -12.103741645812988, 24.45124626159668, 18.10242462158203, 48.695777893066406, 102.11345672607422, 0.600830078125, 0.198486328125, -0.71044921875
356, 114230778, -0.7847641110420227, -8.770344734191895, 18.27197265625, 57.37215042114258, 31.952049255371094, 53.89439392089844, 0.604736328125, 0.1796875, -0.70361328125
357, 114247445, -1.8846087455749512, -4.581774711608887, 15.640523910522461, 59.22324752807617, 43.097068786621094, 15.463468551635742, 0.608154296875, 0.16796875, -0.6962890625
358, 114264112, -0.8809691071510315, -2.5069518089294434, 13.652044296264648, 52.171043395996094, 54.593509674072266, 2.2679543495178223, 0.616943359375, 0.160400390625, -0.681884765625
359, 114280779, -1.4462404251098633, -3.720301628112793, 12.980756759643555, 49.276180267333984, 67.13085174560547, -3.431302070617676, 0.623046875, 0.1533203125, -0.664306640625
360, 114297446, -2.1200151443481445, -4.250416278839111, 14.052214622497559, 33.471595764160156, 73.18172454833984, -23.032262802124023, 0.630615234375, 0.157470703125, -0.64697265625
361, 114314113, -9.623429298400879, 4.415719032287598, 19.19606590270996, -23.856409072875977, 23.64853858947754, -37.46641540527344, 0.638671875, 0.164794921875, -0.63525390625
362, 114330780, -2.2035534381866455, -0.7497091293334961, 12.763595581054688, -91.0756607055664, -41.96249008178711, 3.619542360305786, 0.635498046875, 0.174560546875, -0.6435546875
363, 114347447, -5.499606132507324, -4.778090476989746, 12.57042121887207, -13.494599342346191, -49.42763900756836, 2.244224786758423, 0.629638671875, 0.179443359375, -0.658447265625
364, 114364114, -6.882946968078613, 1.2598092555999756, 6.627104759216309, -1.470208764076233, -16.743896484375, 3.177879810333252, 0.62548828125, 0.18212890625, -0.6640625
365, 114380781, -6.655770301818848, 0.16972485184669495, 7.137643814086914, 3.1575188636779785, -16.112024307250977, 12.133143424987793, 0.62255859375, 0.178466796875, -0.66455078125
366, 114397448, -6.578975677490234, 2.4576971530914307, 6.818990230560303, 1.964963436126709, -11.432790756225586, 12.327486991882324, 0.6220703125, 0.173828125, -0.668212890625
367, 114414115, -6.7319183349609375, 3.0323383808135986, 6.758476734161377, -3.8360157012939453, -8.617600440979004, 6.787848472595215, 0.621826171875, 0.173828125, -0.672119140625
368, 114430782, -6.820199012756348, 3.2828409671783447, 6.678155422210693, -7.153298377990723, -9.901555061340332, -0.25144001841545105, 0.618896484375, 0.172119140625, -0.671142578125
369, 114447449, -6.626299858093262, 2.380795478820801, 6.792291164398193, -13.363502502441406, -18.468839645385742, -5.550807952880859, 0.619384765625, 0.1748046875, -0.677734375
370, 114464116, -6.441147327423096, 2.096149206161499, 6.8431878089904785, -16.64458465576172, -25.209613800048828, -6.895384311676025, 0.612060546875, 0.17919921875, -0.681884765625
371, 114480783, -6.339144706726074, 1.7409231662750244, 7.053482532501221, -13.363778114318848, -22.22835350036621, -5.57875394821167, 0.610107421875, 0.1806640625, -0.68603515625
372, 114497450, -6.374690055847168, 1.1721326112747192, 7.2515058517456055, -7.017282962799072, -12.86738109588623, -3.0171396732330322, 0.61083984375, 0.182861328125, -0.6923828125
373, 114514117, -6.396129131317139, 1.2938426733016968, 7.208781719207764, -1.598412036895752, -6.092750072479248, 0.12879988551139832, 0.60693359375, 0.182373046875, -0.691162109375
374, 114530784, -6.405395030975342, 1.6522550582885742, 7.07627010345459, 1.3078932762145996, -2.8266303539276123, 1.5636999607086182, 0.606201171875, 0.1826171875, -0.69384765625
375, 114547451, -6.4253363609313965, 1.8654227256774902, 7.043362140655518, 1.7589458227157593, -1.988839030265808, 1.5458226203918457, 0.6064453125, 0.18017578125, -0.693359375
376, 114564118, -6.390341281890869, 1.9745334386825562, 7.022130489349365, 0.8512957096099854, -2.684492826461792, 0.7706285119056702, 0.607421875, 0.18212890625, -0.69384765625
377, 114580785, -6.378009796142578, 2.030381202697754, 7.027155876159668, -0.998511016368866, -3.316434621810913, -0.7669849991798401, 0.60595703125, 0.18017578125, -0.693359375
378, 114597452, -6.368224143981934, 1.9387550354003906, 7.023846626281738, -2.6056056022644043, -4.801100730895996, -1.9455407857894897, 0.604736328125, 0.181640625, -0.69482421875
379, 114614119, -6.357236862182617, 1.7931407690048218, 7.045032501220703, -3.3458900451660156, -6.6544108390808105, -2.1310794353485107, 0.606689453125, 0.18212890625, -0.698974609375
380, 114630786, -6.362226486206055, 1.6649529933929443, 7.057037353515625, -2.308600664138794, -6.0554704666137695, -1.3437319993972778, 0.604248046875, 0.18310546875, -0.698486328125
381, 114647453, -6.335050582885742, 1.6216741800308228, 7.128219127655029, -0.9247592687606812, -4.798628807067871, -0.2840832471847534, 0.604248046875, 0.184326171875, -0.698486328125
382, 114664120, -6.3119635581970215, 1.7825816869735718, 7.092794895172119, 0.14359119534492493, -3.711318254470825, 0.46969205141067505, 0.603271484375, 0.18017578125, -0.700927734375
383, 114680787, -6.297092914581299, 1.8580836057662964, 7.103972911834717, 0.14996877312660217, -3.413827419281006, 0.15190252661705017, 0.604736328125, 0.18212890625, -0.700439453125
384, 114697454, -6.299447536468506, 1.8442811965942383, 7.134101867675781, -0.05111014097929001, -3.2428622245788574, -0.13939709961414337, 0.603759765625, 0.1796875, -0.699951171875
385, 114714121, -6.308958530426025, 1.913735270500183, 7.094168663024902, -0.6736780405044556, -3.0511386394500732, -0.7748225927352905, 0.6005859375, 0.1826171875, -0.701416015625
386, 114730788, -6.3348565101623535, 1.8770562410354614, 7.097696304321289, -1.4361039400100708, -3.5297114849090576, -1.528168797492981, 0.602294921875, 0.18115234375, -0.70361328125
387, 114747455, -6.3097686767578125, 1.848802089691162, 7.102461814880371, -2.059414863586426, -4.400518417358398, -2.0022475719451904, 0.6005859375, 0.18310546875, -0.70361328125
388, 114764122, -6.298230171203613, 1.806878924369812, 7.118070602416992, -1.9824488162994385, -4.1986517906188965, -2.0145413875579834, 0.60107421875, 0.184326171875, -0.7021484375
389, 114780789, -6.289005756378174, 1.7642080783843994, 7.143587112426758, -1.162176489830017, -3.376023292541504, -1.638098955154419, 0.60009765625, 0.1826171875, -0.70556640625
390, 114797456, -6.293001174926758, 1.6757415533065796, 7.145046234130859, -0.27812832593917847, -2.6544876098632812, -0.9089435338973999, 0.60107421875, 0.18408203125, -0.7041015625
391, 114814123, -6.294970989227295, 1.7933093309402466, 7.122154712677002, 0.47816991806030273, -1.969552755355835, -0.6041651964187622, 0.59912109375, 0.18115234375, -0.7041015625
392, 114830790, -6.269400119781494, 1.8025823831558228, 7.142380237579346, 0.40312471985816956, -1.9894154071807861, -0.714094877243042, 0.599609375, 0.18359375, -0.70556640625
393, 114847457, -6.285334587097168, 1.8056551218032837, 7.124030590057373, 0.3280026316642761, -1.8799464702606201, -0.7182824611663818, 0.5986328125, 0.1806640625, -0.7060546875
394, 114864124, -6.242430686950684, 1.8553199768066406, 7.120754241943359, 0.20287179946899414, -1.568150520324707, -0.8653379082679749, 0.60009765625, 0.18212890625, -0.70751953125
395, 114880791, -6.234489440917969, 1.7923048734664917, 7.141502857208252, 0.43952029943466187, -0.7351356744766235, -1.093367576599121, 0.59912109375, 0.1806640625, -0.70654296875
396, 114897458, -6.225867748260498, 1.8229618072509766, 7.118658542633057, 0.49489498138427734, -0.4273862838745117, -1.1060203313827515, 0.59912109375, 0.18212890625, -0.707763671875
397, 114914125, -6.264932632446289, 1.8023159503936768, 7.113193988800049, 0.46909013390541077, -0.41354262828826904, -1.2533702850341797, 0.6015625, 0.1806640625, -0.70556640625
398, 114930792, -6.2480034828186035, 1.9013307094573975, 7.123311519622803, 0.22493715584278107, -0.6429300308227539, -1.5530389547348022, 0.599609375, 0.18115234375, -0.70263671875
399, 114947459, -6.279267311096191, 1.8122175931930542, 7.098894119262695, -0.3196336627006531, -1.073530673980713, -1.9843695163726807, 0.60107421875, 0.1806640625, -0.7060546875
400, 114964126, -6.269228458404541, 1.823420524597168, 7.127412796020508, -0.5265586972236633, -1.0176949501037598, -2.124739646911621, 0.599609375, 0.18212890625, -0.70556640625
401, 114980793, -6.300380706787109, 1.7606825828552246, 7.124711036682129, -0.37388136982917786, -0.6392289400100708, -2.0308823585510254, 0.59912109375, 0.18359375, -0.70703125
402, 114997460, -6.278952121734619, 1.7949515581130981, 7.134643077850342, -0.16612394154071808, -0.4845922291278839, -1.8530786037445068, 0.60009765625, 0.18212890625, -0.70751953125
403, 115014127, -6.272471904754639, 1.7756357192993164, 7.134890079498291, 0.07437287271022797, -0.4056283235549927, -1.5789076089859009, 0.59716796875, 0.18359375, -0.70556640625
404, 115030794, -6.250605583190918, 1.8093172311782837, 7.165401458740234, 0.7470903992652893, 0.33170369267463684, -1.206883192062378, 0.5986328125, 0.1806640625, -0.70458984375
405, 115047461, -6.27473258972168, 1.8140932321548462, 7.169370651245117, 1.0580157041549683, 1.0435190200805664, -1.2506552934646606, 0.6005859375, 0.181640625, -0.705078125
406, 115064128, -6.292539119720459, 1.7850964069366455, 7.113635063171387, 0.7856247425079346, 1.3085720539093018, -1.554947018623352, 0.6025390625, 0.1826171875, -0.705078125
407, 115080795, -6.304070472717285, 1.8081773519515991, 7.118018627166748, 0.5376681685447693, 0.8639611601829529, -1.514568567276001, 0.60107421875, 0.181640625, -0.7041015625
408, 115097462, -6.301316738128662, 1.8146575689315796, 7.108412265777588, 0.23132751882076263, 0.41393327713012695, -1.6025482416152954, 0.599609375, 0.1796875, -0.70263671875
409, 115114129, -6.306601524353027, 1.8389759063720703, 7.090915203094482, -0.00824728887528181, -0.027328750118613243, -1.843909502029419, 0.602294921875, 0.1806640625, -0.702392578125
410, 115130796, -6.305760860443115, 1.8077890872955322, 7.117405891418457, -0.32900795340538025, -0.34020066261291504, -1.9277909994125366, 0.60107421875, 0.181640625, -0.70263671875
411, 115147463, -6.306393146514893, 1.7961775064468384, 7.124533653259277, -0.28994855284690857, -0.41752538084983826, -1.8670119047164917, 0.5986328125, 0.18359375, -0.70361328125
412, 115164130, -6.3157854080200195, 1.7719340324401855, 7.122472286224365, -0.5484191179275513, -0.7470839619636536, -1.876399040222168, 0.602294921875, 0.18115234375, -0.70361328125
413, 115180797, -6.322357177734375, 1.730188012123108, 7.11397123336792, -0.5101536512374878, -0.9345303773880005, -1.698326587677002, 0.6005859375, 0.18310546875, -0.70361328125
414, 115197464, -6.321255207061768, 1.7790796756744385, 7.099721908569336, -0.3183146119117737, -1.1408408880233765, -1.330771803855896, 0.60009765625, 0.181640625, -0.7041015625
415, 115214131, -6.29727840423584, 1.8088709115982056, 7.127139091491699, -0.26232531666755676, -1.2082151174545288, -1.2352622747421265, 0.602783203125, 0.181640625, -0.703125
416, 115230798, -6.300862789154053, 1.805603265762329, 7.123052597045898, -0.16006654500961304, -1.1010515689849854, -1.2125821113586426, 0.60107421875, 0.18359375, -0.70556640625
417, 115247465, -6.285506248474121, 1.841332197189331, 7.135811805725098, -0.20040655136108398, -1.0182969570159912, -1.3664630651474, 0.60009765625, 0.1826171875, -0.7041015625
418, 115264132, -6.303465843200684, 1.774475336074829, 7.117624759674072, -0.19678236544132233, -0.8520320057868958, -1.3673851490020752, 0.6005859375, 0.181640625, -0.705078125
419, 115280799, -6.306654930114746, 1.7883529663085938, 7.129788398742676, -0.3963693380355835, -1.04512619972229, -1.3556673526763916, 0.59912109375, 0.181640625, -0.701904296875
420, 115297466, -6.303337574005127, 1.7844747304916382, 7.107869625091553, -0.35582444071769714, -1.069509506225586, -1.286077618598938, 0.6025390625, 0.1826171875, -0.703125
421, 115314133, -6.297493934631348, 1.8045867681503296, 7.1164655685424805, -0.3677727282047272, -1.11203932762146, -1.285206913948059, 0.60107421875, 0.1826171875, -0.70361328125
422, 115330800, -6.29828405380249, 1.7965326309204102, 7.109496593475342, -0.341084361076355, -1.152430772781372, -1.2065119743347168, 0.60107421875, 0.18310546875, -0.70361328125
423, 115347467, -6.304046154022217, 1.7942451238632202, 7.122554779052734, -0.29992473125457764, -0.8476650714874268, -1.0872591733932495, 0.60302734375, 0.18310546875, -0.705078125
424, 115364134, -6.309220790863037, 1.778685450553894, 7.124992370605469, 0.10414763540029526, -0.3220028281211853, -0.9822853803634644, 0.60009765625, 0.18359375, -0.703125
425, 115380801, -6.300392150878906, 1.7846450805664062, 7.113163948059082, 0.26007774472236633, 0.10716993361711502, -0.8668105602264404, 0.60205078125, 0.181640625, -0.70263671875
426, 115397468, -6.301419734954834, 1.7799525260925293, 7.121166706085205, 0.2210952192544937, 0.11945121735334396, -0.8168145418167114, 0.59912109375, 0.1806640625, -0.699951171875
427, 115414135, -6.29654598236084, 1.7918086051940918, 7.121827125549316, 0.1170436292886734, -0.02159150503575802, -0.7911378145217896, 0.6015625, 0.18359375, -0.70263671875
428, 115430802, -6.302968978881836, 1.8244155645370483, 7.0915985107421875, -0.16252538561820984, -0.425260454416275, -0.7303845286369324, 0.5986328125, 0.1826171875, -0.70361328125
429, 115447469, -6.287930965423584, 1.8317400217056274, 7.086130142211914, -0.29627490043640137, -0.9983958601951599, -0.8451679348945618, 0.60009765625, 0.18359375, -0.703125
430, 115464136, -6.273791790008545, 1.8734239339828491, 7.1044440269470215, -0.3036385774612427, -1.2575836181640625, -1.2049111127853394, 0.60205078125, 0.18212890625, -0.70361328125
431, 115480803, -6.287143707275391, 1.8310924768447876, 7.123919486999512, -0.226531520485878, -0.8409417867660522, -1.3620193004608154, 0.601806640625, 0.1826171875, -0.699951171875
432, 115497470, -6.2969069480896, 1.8052815198898315, 7.098055362701416, -0.4440089464187622, -1.0582014322280884, -1.479466199874878, 0.6005859375, 0.184326171875, -0.70166015625
433, 115514137, -6.297321796417236, 1.7979546785354614, 7.1213459968566895, -0.18766427040100098, -1.1805661916732788, -1.339505910873413, 0.60107421875, 0.181640625, -0.70556640625
434, 115530804, -6.313083171844482, 1.7988793849945068, 7.11906099319458, 0.5588114261627197, -0.8685522079467773, -1.1089658737182617, 0.60205078125, 0.18115234375, -0.703125
435, 115547471, -6.2837677001953125, 1.799149990081787, 7.108688831329346, 0.7703723311424255, -1.0185017585754395, -1.0507481098175049, 0.59912109375, 0.1826171875, -0.70458984375
436, 115564138, -6.284358501434326, 1.8015912771224976, 7.104398727416992, 0.6285548806190491, -1.0552433729171753, -0.8724582195281982, 0.59912109375, 0.18115234375, -0.70361328125
437, 115580805, -6.275325298309326, 1.8486299514770508, 7.116987228393555, 0.40902838110923767, -1.0323199033737183, -0.7564070820808411, 0.602294921875, 0.181640625, -0.703125
438, 115597472, -6.274613380432129, 1.8739620447158813, 7.117214202880859, 0.04558420181274414, -1.273463487625122, -1.0127133131027222, 0.59912109375, 0.18115234375, -0.7060546875
439, 115614139, -6.259982109069824, 1.8285901546478271, 7.10347318649292, -0.2749651074409485, -1.4203521013259888, -1.2400643825531006, 0.602294921875, 0.1796875, -0.70556640625
440, 115630806, -6.291856288909912, 1.833685040473938, 7.119896411895752, -0.24852003157138824, -1.2786245346069336, -1.2063838243484497, 0.60205078125, 0.18310546875, -0.70458984375
441, 115647473, -6.291117191314697, 1.8220434188842773, 7.140162944793701, -0.23240965604782104, -1.0099471807479858, -1.3743518590927124, 0.601806640625, 0.18115234375, -0.702392578125
442, 115664140, -6.29006814956665, 1.831114411354065, 7.118784427642822, -0.21248291432857513, -0.9746271371841431, -1.5487101078033447, 0.59912109375, 0.181640625, -0.70361328125
443, 115680807, -6.291994094848633, 1.8328330516815186, 7.126399993896484, -0.1591445356607437, -0.8002431988716125, -1.5222012996673584, 0.60107421875, 0.18017578125, -0.70361328125
444, 115697474, -6.297067642211914, 1.8212250471115112, 7.116552829742432, 0.03823335841298103, -0.6299059391021729, -1.4976001977920532, 0.60009765625, 0.18115234375, -0.705078125
445, 115714141, -6.29789400100708, 1.8166393041610718, 7.098243713378906, 0.1346907913684845, -0.5662455558776855, -1.4756755828857422, 0.6015625, 0.18212890625, -0.7060546875
446, 115730808, -6.291582107543945, 1.808646559715271, 7.113895893096924, 0.09639979898929596, -0.5794617533683777, -1.383777379989624, 0.599609375, 0.181640625, -0.7041015625
447, 115747475, -6.305347442626953, 1.8210334777832031, 7.119096279144287, 0.06612558662891388, -0.6463236212730408, -1.353285312652588, 0.6005859375, 0.18017578125, -0.702392578125
448, 115764142, -6.307530403137207, 1.8337222337722778, 7.109833717346191, -0.09905712306499481, -0.8840223550796509, -1.3237924575805664, 0.60205078125, 0.18115234375, -0.70458984375
449, 115780809, -6.308273792266846, 1.8516063690185547, 7.121901988983154, -0.2890776991844177, -1.0773340463638306, -1.5322538614273071, 0.602294921875, 0.1796875, -0.70458984375
450, 115797476, -6.292354106903076, 1.7999306917190552, 7.124094486236572, -0.45476627349853516, -1.3067599534988403, -1.512852430343628, 0.6005859375, 0.178955078125, -0.70458984375
451, 115814143, -6.2800822257995605, 1.8131591081619263, 7.093029022216797, -0.3592309057712555, -1.2470951080322266, -1.4848705530166626, 0.60009765625, 0.1796875, -0.70703125
452, 115830810, -6.290126323699951, 1.8316729068756104, 7.111445426940918, -0.35796305537223816, -1.1826919317245483, -1.4007200002670288, 0.599609375, 0.18212890625, -0.705078125
453, 115847477, -6.28216552734375, 1.8380337953567505, 7.111508369445801, -0.36895090341567993, -1.2179605960845947, -1.5652176141738892, 0.5986328125, 0.1806640625, -0.703125
454, 115864144, -6.280691623687744, 1.8191472291946411, 7.128520488739014, -0.5268276333808899, -1.2713632583618164, -1.6596388816833496, 0.59814453125, 0.18017578125, -0.70458984375
455, 115880811, -6.281874656677246, 1.795278549194336, 7.12871789932251, -0.5520561337471008, -1.2443417310714722, -1.5878208875656128, 0.6015625, 0.17919921875, -0.70556640625
456, 115897478, -6.295925140380859, 1.8048229217529297, 7.12802267074585, -0.458396852016449, -1.2110259532928467, -1.490985631942749, 0.59814453125, 0.18115234375, -0.70654296875
457, 115914145, -6.279490947723389, 1.8208781480789185, 7.129367828369141, -0.525636613368988, -1.230920672416687, -1.4845247268676758, 0.60107421875, 0.1806640625, -0.7060546875
458, 115930812, -6.272581100463867, 1.822236180305481, 7.132836818695068, -0.6515487432479858, -1.3357280492782593, -1.53434157371521, 0.5986328125, 0.181640625, -0.708251953125
459, 115947479, -6.263173580169678, 1.8146917819976807, 7.1411614418029785, -0.7019928693771362, -1.249848484992981, -1.6371382474899292, 0.59912109375, 0.1826171875, -0.707763671875
460, 115964146, -6.265071868896484, 1.7917476892471313, 7.1338725090026855, -0.5633512139320374, -1.129366397857666, -1.5858229398727417, 0.59765625, 0.1826171875, -0.70458984375
461, 115980813, -6.281698226928711, 1.8090287446975708, 7.1248555183410645, -0.5144182443618774, -0.8805645704269409, -1.6109235286712646, 0.5986328125, 0.1806640625, -0.7060546875
462, 115997480, -6.280965328216553, 1.8055968284606934, 7.16024112701416, -0.4004545211791992, -0.7738364338874817, -1.6068637371063232, 0.60205078125, 0.184326171875, -0.70751953125
463, 116014147, -6.274813175201416, 1.781883955001831, 7.145407199859619, -0.35449257493019104, -0.8009476065635681, -1.559980034828186, 0.60205078125, 0.18212890625, -0.70654296875
464, 116030814, -6.296897888183594, 1.7852182388305664, 7.121466636657715, 0.19610363245010376, -0.4458402395248413, -1.2063709497451782, 0.6005859375, 0.1806640625, -0.705078125
465, 116047481, -6.296568870544434, 1.799194097518921, 7.130914211273193, 0.41217875480651855, -0.2613263428211212, -1.1147541999816895, 0.59765625, 0.1826171875, -0.70654296875
466, 116064148, -6.293230056762695, 1.8030107021331787, 7.154684543609619, 0.2532903850078583, -0.46488332748413086, -1.1380107402801514, 0.59912109375, 0.18017578125, -0.7060546875
467, 116080815, -6.288550853729248, 1.8043434619903564, 7.134946346282959, 0.11233090609312057, -0.6218891143798828, -1.1374856233596802, 0.6015625, 0.18212890625, -0.70556640625
468, 116097482, -6.288201332092285, 1.8048402070999146, 7.120080471038818, 0.08974049240350723, -0.6963323950767517, -1.1653649806976318, 0.60107421875, 0.1806640625, -0.70556640625
469, 116114149, -6.290111064910889, 1.8166385889053345, 7.119861125946045, -0.13806524872779846, -0.8443354964256287, -1.2440855503082275, 0.60107421875, 0.1826171875, -0.7021484375
470, 116130816, -6.272270202636719, 1.8345259428024292, 7.132529258728027, -0.4199458062648773, -1.0461121797561646, -1.4110419750213623, 0.60107421875, 0.18310546875, -0.70458984375
471, 116147483, -6.284746170043945, 1.7917113304138184, 7.1285247802734375, -0.5351901650428772, -0.9963340163230896, -1.6124346256256104, 0.60107421875, 0.18212890625, -0.70556640625
472, 116164150, -6.274055480957031, 1.7867271900177002, 7.1303019523620605, -0.4984615445137024, -0.7680736184120178, -1.561580777168274, 0.599609375, 0.18212890625, -0.707763671875
473, 116180817, -6.285638809204102, 1.823203682899475, 7.127357482910156, -0.468635618686676, -0.7418462634086609, -1.4810800552368164, 0.602294921875, 0.18115234375, -0.703125
474, 116197484, -6.289120674133301, 1.8163318634033203, 7.107309341430664, -0.5921400189399719, -0.7847474813461304, -1.5234689712524414, 0.59912109375, 0.18115234375, -0.70654296875
475, 116214151, -6.292612075805664, 1.80056631565094, 7.122283935546875, -0.7222524881362915, -0.9134640693664551, -1.7123370170593262, 0.59912109375, 0.18212890625, -0.70751953125
476, 116230818, -6.288154125213623, 1.8048148155212402, 7.133543968200684, -0.689865231513977, -0.9335572123527527, -1.6888885498046875, 0.6005859375, 0.1826171875, -0.70458984375
477, 116247485, -6.2873854637146, 1.8082528114318848, 7.122938632965088, -0.7377225756645203, -0.8886326551437378, -1.7922871112823486, 0.59814453125, 0.181640625, -0.7060546875
478, 116264152, -6.285106182098389, 1.80210280418396, 7.121576309204102, -0.6927594542503357, -0.7340599894523621, -1.7135663032531738, 0.599609375, 0.18359375, -0.7041015625
479, 116280819, -6.294442653656006, 1.7933001518249512, 7.136359214782715, -0.6325568556785583, -0.6378330588340759, -1.791121482849121, 0.6015625, 0.18359375, -0.70751953125
480, 116297486, -6.285225868225098, 1.787976861000061, 7.108704090118408, -0.5211799144744873, -0.6087625622749329, -1.6732261180877686, 0.6015625, 0.18408203125, -0.70556640625
481, 116314153, -6.3000807762146, 1.8063641786575317, 7.132502555847168, -0.38612425327301025, -0.5764650106430054, -1.6362673044204712, 0.59912109375, 0.18310546875, -0.70361328125
482, 116330820, -6.282889366149902, 1.8121187686920166, 7.121167182922363, -0.42275044322013855, -0.6201090812683105, -1.575424313545227, 0.5986328125, 0.1845703125, -0.705078125
483, 116347487, -6.283870697021484, 1.7991318702697754, 7.145523548126221, -0.4536777138710022, -0.6489489078521729, -1.6810126304626465, 0.6005859375, 0.1845703125, -0.707763671875
484, 116364154, -6.297557353973389, 1.7784744501113892, 7.121659278869629, -0.5545917749404907, -0.6005921363830566, -1.7989847660064697, 0.6005859375, 0.18310546875, -0.705078125
485, 116380821, -6.292571067810059, 1.78606116771698, 7.12008810043335, -0.580742359161377, -0.6215561032295227, -1.7600919008255005, 0.59912109375, 0.18408203125, -0.70654296875
486, 116397488, -6.291611194610596, 1.7795131206512451, 7.141696453094482, -0.5519792437553406, -0.6950902342796326, -1.779121994972229, 0.6005859375, 0.18310546875, -0.7060546875
487, 116414155, -6.296051025390625, 1.7747154235839844, 7.132510185241699, -0.5980948805809021, -0.6022441387176514, -1.8186935186386108, 0.6015625, 0.1826171875, -0.70654296875
488, 116430822, -6.280529499053955, 1.7751580476760864, 7.111940860748291, -0.6112597584724426, -0.5976338386535645, -1.8710460662841797, 0.59912109375, 0.185302734375, -0.7041015625
489, 116447489, -6.270007133483887, 1.7721199989318848, 7.126330375671387, -0.6345289945602417, -0.4803917706012726, -1.8891156911849976, 0.59814453125, 0.185302734375, -0.7041015625
490, 116464156, -6.283113956451416, 1.7675409317016602, 7.13401985168457, -0.5772077441215515, -0.4039890766143799, -1.8978111743927002, 0.6005859375, 0.1845703125, -0.7041015625
491, 116480823, -6.297273635864258, 1.7572476863861084, 7.117682933807373, -0.49826934933662415, -0.43431445956230164, -1.763331651687622, 0.599609375, 0.186767578125, -0.70654296875
492, 116497490, -6.312250137329102, 1.7630976438522339, 7.130143642425537, -0.37124326825141907, -0.34705206751823425, -1.682037353515625, 0.6005859375, 0.18408203125, -0.703125
493, 116514157, -6.311107158660889, 1.7811208963394165, 7.1189045906066895, -0.27903756499290466, -0.40521854162216187, -1.6021640300750732, 0.60205078125, 0.185302734375, -0.705078125
494, 116530824, -6.296055793762207, 1.78044593334198, 7.128147125244141, -0.3578990697860718, -0.5717138648033142, -1.5166304111480713, 0.60205078125, 0.184814453125, -0.70458984375
495, 116547491, -6.298557758331299, 1.7625724077224731, 7.116575241088867, -0.3368838429450989, -0.7026332020759583, -1.5239428281784058, 0.6005859375, 0.186279296875, -0.7041015625
496, 116564158, -6.310291767120361, 1.7734037637710571, 7.1177167892456055, -0.35173916816711426, -0.7905358672142029, -1.46756911277771, 0.59814453125, 0.18408203125, -0.70458984375
497, 116580825, -6.305675983428955, 1.7730690240859985, 7.108567714691162, -0.27924248576164246, -0.8754037022590637, -1.4703483581542969, 0.60107421875, 0.184814453125, -0.705078125
498, 116597492, -6.30863094329834, 1.7759504318237305, 7.120049953460693, -0.33452746272087097, -0.9678398370742798, -1.4176115989685059, 0.6015625, 0.187255859375, -0.707763671875
499, 116614159, -6.296285629272461, 1.775528073310852, 7.125689506530762, -0.3587186932563782, -0.8475499153137207, -1.4331459999084473, 0.6015625, 0.184814453125, -0.70654296875
500, 116630826, -6.308739185333252, 1.7696943283081055, 7.123809337615967, -0.2686068117618561, -0.8385918140411377, -1.2922312021255493, 0.599609375, 0.186279296875, -0.706787109375
501, 116647493, -6.29618501663208, 1.775697112083435, 7.111382961273193, -0.2519264817237854, -0.7171043157577515, -1.2543818950653076, 0.60009765625, 0.1845703125, -0.70361328125
502, 116664160, -6.295080661773682, 1.7580684423446655, 7.100754737854004, -0.2161327749490738, -0.7497733235359192, -1.3909233808517456, 0.60107421875, 0.184814453125, -0.70263671875
503, 116680827, -6.291328430175781, 1.7637742757797241, 7.124236583709717, -0.221287339925766, -0.6381980776786804, -1.3059340715408325, 0.6015625, 0.186279296875, -0.70458984375
504, 116697494, -6.298266410827637, 1.7647086381912231, 7.120736122131348, -0.14916835725307465, -0.7925593256950378, -1.2643964290618896, 0.60205078125, 0.186279296875, -0.7060546875
505, 116714161, -6.299126625061035, 1.766247034072876, 7.141748428344727, -0.11593588441610336, -0.7734395861625671, -1.112462043762207, 0.6005859375, 0.184814453125, -0.705078125
506, 116730828, -6.294922351837158, 1.7585567235946655, 7.116292953491211, -0.07034527510404587, -0.95280522108078, -1.0818804502487183, 0.60107421875, 0.185791015625, -0.707275390625
507, 116747495, -6.298645973205566, 1.788451075553894, 7.129047393798828, -0.04460451379418373, -1.0313080549240112, -1.0699961185455322, 0.599609375, 0.18408203125, -0.70458984375
508, 116764162, -6.299237251281738, 1.7758837938308716, 7.114274024963379, -0.10702267289161682, -1.0161967277526855, -1.0444475412368774, 0.6015625, 0.185302734375, -0.70458984375
509, 116780829, -6.300090312957764, 1.7632173299789429, 7.109705924987793, 0.027411993592977524, -0.8753268718719482, -1.0034031867980957, 0.6025390625, 0.185302734375, -0.7041015625
510, 116797496, -6.295277118682861, 1.762395977973938, 7.144711494445801, 0.2900190055370331, -0.7864122986793518, -0.7334965467453003, 0.599609375, 0.18310546875, -0.70458984375
511, 116814163, -6.301366806030273, 1.7753292322158813, 7.136616230010986, 0.4183129668235779, -0.6035632491111755, -0.6494611501693726, 0.60205078125, 0.185302734375, -0.7041015625
512, 116830830, -6.2970170974731445, 1.7911105155944824, 7.098435401916504, 0.5158461332321167, -0.5342808961868286, -0.6380763053894043, 0.6005859375, 0.1845703125, -0.7041015625
513, 116847497, -6.3049516677856445, 1.77066171169281, 7.13585090637207, 0.46337854862213135, -0.5350364446640015, -0.6321853995323181, 0.60009765625, 0.18359375, -0.70556640625
514, 116864164, -6.293825149536133, 1.80429208278656, 7.116300106048584, 0.28729763627052307, -0.5091676712036133, -0.785912811756134, 0.60205078125, 0.18359375, -0.705078125
515, 116880831, -6.306054592132568, 1.7873951196670532, 7.1197967529296875, 0.1037890613079071, -0.8132416605949402, -0.8615727424621582, 0.60205078125, 0.18359375, -0.70458984375
516, 116897498, -6.291190147399902, 1.7821418046951294, 7.117571830749512, 0.015988729894161224, -0.9558531045913696, -0.9888551831245422, 0.599609375, 0.18359375, -0.70361328125
517, 116914165, -6.289134502410889, 1.7974810600280762, 7.122931957244873, -0.08082086592912674, -1.037954568862915, -0.986524224281311, 0.5986328125, 0.185302734375, -0.703125
518, 116930832, -6.29283332824707, 1.8068445920944214, 7.111710548400879, -0.11126796156167984, -1.0435446500778198, -1.0259613990783691, 0.60205078125, 0.18359375, -0.7041015625
519, 116947499, -6.273098945617676, 1.7892756462097168, 7.137829780578613, -0.12875503301620483, -1.0974146127700806, -1.084838628768921, 0.59765625, 0.18359375, -0.70703125
520, 116964166, -6.286920070648193, 1.8115200996398926, 7.0982160568237305, -0.28375035524368286, -1.1426723003387451, -1.2440601587295532, 0.6005859375, 0.185302734375, -0.70654296875
521, 116980833, -6.2879414558410645, 1.7945350408554077, 7.130396366119385, -0.390465646982193, -1.0785635709762573, -1.3338325023651123, 0.60205078125, 0.18212890625, -0.705078125
522, 116997500, -6.277732849121094, 1.7923822402954102, 7.161536693572998, -0.38807082176208496, -0.9151802659034729, -1.4550191164016724, 0.6005859375, 0.18212890625, -0.70361328125
523, 117014167, -6.289180755615234, 1.7795610427856445, 7.109774112701416, -0.34606602787971497, -0.9003633260726929, -1.4486544132232666, 0.6025390625, 0.18359375, -0.70556640625
524, 117030834, -6.293221950531006, 1.7907626628875732, 7.125699043273926, -0.34755152463912964, -0.7615296244621277, -1.4404454231262207, 0.60107421875, 0.18408203125, -0.7060546875
525, 117047501, -6.304483413696289, 1.7787646055221558, 7.116244792938232, -0.3571178913116455, -0.8824087977409363, -1.4419821500778198, 0.60009765625, 0.185302734375, -0.70458984375
526, 117064168, -6.310836315155029, 1.7759596109390259, 7.125380992889404, -0.1969744712114334, -0.8535431623458862, -1.2290382385253906, 0.60107421875, 0.18310546875, -0.70654296875
527, 117080835, -6.300233364105225, 1.7984520196914673, 7.117494106292725, -0.17209172248840332, -0.8234483599662781, -1.2182552814483643, 0.599609375, 0.1826171875, -0.7060546875
528, 117097502, -6.2933855056762695, 1.7989412546157837, 7.134775161743164, -0.23462511599063873, -0.8086441159248352, -1.3348441123962402, 0.59912109375, 0.18310546875, -0.70556640625
529, 117114169, -6.2713303565979, 1.78383207321167, 7.133941173553467, -0.2639516592025757, -0.7777808308601379, -1.3131245374679565, 0.60009765625, 0.18359375, -0.7041015625
530, 117130836, -6.299067974090576, 1.776163101196289, 7.1389360427856445, -0.23088568449020386, -0.8034831881523132, -1.1794391870498657, 0.60009765625, 0.18310546875, -0.7060546875
531, 117147503, -6.287280082702637, 1.7956713438034058, 7.129397392272949, -0.2003297507762909, -0.9111846089363098, -1.2603241205215454, 0.6015625, 0.18212890625, -0.701904296875
532, 117164170, -6.294604301452637, 1.796162486076355, 7.137691497802734, -0.21076689660549164, -0.8120635151863098, -1.2223533391952515, 0.6025390625, 0.18310546875, -0.70361328125
533, 117180837, -6.294329643249512, 1.7970534563064575, 7.1326093673706055, -0.2121627777814865, -0.8636475205421448, -1.302533745765686, 0.60107421875, 0.184326171875, -0.70361328125
534, 117197504, -6.307554244995117, 1.8006404638290405, 7.1228179931640625, -0.2669483423233032, -0.8530949354171753, -1.3393903970718384, 0.60107421875, 0.184326171875, -0.70263671875
535, 117214171, -6.285110950469971, 1.7958462238311768, 7.11691427230835, -0.20292943716049194, -0.8430420160293579, -1.1990842819213867, 0.6005859375, 0.1826171875, -0.70556640625
536, 117230838, -6.292829990386963, 1.793095588684082, 7.144504547119141, -0.20917893946170807, -0.9979859590530396, -1.2677390575408936, 0.6015625, 0.1826171875, -0.70654296875
537, 117247505, -6.303578853607178, 1.7728986740112305, 7.168774127960205, -0.21375079452991486, -0.6855623126029968, -1.2628470659255981, 0.6005859375, 0.18359375, -0.705078125
538, 117264172, -6.281771183013916, 1.7856533527374268, 7.135401248931885, -0.15974640846252441, -0.6409322619438171, -1.212172269821167, 0.60009765625, 0.185302734375, -0.70361328125
539, 117280839, -6.280296325683594, 1.8090075254440308, 7.102022171020508, -0.1615777164697647, -0.7220092415809631, -1.2708637714385986, 0.60107421875, 0.184814453125, -0.7041015625
540, 117297506, -6.289837837219238, 1.7834593057632446, 7.115597248077393, -0.21742619574069977, -0.5969424247741699, -1.3208725452423096, 0.60205078125, 0.18359375, -0.705078125
541, 117314173, -6.288992404937744, 1.77100670337677, 7.1371283531188965, -0.16562451422214508, -0.7158109545707703, -1.2966043949127197, 0.6005859375, 0.18359375, -0.70361328125
542, 117330840, -6.298685073852539, 1.7938084602355957, 7.131505012512207, -0.14416107535362244, -0.7667033672332764, -1.3130990266799927, 0.6005859375, 0.185302734375, -0.70556640625
543, 117347507, -6.275683879852295, 1.7861531972885132, 7.109086513519287, -0.12815314531326294, -0.801754355430603, -1.3002287149429321, 0.59814453125, 0.1826171875, -0.7060546875
544, 117364174, -6.281929016113281, 1.7931699752807617, 7.122154712677002, -0.24791812896728516, -0.8389822840690613, -1.3830217123031616, 0.60107421875, 0.18359375, -0.70361328125
545, 117380841, -6.29527473449707, 1.8029512166976929, 7.137556076049805, -0.30522656440734863, -0.8651458024978638, -1.4596550464630127, 0.60107421875, 0.186767578125, -0.70458984375
546, 117397508, -6.297642230987549, 1.7886018753051758, 7.109767436981201, -0.4226478934288025, -0.939601719379425, -1.5597490072250366, 0.6005859375, 0.18359375, -0.703125
547, 117414175, -6.280189037322998, 1.7839014530181885, 7.117072105407715, -0.4159245491027832, -0.9941824078559875, -1.5770633220672607, 0.5986328125, 0.18310546875, -0.70556640625
548, 117430842, -6.282436370849609, 1.7692666053771973, 7.120713710784912, -0.3733178973197937, -0.9574539065361023, -1.4843584299087524, 0.60009765625, 0.18408203125, -0.70556640625
549, 117447509, -6.282098770141602, 1.7809056043624878, 7.10761833190918, -0.30106452107429504, -0.8042644262313843, -1.4842816591262817, 0.60107421875, 0.18359375, -0.70458984375
550, 117464176, -6.294862270355225, 1.7685086727142334, 7.128586769104004, -0.2500055730342865, -0.7496452927589417, -1.4021673202514648, 0.6005859375, 0.184814453125, -0.70361328125
551, 117480843, -6.294593811035156, 1.7913979291915894, 7.118585109710693, -0.1943235546350479, -0.853402316570282, -1.3532214164733887, 0.59912109375, 0.18408203125, -0.70654296875
552, 117497510, -6.293025493621826, 1.771664023399353, 7.112905502319336, -0.11278552561998367, -0.8574492335319519, -1.2954903841018677, 0.6005859375, 0.18212890625, -0.70654296875
553, 117514177, -6.298709869384766, 1.7674134969711304, 7.112516403198242, -0.12222380936145782, -1.0039921998977661, -1.1854966878890991, 0.6005859375, 0.1845703125, -0.7060546875
554, 117530844, -6.291740894317627, 1.7698081731796265, 7.136386394500732, -0.16118712723255157, -1.0187643766403198, -1.1125452518463135, 0.60205078125, 0.18359375, -0.70361328125
555, 117547511, -6.287174224853516, 1.7676997184753418, 7.125884532928467, -0.08321566134691238, -0.9748194217681885, -0.9956041574478149, 0.59912109375, 0.18359375, -0.705078125
556, 117564178, -6.31320333480835, 1.7601375579833984, 7.136274814605713, 0.0818517878651619, -0.9175109267234802, -0.7435750961303711, 0.60009765625, 0.18359375, -0.70458984375
557, 117580845, -6.287799835205078, 1.7834688425064087, 7.114017963409424, 0.0891001746058464, -0.9777392148971558, -0.7254797220230103, 0.5986328125, 0.18505859375, -0.70556640625
558, 117597512, -6.300929069519043, 1.7948062419891357, 7.134925365447998, 0.06617681682109833, -1.0975810289382935, -0.730051577091217, 0.599609375, 0.18310546875, -0.70361328125
559, 117614179, -6.2822747230529785, 1.7922190427780151, 7.131651401519775, -0.018069760873913765, -1.0510427951812744, -0.7643725872039795, 0.599609375, 0.184814453125, -0.705078125
560, 117630846, -6.287664890289307, 1.7639999389648438, 7.112582683563232, 0.07957226037979126, -1.0163376331329346, -0.6922600865364075, 0.59814453125, 0.18359375, -0.70458984375
561, 117647513, -6.285160064697266, 1.7748163938522339, 7.136547088623047, 0.11482812464237213, -0.9520496129989624, -0.5709198117256165, 0.6025390625, 0.18408203125, -0.7060546875
562, 117664180, -6.2851152420043945, 1.7802128791809082, 7.126852512359619, 0.523414671421051, -0.8939087986946106, -0.41835781931877136, 0.599609375, 0.186279296875, -0.7021484375
563, 117680847, -6.2757744789123535, 1.8184502124786377, 7.1303558349609375, 0.521135151386261, -0.8920774459838867, -0.4646783769130707, 0.60107421875, 0.18115234375, -0.7060546875
564, 117697514, -6.2776594161987305, 1.8244918584823608, 7.124617099761963, 0.3498246669769287, -0.9382187128067017, -0.6715394258499146, 0.6005859375, 0.18212890625, -0.7060546875
565, 117714181, -6.269435405731201, 1.8190135955810547, 7.155312538146973, 0.18930988013744354, -0.9209814667701721, -0.9328784346580505, 0.60205078125, 0.18115234375, -0.703125
566, 117730848, -6.2728986740112305, 1.8150215148925781, 7.122681140899658, -0.050533853471279144, -1.0324093103408813, -1.029246211051941, 0.5986328125, 0.18310546875, -0.70556640625
567, 117747515, -6.261710166931152, 1.8260966539382935, 7.120100021362305, -0.03046630509197712, -1.0180407762527466, -1.1026908159255981, 0.60009765625, 0.18212890625, -0.70751953125
568, 117764182, -6.268012046813965, 1.8197286128997803, 7.139104843139648, -0.0770173892378807, -0.9941824674606323, -1.250552773475647, 0.60107421875, 0.18115234375, -0.70556640625
569, 117780849, -6.2668046951293945, 1.8097188472747803, 7.114682674407959, 0.0027341556269675493, -0.9290109872817993, -1.374735951423645, 0.5986328125, 0.1806640625, -0.70556640625
570, 117797516, -6.279376983642578, 1.7977573871612549, 7.118561744689941, -0.1448526233434677, -0.8831899762153625, -1.4599112272262573, 0.6015625, 0.17919921875, -0.7060546875
571, 117814183, -6.2820587158203125, 1.818414568901062, 7.120185852050781, -0.2710464298725128, -0.8661575317382812, -1.5391440391540527, 0.60107421875, 0.18115234375, -0.70654296875
572, 117830850, -6.27130651473999, 1.8147279024124146, 7.131739139556885, -0.3311145603656769, -0.8714912533760071, -1.6346856355667114, 0.599609375, 0.18310546875, -0.705078125
573, 117847517, -6.280058860778809, 1.81068754196167, 7.112626075744629, -0.385048508644104, -0.859203577041626, -1.7562501430511475, 0.599609375, 0.1845703125, -0.70458984375
574, 117864184, -6.276020526885986, 1.7982131242752075, 7.1451735496521, -0.31389641761779785, -0.7237380146980286, -1.7457998991012573, 0.6005859375, 0.181640625, -0.7060546875
575, 117880851, -6.286135673522949, 1.7999162673950195, 7.137404918670654, -0.281598836183548, -0.5743904113769531, -1.6427090167999268, 0.60009765625, 0.18212890625, -0.705078125
576, 117897518, -6.290225028991699, 1.8017805814743042, 7.132164001464844, -0.34788450598716736, -0.6529061198234558, -1.749372959136963, 0.60107421875, 0.181640625, -0.70654296875
577, 117914185, -6.279234409332275, 1.792853593826294, 7.1396002769470215, -0.4109557271003723, -0.7698920965194702, -1.8028905391693115, 0.60009765625, 0.18310546875, -0.70556640625
578, 117930852, -6.290818691253662, 1.7844147682189941, 7.1255998611450195, -0.37915757298469543, -0.8175188899040222, -1.7345175743103027, 0.60205078125, 0.18212890625, -0.7060546875
579, 117947519, -6.299633026123047, 1.7980225086212158, 7.12995719909668, -0.46252691745758057, -0.7928794622421265, -1.8286057710647583, 0.599609375, 0.1826171875, -0.703125
580, 117964186, -6.295534133911133, 1.7892234325408936, 7.121662616729736, -0.4375801682472229, -0.8312729597091675, -1.7683135271072388, 0.599609375, 0.18115234375, -0.705078125
581, 117980853, -6.301396369934082, 1.7817875146865845, 7.131682872772217, -0.4178711473941803, -0.8336805105209351, -1.6926535367965698, 0.599609375, 0.1845703125, -0.707275390625
582, 117997520, -6.27823543548584, 1.7993637323379517, 7.140656471252441, -0.36512187123298645, -0.7960299849510193, -1.5773838758468628, 0.60009765625, 0.18310546875, -0.705078125
583, 118014187, -6.285635948181152, 1.8006876707077026, 7.125938415527344, -0.4572250247001648, -0.8472551703453064, -1.7693250179290771, 0.60205078125, 0.18359375, -0.70556640625
584, 118030854, -6.285315036773682, 1.7760823965072632, 7.161411762237549, -0.43770819902420044, -0.8521472811698914, -1.6690003871917725, 0.59814453125, 0.1826171875, -0.70556640625
585, 118047521, -6.284502983093262, 1.776146650314331, 7.15568733215332, -0.3436456322669983, -0.6596679091453552, -1.5883077383041382, 0.59912109375, 0.18408203125, -0.7041015625
586, 118064188, -6.280219078063965, 1.7599425315856934, 7.131489276885986, -0.379067987203598, -0.718103289604187, -1.4955896139144897, 0.60205078125, 0.18310546875, -0.7060546875
587, 118080855, -6.286661624908447, 1.787095308303833, 7.114553928375244, -0.3221821188926697, -0.6832698583602905, -1.461857557296753, 0.60107421875, 0.18115234375, -0.70458984375
588, 118097522, -6.289689540863037, 1.7936283349990845, 7.147495746612549, -0.3285213112831116, -0.8162383437156677, -1.3463828563690186, 0.60205078125, 0.18408203125, -0.7060546875
589, 118114189, -6.290130615234375, 1.7900586128234863, 7.118393421173096, -0.425055593252182, -0.9209943413734436, -1.4507546424865723, 0.599609375, 0.181640625, -0.70556640625
590, 118130856, -6.282586097717285, 1.7837356328964233, 7.156573295593262, -0.4239542484283447, -1.0167218446731567, -1.404843807220459, 0.59912109375, 0.18408203125, -0.7041015625
591, 118147523, -6.273227214813232, 1.7957453727722168, 7.114980220794678, -0.41771113872528076, -0.8802893757820129, -1.5067248344421387, 0.60302734375, 0.185302734375, -0.705078125
592, 118164190, -6.301625728607178, 1.7741450071334839, 7.131331920623779, -0.4259391725063324, -0.9053577184677124, -1.4948338270187378, 0.6015625, 0.18359375, -0.70751953125
593, 118180857, -6.284138202667236, 1.7752094268798828, 7.119714260101318, -0.46488332748413086, -0.9546365737915039, -1.445094347000122, 0.599609375, 0.18359375, -0.7060546875
594, 118197524, -6.3042473793029785, 1.7986798286437988, 7.150425910949707, -0.6493074893951416, -1.103587031364441, -1.4726917743682861, 0.5986328125, 0.181640625, -0.7041015625
595, 118214191, -6.297835350036621, 1.7945600748062134, 7.122084617614746, -0.7986039519309998, -1.3957384824752808, -1.6601639986038208, 0.599609375, 0.18408203125, -0.70458984375
596, 118230858, -6.287944316864014, 1.7833027839660645, 7.131460666656494, -1.083519697189331, -1.6914499998092651, -1.8675116300582886, 0.599609375, 0.18359375, -0.707275390625
597, 118247525, -6.28132438659668, 1.7898377180099487, 7.140271186828613, -1.495820164680481, -2.12004017829895, -1.9963947534561157, 0.59814453125, 0.18505859375, -0.70654296875
598, 118264192, -6.266661167144775, 1.8093193769454956, 7.112747669219971, -1.5508744716644287, -2.378805160522461, -2.1060938835144043, 0.599609375, 0.185302734375, -0.7060546875
599, 118280859, -6.262409687042236, 1.7697035074234009, 7.146116733551025, -1.0339847803115845, -1.9521359205245972, -1.9197615385055542, 0.598876953125, 0.185791015625, -0.707275390625
600, 118297526, -6.261657238006592, 1.7319061756134033, 7.151573181152344, -0.5922679901123047, -1.3450126647949219, -1.6893879175186157, 0.59814453125, 0.18408203125, -0.707275390625
601, 118314193, -6.268746852874756, 1.7675858736038208, 7.119777679443359, -0.32962262630462646, -1.0383644104003906, -1.488174557685852, 0.60205078125, 0.184814453125, -0.70654296875
602, 118330860, -6.27296257019043, 1.7397230863571167, 7.167407989501953, -0.27574634552001953, -0.9389615654945374, -1.4634584188461304, 0.6005859375, 0.185791015625, -0.708740234375
603, 118347527, -6.273432731628418, 1.7715866565704346, 7.145501613616943, -0.25087639689445496, -0.9427523612976074, -1.3973009586334229, 0.597900390625, 0.185302734375, -0.706787109375
604, 118364194, -6.263187885284424, 1.7662259340286255, 7.131211757659912, -0.3085562288761139, -0.9470040202140808, -1.4575291872024536, 0.599609375, 0.186279296875, -0.70654296875
605, 118380861, -6.281668186187744, 1.7577486038208008, 7.13970947265625, -0.26281192898750305, -0.964433491230011, -1.4350924491882324, 0.598876953125, 0.186767578125, -0.707763671875
606, 118397528, -6.259515762329102, 1.7647342681884766, 7.150632858276367, -0.25802233815193176, -0.9101858139038086, -1.3885924816131592, 0.598876953125, 0.187744140625, -0.707275390625
607, 118414195, -6.282289981842041, 1.7618660926818848, 7.142056465148926, -0.1430981606245041, -0.9263730049133301, -1.331348180770874, 0.597900390625, 0.18408203125, -0.706787109375
608, 118430862, -6.277921676635742, 1.74055814743042, 7.147485733032227, -0.200957253575325, -1.0233043432235718, -1.2545357942581177, 0.60107421875, 0.185302734375, -0.709716796875
609, 118447529, -6.289262771606445, 1.76083242893219, 7.155124187469482, 0.0037970824632793665, -0.8716385364532471, -1.0924712419509888, 0.599609375, 0.185302734375, -0.70654296875
610, 118464196, -6.272047996520996, 1.7622218132019043, 7.12419319152832, 0.017627941444516182, -0.9678270220756531, -1.0625813007354736, 0.596923828125, 0.185791015625, -0.70556640625
611, 118480863, -6.263075351715088, 1.7786037921905518, 7.140871047973633, -0.024447323754429817, -0.9835917353630066, -1.1631238460540771, 0.5986328125, 0.18505859375, -0.706787109375
612, 118497530, -6.2849507331848145, 1.7707210779190063, 7.171265125274658, -0.19596277177333832, -1.120209813117981, -1.2360177040100098, 0.59912109375, 0.18505859375, -0.708740234375
613, 118514197, -6.284031391143799, 1.7762702703475952, 7.139000415802002, -0.21253414452075958, -1.3365217447280884, -1.224350929260254, 0.599365234375, 0.185791015625, -0.708251953125
614, 118530864, -6.282250881195068, 1.7562953233718872, 7.1552629470825195, -0.23531663417816162, -1.3331793546676636, -1.2236850261688232, 0.59912109375, 0.185302734375, -0.708251953125
615, 118547531, -6.272340297698975, 1.7635698318481445, 7.147373199462891, -0.3481534421443939, -1.3036479949951172, -1.2149896621704102, 0.598876953125, 0.185302734375, -0.707763671875
616, 118564198, -6.260565757751465, 1.773086428642273, 7.144453525543213, -0.3330034911632538, -1.3165055513381958, -1.274616003036499, 0.598876953125, 0.185302734375, -0.709228515625
617, 118580865, -6.2693610191345215, 1.7603278160095215, 7.142550468444824, -0.2546670436859131, -1.2681102752685547, -1.3343957662582397, 0.59912109375, 0.185302734375, -0.707275390625
618, 118597532, -6.251657962799072, 1.7595741748809814, 7.1677350997924805, -0.3896075487136841, -1.3895273208618164, -1.3174787759780884, 0.598876953125, 0.185302734375, -0.707763671875
619, 118614199, -6.251931667327881, 1.7553759813308716, 7.137990474700928, -0.5002288222312927, -1.3614813089370728, -1.4085191488265991, 0.597900390625, 0.186767578125, -0.710693359375
620, 118630866, -6.238722801208496, 1.7485244274139404, 7.16589879989624, -0.24170702695846558, -1.1598198413848877, -1.4730119705200195, 0.596435546875, 0.18408203125, -0.712158203125
621, 118647533, -6.270618915557861, 1.7511544227600098, 7.155750751495361, 0.005679616238921881, -0.8198753595352173, -1.3732504844665527, 0.598388671875, 0.185302734375, -0.707763671875
622, 118664200, -6.254085063934326, 1.7580509185791016, 7.154987812042236, 0.3656276762485504, -0.3602682054042816, -1.4749584197998047, 0.597412109375, 0.185791015625, -0.709716796875
623, 118680867, -6.266730785369873, 1.752760887145996, 7.154605865478516, 0.36540359258651733, -0.5071762204170227, -1.2786306142807007, 0.598876953125, 0.186767578125, -0.709228515625
624, 118697534, -6.271255016326904, 1.7612136602401733, 7.1564459800720215, 0.3454448878765106, -0.6659302115440369, -1.1582318544387817, 0.597900390625, 0.185791015625, -0.708740234375
625, 118714201, -6.266361236572266, 1.8017700910568237, 7.150634765625, 0.4913283884525299, -0.6011044383049011, -1.1257933378219604, 0.596923828125, 0.187255859375, -0.709228515625
626, 118730868, -6.255894660949707, 1.8213248252868652, 7.1281418800354, 0.9872096180915833, -0.16979940235614777, -1.4407528638839722, 0.598388671875, 0.18359375, -0.710205078125
627, 118747535, -6.2704362869262695, 1.7808994054794312, 7.137338161468506, 1.6085609197616577, 0.2588355541229248, -1.5054377317428589, 0.598876953125, 0.1845703125, -0.709228515625
628, 118764202, -6.288269996643066, 1.7662169933319092, 7.1415557861328125, 2.1252455711364746, 0.3492867946624756, -1.0968639850616455, 0.599365234375, 0.185302734375, -0.709228515625
629, 118780869, -6.267955780029297, 1.7475124597549438, 7.1553874015808105, 2.5178496837615967, 0.22101837396621704, -0.5424641370773315, 0.599609375, 0.184814453125, -0.70654296875
630, 118797536, -6.285106182098389, 1.8160237073898315, 7.115141868591309, 2.1969997882843018, -0.21916788816452026, -0.3655828535556793, 0.6005859375, 0.1826171875, -0.70654296875
631, 118814203, -6.277523040771484, 1.8047282695770264, 7.134469985961914, 1.8266017436981201, -0.9110438227653503, -0.5040066838264465, 0.59814453125, 0.18359375, -0.708251953125
632, 118830870, -6.278688907623291, 1.8148943185806274, 7.118581771850586, 2.1595027446746826, -0.9979732632637024, -0.19755074381828308, 0.59912109375, 0.18359375, -0.708251953125
633, 118847537, -6.273837089538574, 1.770463466644287, 7.136472702026367, 2.738618850708008, -0.8582047820091248, 0.30387550592422485, 0.59912109375, 0.18115234375, -0.70751953125
634, 118864204, -6.2775421142578125, 1.778794765472412, 7.140138149261475, 2.6377174854278564, -1.2237364053726196, 0.5890344977378845, 0.59814453125, 0.18017578125, -0.709228515625
635, 118880871, -6.273804664611816, 1.904976725578308, 7.0759124755859375, 2.7121222019195557, -1.8884241580963135, 0.9031485319137573, 0.59814453125, 0.179443359375, -0.708251953125
636, 118897538, -6.2567667961120605, 1.7005634307861328, 7.136781215667725, 3.4445438385009766, -2.2602696418762207, 1.9125198125839233, 0.59814453125, 0.178466796875, -0.708251953125
637, 118914205, -6.237302303314209, 1.652288794517517, 7.152153968811035, 3.3810110092163086, -2.7023961544036865, 2.7756292819976807, 0.60009765625, 0.178466796875, -0.708740234375
638, 118930872, -6.216607570648193, 1.8437849283218384, 7.04131555557251, 4.039641380310059, -3.249124765396118, 3.874772787094116, 0.59765625, 0.17333984375, -0.710693359375
639, 118947539, -6.275252819061279, 1.90932297706604, 7.064713954925537, 6.2816386222839355, -2.907785415649414, 5.869926452636719, 0.59716796875, 0.17236328125, -0.709228515625
640, 118964206, -6.231775283813477, 1.8980129957199097, 7.167103290557861, 6.82119607925415, -2.808856248855591, 6.449132919311523, 0.59521484375, 0.171875, -0.710205078125
641, 118980873, -6.239765644073486, 1.9637917280197144, 7.101696968078613, 6.1223649978637695, -3.8048317432403564, 6.303971767425537, 0.59619140625, 0.168212890625, -0.711181640625
642, 118997540, -6.218196868896484, 1.9151217937469482, 7.171891212463379, 6.5451154708862305, -3.3380398750305176, 7.006527900695801, 0.5947265625, 0.16552734375, -0.710693359375
643, 119014207, -6.210820198059082, 2.072859287261963, 7.212115287780762, 6.9019389152526855, -1.6865710020065308, 7.334704399108887, 0.596923828125, 0.16064453125, -0.708984375
644, 119030874, -6.205193519592285, 2.314013719558716, 7.137387752532959, 5.5897746086120605, -1.0065537691116333, 5.347926616668701, 0.593994140625, 0.158447265625, -0.712158203125
645, 119047541, -6.189455509185791, 2.1655619144439697, 7.1748881340026855, 4.630475044250488, -0.5132529139518738, 3.391986131668091, 0.596435546875, 0.156494140625, -0.71044921875
646, 119064208, -6.205533981323242, 2.000546932220459, 7.202884674072266, 4.855976104736328, 0.8502392172813416, 2.9893991947174072, 0.596435546875, 0.156494140625, -0.71044921875
647, 119080875, -6.174715042114258, 1.9850293397903442, 7.187706470489502, 5.586265563964844, 2.2906529903411865, 3.3373546600341797, 0.6005859375, 0.154052734375, -0.70947265625
648, 119097542, -6.195855617523193, 2.1117684841156006, 7.1530561447143555, 6.594841957092285, 3.8797290325164795, 3.5988988876342773, 0.600341796875, 0.14794921875, -0.705322265625
649, 119114209, -6.178715229034424, 2.113640546798706, 7.116908550262451, 7.440715789794922, 4.546274662017822, 3.6891074180603027, 0.60546875, 0.144287109375, -0.69970703125
650, 119130876, -6.1442646980285645, 2.2084052562713623, 7.0743608474731445, 5.686501502990723, 3.5167078971862793, 2.261608362197876, 0.607666015625, 0.134033203125, -0.6943359375
651, 119147543, -6.132112503051758, 2.1446855068206787, 7.03662109375, 3.7639718055725098, 3.0318455696105957, 0.7240389585494995, 0.6044921875, 0.123291015625, -0.69384765625
652, 119164210, -6.131199836730957, 2.1282131671905518, 7.030623435974121, 3.3730967044830322, 3.8321917057037354, 0.4397124648094177, 0.598388671875, 0.1181640625, -0.69189453125
653, 119180877, -6.074404716491699, 2.2662601470947266, 7.0820465087890625, 2.8859429359436035, 5.333646297454834, -0.2408105880022049, 0.590576171875, 0.114501953125, -0.6953125
654, 119197544, -6.1544013023376465, 2.227656602859497, 6.989030838012695, 2.22184419631958, 6.7287445068359375, -1.108748197555542, 0.58935546875, 0.117919921875, -0.697509765625
655, 119214211, -6.176599025726318, 2.2431235313415527, 7.070279598236084, 1.6996655464172363, 8.010917663574219, -1.9311721324920654, 0.588623046875, 0.12353515625, -0.697021484375
656, 119230878, -6.279332160949707, 2.3026835918426514, 7.016526699066162, 0.9100387096405029, 9.185734748840332, -2.8663434982299805, 0.589599609375, 0.129150390625, -0.695556640625
657, 119247545, -6.304708003997803, 2.3087828159332275, 6.955089092254639, -0.5286079049110413, 8.883723258972168, -4.03856086730957, 0.59228515625, 0.13037109375, -0.6923828125
658, 119264212, -6.311770915985107, 2.2808961868286133, 6.982155799865723, -1.6323490142822266, 8.506536483764648, -4.926399230957031, 0.59375, 0.134521484375, -0.69140625
659, 119280879, -6.249976634979248, 2.3539092540740967, 6.999391078948975, -3.6052956581115723, 8.25866985321045, -6.549169063568115, 0.59814453125, 0.136474609375, -0.68798828125
660, 119297546, -6.310007095336914, 2.336224317550659, 6.952207088470459, -6.505258560180664, 7.891822814941406, -9.68338680267334, 0.5986328125, 0.14013671875, -0.68701171875
661, 119314213, -6.338183403015137, 2.307438373565674, 6.923741340637207, -9.143192291259766, 6.336741924285889, -13.176748275756836, 0.60205078125, 0.144287109375, -0.684814453125
