sep=,
DeviceTag:,A,,,,,,,,,,,,,,,,,
FirmwareVersion:,2.2.1,,,,,,,,,,,,,,,,,
AppVersion:,2023.6.1,,,,,,,,,,,,,,,,,
SyncStatus:,Synced,,,,,,,,,,,,,,,,,
OutputRate:,60Hz,,,,,,,,,,,,,,,,,
FilterProfile:,General,,,,,,,,,,,,,,,,,
Measurement Mode:,Inertial Mode - Rate quantities (with mag),,,,,,,,,,,,,,,,,
StartTime:,2023-12-05 15:16:09.598 +0200,,,,,,,,,,,,,,,,,
 2023,,,,,,,,,,,,,,,,,,,

PacketCounter,SampleTimeFine,Acc_X,Acc_Y,Acc_Z,Gyr_X,Gyr_Y,Gyr_Z,Mag_X,Mag_Y,Mag_Z
1, 3927369980, -6.655426979064941, 1.6996526718139648, 7.1027631759643555, -2.4097580909729004, -1.5044002532958984, -2.2777884006500244, 1.103515625, -0.5869140625, 0.08251953125
2, 3927386647, -6.669690132141113, 1.6987932920455933, 7.094555854797363, -2.38873028755188, -1.5253005027770996, -2.1761958599090576, 1.103515625, -0.586669921875, 0.083984375
3, 3927403314, -6.674293518066406, 1.688584566116333, 7.0903143882751465, -2.3547163009643555, -1.5180646181106567, -2.1822402477264404, 1.105224609375, -0.586669921875, 0.085693359375
4, 3927419981, -6.676024436950684, 1.708443522453308, 7.117678165435791, -2.2798032760620117, -1.4925415515899658, -2.163963556289673, 1.105224609375, -0.586669921875, 0.08349609375
5, 3927436648, -6.664182662963867, 1.6963359117507935, 7.097355842590332, -2.414701461791992, -1.5362882614135742, -2.1346776485443115, 1.104736328125, -0.587890625, 0.08447265625
6, 3927453315, -6.683882713317871, 1.6960105895996094, 7.112521648406982, -2.29959774017334, -1.521752953529358, -2.1109089851379395, 1.105224609375, -0.585693359375, 0.08349609375
7, 3927469982, -6.674976825714111, 1.701331615447998, 7.112473011016846, -2.3501827716827393, -1.5312167406082153, -2.17261004447937, 1.1044921875, -0.58740234375, 0.08349609375
8, 3927486649, -6.6641035079956055, 1.7088714838027954, 7.109875202178955, -2.3415515422821045, -1.5378121137619019, -2.263714551925659, 1.10302734375, -0.58935546875, 0.085205078125
9, 3927503316, -6.675100803375244, 1.6971052885055542, 7.1143035888671875, -2.4206948280334473, -1.5280921459197998, -2.191653251647949, 1.105224609375, -0.58740234375, 0.085205078125
10, 3927519983, -6.676799297332764, 1.7001172304153442, 7.117422580718994, -2.2912867069244385, -1.599090576171875, -2.279005289077759, 1.10302734375, -0.5888671875, 0.083984375
11, 3927536650, -6.6714863777160645, 1.708998441696167, 7.100007057189941, -2.4095916748046875, -1.5408600568771362, -2.248347043991089, 1.104736328125, -0.5869140625, 0.086181640625
12, 3927553317, -6.673677444458008, 1.6993687152862549, 7.129904747009277, -2.4352428913116455, -1.61412513256073, -2.211759090423584, 1.104248046875, -0.5888671875, 0.0830078125
13, 3927569984, -6.671662330627441, 1.7020692825317383, 7.117825508117676, -2.2906205654144287, -1.4576184749603271, -2.178065299987793, 1.1025390625, -0.585693359375, 0.086181640625
14, 3927586651, -6.665401935577393, 1.712005376815796, 7.093507289886475, -2.259936571121216, -1.3484958410263062, -2.1226394176483154, 1.107177734375, -0.586669921875, 0.085205078125
15, 3927603318, -6.675192832946777, 1.7155840396881104, 7.086942672729492, -2.1879518032073975, -1.313854694366455, -2.172686815261841, 1.10400390625, -0.58740234375, 0.0849609375
16, 3927619985, -6.677087306976318, 1.6945462226867676, 7.104381561279297, -2.3301925659179688, -1.367013931274414, -2.205791473388672, 1.105224609375, -0.585205078125, 0.085693359375
17, 3927636652, -6.670462608337402, 1.7104579210281372, 7.1027398109436035, -2.304464340209961, -1.437922477722168, -2.1805882453918457, 1.10400390625, -0.58837890625, 0.0810546875
18, 3927653319, -6.673727035522461, 1.7043489217758179, 7.1053853034973145, -2.2503957748413086, -1.4204546213150024, -2.2374486923217773, 1.1044921875, -0.586181640625, 0.083984375
19, 3927669986, -6.671224117279053, 1.6906095743179321, 7.1040449142456055, -2.183521032333374, -1.6601382493972778, -2.182598829269409, 1.104736328125, -0.5869140625, 0.085205078125
20, 3927686653, -6.6757378578186035, 1.6932032108306885, 7.124513149261475, -2.357149600982666, -1.4900442361831665, -2.170868396759033, 1.105224609375, -0.587890625, 0.083984375
21, 3927703320, -6.668440818786621, 1.6979116201400757, 7.098609447479248, -2.4084010124206543, -1.6001919507980347, -2.1387887001037598, 1.105224609375, -0.58740234375, 0.08349609375
22, 3927719987, -6.682154178619385, 1.710486650466919, 7.081809043884277, -2.30635929107666, -1.5295519828796387, -2.127429246902466, 1.105224609375, -0.5869140625, 0.08349609375
23, 3927736654, -6.671640396118164, 1.6981828212738037, 7.1021528244018555, -2.3467507362365723, -1.5384395122528076, -2.1093850135803223, 1.1044921875, -0.5869140625, 0.08349609375
24, 3927753321, -6.671395778656006, 1.715093731880188, 7.125053882598877, -2.3815455436706543, -1.6140226125717163, -2.2224647998809814, 1.10302734375, -0.58837890625, 0.0849609375
25, 3927769988, -6.659727573394775, 1.7140648365020752, 7.113224506378174, -2.3863861560821533, -1.507256031036377, -2.2821555137634277, 1.10400390625, -0.58740234375, 0.083984375
26, 3927786655, -6.663832664489746, 1.6998943090438843, 7.087780952453613, -2.493870258331299, -1.5240966081619263, -2.3295648097991943, 1.105224609375, -0.5869140625, 0.084716796875
27, 3927803322, -6.664325714111328, 1.7111190557479858, 7.104091644287109, -2.414393901824951, -1.504848599433899, -2.2966396808624268, 1.10302734375, -0.58837890625, 0.083984375
28, 3927819989, -6.676217079162598, 1.7224936485290527, 7.097227573394775, -2.4591522216796875, -1.488904595375061, -2.2920167446136475, 1.105712890625, -0.587890625, 0.08349609375
29, 3927836656, -6.6849565505981445, 1.7088539600372314, 7.1192216873168945, -2.4125499725341797, -1.5261454582214355, -2.322572708129883, 1.1044921875, -0.586669921875, 0.0849609375
30, 3927853323, -6.685331344604492, 1.6868637800216675, 7.102519989013672, -2.4096174240112305, -1.5653841495513916, -2.3737850189208984, 1.10302734375, -0.586669921875, 0.0849609375
31, 3927869990, -6.6712188720703125, 1.6975884437561035, 7.083702087402344, -2.41188383102417, -1.622410774230957, -2.2348873615264893, 1.105712890625, -0.58837890625, 0.0830078125
32, 3927886657, -6.682484149932861, 1.6986842155456543, 7.093161582946777, -2.4467172622680664, -1.6060444116592407, -2.211874485015869, 1.104736328125, -0.58837890625, 0.08203125
33, 3927903324, -6.668987274169922, 1.6992592811584473, 7.0902323722839355, -2.4087207317352295, -1.5955686569213867, -2.1616733074188232, 1.106201171875, -0.58740234375, 0.084228515625
34, 3927919991, -6.670831203460693, 1.7100657224655151, 7.1054368019104, -2.5025529861450195, -1.6650176048278809, -2.1989142894744873, 1.1015625, -0.585693359375, 0.08349609375
35, 3927936658, -6.6714396476745605, 1.7094470262527466, 7.111591815948486, -2.4572696685791016, -1.5112133026123047, -2.162928581237793, 1.10400390625, -0.5869140625, 0.086181640625
36, 3927953325, -6.660722255706787, 1.7119730710983276, 7.09790563583374, -2.4394376277923584, -1.6881980895996094, -2.148763656616211, 1.1044921875, -0.586669921875, 0.08447265625
37, 3927969992, -6.670246601104736, 1.7002015113830566, 7.08840799331665, -2.424203395843506, -1.594070315361023, -2.168947219848633, 1.10400390625, -0.586669921875, 0.085693359375
38, 3927986659, -6.659735679626465, 1.7031725645065308, 7.119283199310303, -2.4035470485687256, -1.6512635946273804, -2.2039601802825928, 1.105224609375, -0.58935546875, 0.0830078125
39, 3928003326, -6.658992290496826, 1.7101478576660156, 7.102014541625977, -2.4652481079101562, -1.5117385387420654, -2.2401764392852783, 1.105712890625, -0.587158203125, 0.085693359375
40, 3928019993, -6.684028148651123, 1.707216501235962, 7.095665454864502, -2.415316343307495, -1.4787365198135376, -2.1311049461364746, 1.10400390625, -0.58837890625, 0.086181640625
41, 3928036660, -6.670226097106934, 1.714348554611206, 7.105654716491699, -2.353409767150879, -1.5356221199035645, -2.219071388244629, 1.104736328125, -0.58740234375, 0.086181640625
42, 3928053327, -6.671682834625244, 1.7176845073699951, 7.105607986450195, -2.366396188735962, -1.4639323949813843, -2.2799787521362305, 1.1005859375, -0.587890625, 0.0849609375
43, 3928069994, -6.682474136352539, 1.685388207435608, 7.093194961547852, -2.3915855884552, -1.5225083827972412, -2.1571526527404785, 1.103515625, -0.586181640625, 0.08349609375
44, 3928086661, -6.677389621734619, 1.6990752220153809, 7.084679126739502, -2.2950897216796875, -1.5190635919570923, -2.198683500289917, 1.104248046875, -0.587890625, 0.083984375
45, 3928103328, -6.679223537445068, 1.7178871631622314, 7.093047142028809, -2.298586368560791, -1.534072756767273, -2.198338031768799, 1.103515625, -0.58740234375, 0.083984375
46, 3928119995, -6.665377616882324, 1.7052531242370605, 7.086670875549316, -2.316962957382202, -1.6311959028244019, -2.1503782272338867, 1.104736328125, -0.58740234375, 0.086181640625
47, 3928136662, -6.671067714691162, 1.7027002573013306, 7.107461929321289, -2.2948720455169678, -1.5594803094863892, -2.112983465194702, 1.1025390625, -0.586181640625, 0.087646484375
48, 3928153329, -6.657601356506348, 1.705674648284912, 7.105260848999023, -2.37438702583313, -1.575347661972046, -2.1604697704315186, 1.10302734375, -0.586181640625, 0.083984375
49, 3928169996, -6.67830753326416, 1.7036494016647339, 7.0967116355896, -2.295858383178711, -1.5944035053253174, -2.145691156387329, 1.103759765625, -0.58984375, 0.084716796875
50, 3928186663, -6.668700218200684, 1.7187740802764893, 7.0968918800354, -2.253136157989502, -1.434349536895752, -2.0616044998168945, 1.104736328125, -0.58935546875, 0.0830078125
51, 3928203330, -6.67257022857666, 1.7286105155944824, 7.11467981338501, -2.2422382831573486, -1.4081350564956665, -2.1837260723114014, 1.105712890625, -0.58837890625, 0.08349609375
52, 3928219997, -6.671794891357422, 1.718977928161621, 7.101718425750732, -2.3197805881500244, -1.5552927255630493, -2.167039155960083, 1.103515625, -0.58837890625, 0.08349609375
53, 3928236664, -6.674378395080566, 1.704444169998169, 7.094918727874756, -2.3267853260040283, -1.57816481590271, -2.2105679512023926, 1.1044921875, -0.5869140625, 0.08203125
54, 3928253331, -6.677504539489746, 1.702640175819397, 7.101351737976074, -2.322380304336548, -1.487662434577942, -2.0982818603515625, 1.104248046875, -0.58740234375, 0.08447265625
55, 3928269998, -6.671454906463623, 1.7067596912384033, 7.101956367492676, -2.1251111030578613, -1.5313063859939575, -1.943747878074646, 1.10400390625, -0.5869140625, 0.086181640625
56, 3928286665, -6.673153877258301, 1.7308545112609863, 7.101745128631592, -2.2043955326080322, -1.4329280853271484, -1.9041632413864136, 1.104736328125, -0.58740234375, 0.083984375
57, 3928303332, -6.659395694732666, 1.7184867858886719, 7.1067938804626465, -2.1479578018188477, -1.4713983535766602, -1.9930906295776367, 1.107666015625, -0.58837890625, 0.085693359375
58, 3928319999, -6.675196170806885, 1.714093804359436, 7.0979084968566895, -2.1479833126068115, -1.3769385814666748, -1.9886465072631836, 1.106201171875, -0.58740234375, 0.083984375
59, 3928336666, -6.668177127838135, 1.724150538444519, 7.086241245269775, -2.051743984222412, -1.3689477443695068, -1.8616336584091187, 1.104248046875, -0.58740234375, 0.083984375
60, 3928353333, -6.668252944946289, 1.7066872119903564, 7.104547023773193, -1.9367810487747192, -1.2153866291046143, -1.9096571207046509, 1.10302734375, -0.5888671875, 0.085205078125
61, 3928370000, -6.677611827850342, 1.7205933332443237, 7.089903354644775, -1.9744189977645874, -1.2205989360809326, -1.7754722833633423, 1.105224609375, -0.58935546875, 0.084716796875
62, 3928386667, -6.670118808746338, 1.720167636871338, 7.07152795791626, -1.9167777299880981, -1.2239925861358643, -1.833408236503601, 1.103515625, -0.5888671875, 0.08447265625
63, 3928403334, -6.669378280639648, 1.7037014961242676, 7.083444595336914, -1.6857125759124756, -1.165172815322876, -1.6193370819091797, 1.105224609375, -0.58837890625, 0.08447265625
64, 3928420001, -6.6754631996154785, 1.7329685688018799, 7.09325647354126, -1.7034879922866821, -1.2281930446624756, -1.7082773447036743, 1.104736328125, -0.5888671875, 0.085205078125
65, 3928436668, -6.667789936065674, 1.7222384214401245, 7.093691825866699, -1.8022246360778809, -1.2931979894638062, -1.634743332862854, 1.1025390625, -0.59130859375, 0.085693359375
66, 3928453335, -6.677772521972656, 1.7312774658203125, 7.100789546966553, -1.7705802917480469, -1.3559235334396362, -1.6736105680465698, 1.1025390625, -0.58837890625, 0.083984375
67, 3928470002, -6.687415599822998, 1.7213925123214722, 7.071649551391602, -1.756439208984375, -1.3218177556991577, -1.5817710161209106, 1.104248046875, -0.58935546875, 0.0830078125
68, 3928486669, -6.684024810791016, 1.7263431549072266, 7.097640037536621, -1.5948388576507568, -1.2271044254302979, -1.4742156267166138, 1.105224609375, -0.591796875, 0.084228515625
69, 3928503336, -6.692623615264893, 1.7484346628189087, 7.098530292510986, -1.7352604866027832, -1.301573395729065, -1.5433828830718994, 1.105712890625, -0.58837890625, 0.085693359375
70, 3928520003, -6.673274517059326, 1.7495415210723877, 7.089303016662598, -1.8280551433563232, -1.4792357683181763, -1.5593138933181763, 1.105712890625, -0.591796875, 0.08349609375
71, 3928536670, -6.666912078857422, 1.743822455406189, 7.0930609703063965, -1.9138191938400269, -1.4815536737442017, -1.662827491760254, 1.104736328125, -0.5908203125, 0.084716796875
72, 3928553337, -6.676519393920898, 1.7501585483551025, 7.081757068634033, -2.0100972652435303, -1.5945570468902588, -1.5920469760894775, 1.104248046875, -0.59033203125, 0.086181640625
73, 3928570004, -6.670029163360596, 1.7589253187179565, 7.096296310424805, -1.9053798913955688, -1.594608187675476, -1.648356556892395, 1.103271484375, -0.59130859375, 0.085693359375
74, 3928586671, -6.667328357696533, 1.766065239906311, 7.073233604431152, -1.9058027267456055, -1.496204137802124, -1.7186634540557861, 1.104248046875, -0.591796875, 0.086669921875
75, 3928603338, -6.683208465576172, 1.748603343963623, 7.087681770324707, -1.902319073677063, -1.4516509771347046, -1.650367021560669, 1.105224609375, -0.59033203125, 0.083984375
76, 3928620005, -6.673597812652588, 1.7561523914337158, 7.07708215713501, -2.029806613922119, -1.4951157569885254, -1.7865371704101562, 1.106201171875, -0.59130859375, 0.086669921875
77, 3928636672, -6.677582740783691, 1.7682116031646729, 7.078491687774658, -2.233299493789673, -1.6267139911651611, -1.9432740211486816, 1.104736328125, -0.59228515625, 0.086669921875
78, 3928653339, -6.670483589172363, 1.7616474628448486, 7.086737155914307, -2.243608236312866, -1.8335747718811035, -1.8789347410202026, 1.1015625, -0.59130859375, 0.08544921875
79, 3928670006, -6.672612190246582, 1.767971396446228, 7.076559066772461, -2.360966205596924, -1.8301043510437012, -2.0687122344970703, 1.106201171875, -0.59033203125, 0.084716796875
80, 3928686673, -6.658425807952881, 1.7554078102111816, 7.091818332672119, -2.324634313583374, -1.6779136657714844, -2.1165308952331543, 1.104736328125, -0.591796875, 0.083984375
81, 3928703340, -6.6524810791015625, 1.759895920753479, 7.085352420806885, -2.4223978519439697, -1.716294288635254, -2.2505366802215576, 1.106201171875, -0.592529296875, 0.084716796875
82, 3928720007, -6.664981842041016, 1.7708759307861328, 7.09223747253418, -2.532968282699585, -1.572184443473816, -2.3476603031158447, 1.105712890625, -0.592529296875, 0.084228515625
83, 3928736674, -6.693478584289551, 1.7506797313690186, 7.085498809814453, -2.6264290809631348, -1.587526559829712, -2.3309736251831055, 1.106201171875, -0.593017578125, 0.085205078125
84, 3928753341, -6.650667190551758, 1.770980715751648, 7.081120491027832, -2.5772783756256104, -1.534623622894287, -2.360185146331787, 1.103271484375, -0.593505859375, 0.084716796875
85, 3928770008, -6.664072036743164, 1.7563786506652832, 7.075962543487549, -2.5639851093292236, -1.4374744892120361, -2.329807996749878, 1.105712890625, -0.5888671875, 0.085693359375
86, 3928786675, -6.678074359893799, 1.7534983158111572, 7.0912766456604, -2.5711824893951416, -1.4179834127426147, -2.493307113647461, 1.104736328125, -0.591796875, 0.084228515625
87, 3928803342, -6.674882888793945, 1.743155837059021, 7.065118789672852, -2.536400079727173, -1.4403815269470215, -2.4326560497283936, 1.105224609375, -0.593505859375, 0.084228515625
88, 3928820009, -6.674863815307617, 1.7444932460784912, 7.094377040863037, -2.4370999336242676, -1.3766698837280273, -2.3037726879119873, 1.104736328125, -0.59130859375, 0.086181640625
89, 3928836676, -6.677710056304932, 1.7624263763427734, 7.09023904800415, -2.3947107791900635, -1.4959226846694946, -2.27850604057312, 1.103759765625, -0.59228515625, 0.087158203125
90, 3928853343, -6.674822807312012, 1.7448500394821167, 7.0793867111206055, -2.5366690158843994, -1.6918085813522339, -2.249537944793701, 1.10302734375, -0.59033203125, 0.0849609375
91, 3928870010, -6.67886209487915, 1.752482295036316, 7.075672626495361, -2.428083896636963, -1.6797575950622559, -2.2017955780029297, 1.103271484375, -0.59228515625, 0.085693359375
92, 3928886677, -6.670506477355957, 1.7547165155410767, 7.052908897399902, -2.43770170211792, -1.8303989171981812, -2.2296881675720215, 1.103759765625, -0.592529296875, 0.08203125
93, 3928903344, -6.656869888305664, 1.759926199913025, 7.075993061065674, -2.5355682373046875, -1.7554688453674316, -2.25763201713562, 1.105712890625, -0.5908203125, 0.083984375
94, 3928920011, -6.667582988739014, 1.7437325716018677, 7.10652494430542, -2.6453182697296143, -1.8229200839996338, -2.2907233238220215, 1.104736328125, -0.59228515625, 0.083984375
95, 3928936678, -6.672604560852051, 1.7493807077407837, 7.0944037437438965, -2.528883218765259, -1.7670588493347168, -2.2854597568511963, 1.104736328125, -0.591796875, 0.084716796875
96, 3928953345, -6.674544334411621, 1.7652654647827148, 7.088771343231201, -2.5749599933624268, -1.7223132848739624, -2.3654611110687256, 1.10302734375, -0.5908203125, 0.085205078125
97, 3928970012, -6.675438404083252, 1.761470913887024, 7.085699081420898, -2.626044988632202, -1.652109146118164, -2.389434576034546, 1.103759765625, -0.59130859375, 0.083984375
98, 3928986679, -6.673616886138916, 1.750992774963379, 7.0993757247924805, -2.6299633979797363, -1.690925121307373, -2.424139976501465, 1.104248046875, -0.593017578125, 0.085693359375
99, 3929003346, -6.665128707885742, 1.7317744493484497, 7.108664512634277, -2.5952305793762207, -1.6363357305526733, -2.4318442344665527, 1.104248046875, -0.59033203125, 0.084716796875
100, 3929020013, -6.668642520904541, 1.7469873428344727, 7.0870680809021, -2.5833866596221924, -1.6628535985946655, -2.437932252883911, 1.104736328125, -0.592529296875, 0.085693359375
101, 3929036680, -6.662356376647949, 1.7496752738952637, 7.107784748077393, -2.550128698348999, -1.754341959953308, -2.3253514766693115, 1.103759765625, -0.593017578125, 0.085693359375
102, 3929053347, -6.678180694580078, 1.7478210926055908, 7.093015193939209, -2.531277656555176, -1.722326397895813, -2.310624599456787, 1.105224609375, -0.591796875, 0.084228515625
103, 3929070014, -6.6819305419921875, 1.763184666633606, 7.111145496368408, -2.5256688594818115, -1.6713954210281372, -2.314953088760376, 1.104736328125, -0.592529296875, 0.085205078125
104, 3929086681, -6.666836738586426, 1.7406318187713623, 7.095193862915039, -2.516230344772339, -1.6127933263778687, -2.266352891921997, 1.104248046875, -0.592529296875, 0.084716796875
105, 3929103348, -6.660163402557373, 1.7388172149658203, 7.081629753112793, -2.562204599380493, -1.58103346824646, -2.324045181274414, 1.103759765625, -0.593505859375, 0.085693359375
106, 3929120015, -6.66936731338501, 1.737537145614624, 7.113414764404297, -2.546940326690674, -1.5880645513534546, -2.3478524684906006, 1.105224609375, -0.5888671875, 0.085205078125
107, 3929136682, -6.669755458831787, 1.7435226440429688, 7.092019557952881, -2.467834949493408, -1.5664983987808228, -2.3348026275634766, 1.10302734375, -0.5908203125, 0.0849609375
108, 3929153349, -6.651968955993652, 1.7515619993209839, 7.091925621032715, -2.479168653488159, -1.5525908470153809, -2.337094783782959, 1.10302734375, -0.58984375, 0.087158203125
109, 3929170016, -6.676060199737549, 1.7295492887496948, 7.077065944671631, -2.406236410140991, -1.4538538455963135, -2.2622931003570557, 1.1015625, -0.58984375, 0.08544921875
110, 3929186683, -6.671215057373047, 1.7334048748016357, 7.086415767669678, -2.4218344688415527, -1.549081802368164, -2.2591042518615723, 1.104736328125, -0.59130859375, 0.084228515625
111, 3929203350, -6.679701328277588, 1.7342162132263184, 7.105932235717773, -2.409156560897827, -1.5945444107055664, -2.204587697982788, 1.107666015625, -0.59130859375, 0.085205078125
112, 3929220017, -6.671568393707275, 1.7498054504394531, 7.091762065887451, -2.3470706939697266, -1.519588589668274, -2.192972183227539, 1.106201171875, -0.591796875, 0.083740234375
113, 3929236684, -6.664752960205078, 1.7481697797775269, 7.07388973236084, -2.274061679840088, -1.5776654481887817, -2.070427894592285, 1.1025390625, -0.59033203125, 0.087158203125
114, 3929253351, -6.663832664489746, 1.751583218574524, 7.109452724456787, -2.2715132236480713, -1.5168992280960083, -2.0459296703338623, 1.104736328125, -0.5908203125, 0.085693359375
115, 3929270018, -6.665781021118164, 1.7567249536514282, 7.0891218185424805, -2.2509210109710693, -1.5326128005981445, -2.189476251602173, 1.105712890625, -0.59130859375, 0.084716796875
116, 3929286685, -6.674251079559326, 1.7347313165664673, 7.08996057510376, -2.3034396171569824, -1.4901212453842163, -2.0606954097747803, 1.105224609375, -0.591796875, 0.084228515625
117, 3929303352, -6.661487579345703, 1.73089599609375, 7.083446025848389, -2.3992185592651367, -1.5004304647445679, -2.1176581382751465, 1.103271484375, -0.59130859375, 0.083984375
118, 3929320019, -6.667659759521484, 1.751189947128296, 7.086601734161377, -2.339515447616577, -1.4948596954345703, -2.083977460861206, 1.106201171875, -0.58740234375, 0.085205078125
119, 3929336686, -6.670912265777588, 1.7428340911865234, 7.105990886688232, -2.2539303302764893, -1.502389669418335, -2.0998570919036865, 1.1025390625, -0.59033203125, 0.08447265625
120, 3929353353, -6.673158645629883, 1.7568731307983398, 7.0590410232543945, -2.2408804893493652, -1.4696054458618164, -2.0677645206451416, 1.104736328125, -0.59130859375, 0.085205078125
121, 3929370020, -6.668220520019531, 1.7510967254638672, 7.097375392913818, -2.25003719329834, -1.5008015632629395, -2.0135421752929688, 1.104248046875, -0.5908203125, 0.083984375
122, 3929386687, -6.657876491546631, 1.7425214052200317, 7.096873760223389, -2.153707981109619, -1.376631259918213, -2.0244150161743164, 1.104736328125, -0.59228515625, 0.086669921875
123, 3929403354, -6.664612293243408, 1.7460230588912964, 7.074970245361328, -2.1166460514068604, -1.3534902334213257, -1.9758915901184082, 1.104248046875, -0.58935546875, 0.088134765625
124, 3929420021, -6.674741744995117, 1.7400494813919067, 7.1002631187438965, -2.006690502166748, -1.2171154022216797, -1.900564432144165, 1.106201171875, -0.591796875, 0.086669921875
125, 3929436688, -6.673442363739014, 1.758613109588623, 7.084532260894775, -2.102290153503418, -1.3988248109817505, -2.043586015701294, 1.1025390625, -0.591796875, 0.085693359375
126, 3929453355, -6.6506524085998535, 1.7580184936523438, 7.077086925506592, -2.2092998027801514, -1.443954348564148, -2.071465253829956, 1.104736328125, -0.59033203125, 0.084716796875
127, 3929470022, -6.675271987915039, 1.7524189949035645, 7.081716060638428, -2.3082034587860107, -1.5277589559555054, -2.0980255603790283, 1.104248046875, -0.59228515625, 0.084228515625
128, 3929486689, -6.673358917236328, 1.7590762376785278, 7.097765922546387, -2.260077714920044, -1.5349435806274414, -2.2203776836395264, 1.104736328125, -0.5908203125, 0.085693359375
129, 3929503356, -6.667596340179443, 1.752962350845337, 7.0724005699157715, -2.433539390563965, -1.46257483959198, -2.179858446121216, 1.103759765625, -0.593994140625, 0.084228515625
130, 3929520023, -6.676321983337402, 1.7523045539855957, 7.088573932647705, -2.312316417694092, -1.3751400709152222, -2.2194762229919434, 1.107177734375, -0.592529296875, 0.085205078125
131, 3929536690, -6.680217742919922, 1.7559136152267456, 7.078460693359375, -2.397566795349121, -1.3990682363510132, -2.3252875804901123, 1.102783203125, -0.592041015625, 0.085693359375
132, 3929553357, -6.669310569763184, 1.7527353763580322, 7.076521396636963, -2.4214117527008057, -1.5193455219268799, -2.311136484146118, 1.103759765625, -0.58984375, 0.084716796875
133, 3929570024, -6.675942897796631, 1.7368018627166748, 7.101354122161865, -2.5567498207092285, -1.5702379941940308, -2.3598647117614746, 1.104248046875, -0.59033203125, 0.085693359375
134, 3929586691, -6.685698986053467, 1.7446703910827637, 7.080188751220703, -2.459933042526245, -1.537735104560852, -2.3322155475616455, 1.103759765625, -0.59033203125, 0.088623046875
135, 3929603358, -6.677924633026123, 1.7387279272079468, 7.080486297607422, -2.4877102375030518, -1.5323309898376465, -2.2746894359588623, 1.105224609375, -0.591796875, 0.084228515625
136, 3929620025, -6.672121524810791, 1.7445437908172607, 7.10245943069458, -2.363219976425171, -1.5303717851638794, -2.23099422454834, 1.102783203125, -0.592529296875, 0.085693359375
137, 3929636692, -6.651426792144775, 1.7669258117675781, 7.109599590301514, -2.308075428009033, -1.498483657836914, -2.220057487487793, 1.104248046875, -0.592529296875, 0.084716796875
138, 3929653359, -6.671913146972656, 1.7606781721115112, 7.104761123657227, -2.311354160308838, -1.5645134449005127, -2.2515740394592285, 1.10205078125, -0.59130859375, 0.086181640625
139, 3929670026, -6.686443328857422, 1.772150993347168, 7.109035015106201, -2.5095067024230957, -1.4659558534622192, -2.3091771602630615, 1.106201171875, -0.591796875, 0.084716796875
140, 3929686693, -6.670914173126221, 1.7472994327545166, 7.074153423309326, -2.5214684009552, -1.5974003076553345, -2.3765130043029785, 1.105224609375, -0.59033203125, 0.084228515625
141, 3929703360, -6.663351535797119, 1.7413249015808105, 7.083487033843994, -2.406172037124634, -1.4310966730117798, -2.266249895095825, 1.105224609375, -0.59033203125, 0.084228515625
142, 3929720027, -6.679258823394775, 1.753936529159546, 7.081843376159668, -2.2589504718780518, -1.473997950553894, -2.206815719604492, 1.10205078125, -0.592041015625, 0.0849609375
143, 3929736694, -6.675107955932617, 1.7461923360824585, 7.086526870727539, -2.2768664360046387, -1.433030605316162, -2.1246373653411865, 1.102783203125, -0.592041015625, 0.085205078125
144, 3929753361, -6.671093463897705, 1.7519694566726685, 7.100847244262695, -2.3338546752929688, -1.465725064277649, -2.2199549674987793, 1.104736328125, -0.591796875, 0.083984375
145, 3929770028, -6.659567356109619, 1.7578867673873901, 7.072719097137451, -2.3008272647857666, -1.4180983304977417, -2.243633985519409, 1.104248046875, -0.5908203125, 0.08447265625
146, 3929786695, -6.67595100402832, 1.7454129457473755, 7.068589210510254, -2.330089807510376, -1.436949372291565, -2.311161994934082, 1.103759765625, -0.593017578125, 0.086181640625
147, 3929803362, -6.679872035980225, 1.7397217750549316, 7.082539081573486, -2.3198318481445312, -1.3945986032485962, -2.2170352935791016, 1.107666015625, -0.591796875, 0.084716796875
148, 3929820029, -6.665547847747803, 1.7485264539718628, 7.0873494148254395, -2.3679068088531494, -1.367321252822876, -2.244812250137329, 1.105224609375, -0.59228515625, 0.086181640625
149, 3929836696, -6.666626453399658, 1.7433748245239258, 7.087048530578613, -2.194124698638916, -1.367705225944519, -2.160482406616211, 1.106201171875, -0.5908203125, 0.085693359375
150, 3929853363, -6.680952548980713, 1.7652488946914673, 7.093074798583984, -2.243518829345703, -1.4149223566055298, -2.2507288455963135, 1.104736328125, -0.59228515625, 0.085693359375
151, 3929870030, -6.693955421447754, 1.740484356880188, 7.089178562164307, -2.3910861015319824, -1.438806176185608, -2.2107856273651123, 1.105224609375, -0.59228515625, 0.087158203125
152, 3929886697, -6.666469097137451, 1.7506864070892334, 7.059488773345947, -2.3102526664733887, -1.4211461544036865, -2.1876189708709717, 1.101806640625, -0.593994140625, 0.085205078125
153, 3929903364, -6.668698310852051, 1.7541836500167847, 7.101119041442871, -2.294065237045288, -1.3532596826553345, -2.233132839202881, 1.105224609375, -0.593505859375, 0.086181640625
154, 3929920031, -6.672418594360352, 1.7554060220718384, 7.100823879241943, -2.3025307655334473, -1.3703693151474, -2.224924087524414, 1.10302734375, -0.58984375, 0.085205078125
155, 3929936698, -6.676089286804199, 1.745527982711792, 7.084238052368164, -2.2483596801757812, -1.4826679229736328, -2.158574104309082, 1.105224609375, -0.593017578125, 0.084228515625
156, 3929953365, -6.683160781860352, 1.7552495002746582, 7.071314811706543, -2.354537010192871, -1.5365827083587646, -2.2330687046051025, 1.105224609375, -0.5908203125, 0.086669921875
157, 3929970032, -6.679698467254639, 1.7761234045028687, 7.067466735839844, -2.392251968383789, -1.5847090482711792, -2.215076208114624, 1.103759765625, -0.59228515625, 0.084228515625
158, 3929986699, -6.676427364349365, 1.7468922138214111, 7.099452018737793, -2.4095404148101807, -1.5812513828277588, -2.2674667835235596, 1.104736328125, -0.593017578125, 0.0830078125
159, 3930003366, -6.679458141326904, 1.753557801246643, 7.062066078186035, -2.4155211448669434, -1.4831290245056152, -2.286663770675659, 1.107666015625, -0.591796875, 0.086669921875
160, 3930020033, -6.680233001708984, 1.7465046644210815, 7.11065149307251, -2.4585888385772705, -1.5215224027633667, -2.2478091716766357, 1.105224609375, -0.591796875, 0.085205078125
161, 3930036700, -6.66361141204834, 1.7647387981414795, 7.103994846343994, -2.3449065685272217, -1.447527289390564, -2.2178163528442383, 1.104736328125, -0.59228515625, 0.086181640625
162, 3930053367, -6.684124946594238, 1.7543202638626099, 7.0824174880981445, -2.4468648433685303, -1.3953089714050293, -2.271697521209717, 1.1025390625, -0.591796875, 0.08251953125
163, 3930070034, -6.677827835083008, 1.7555512189865112, 7.108272075653076, -2.464338779449463, -1.5301923751831055, -2.28857159614563, 1.104736328125, -0.592529296875, 0.084228515625
164, 3930086701, -6.672043323516846, 1.7692394256591797, 7.076923847198486, -2.430414915084839, -1.4900444746017456, -2.2987914085388184, 1.105712890625, -0.59130859375, 0.083740234375
165, 3930103368, -6.672764778137207, 1.7498501539230347, 7.083489418029785, -2.363680601119995, -1.5261967182159424, -2.238140344619751, 1.104736328125, -0.591796875, 0.08349609375
166, 3930120035, -6.685495376586914, 1.7382450103759766, 7.095341682434082, -2.3807642459869385, -1.5458415746688843, -2.185147523880005, 1.105712890625, -0.592529296875, 0.085693359375
167, 3930136702, -6.678075790405273, 1.7655833959579468, 7.082629680633545, -2.357008695602417, -1.5312809944152832, -2.181997299194336, 1.105712890625, -0.59228515625, 0.085693359375
168, 3930153369, -6.675395488739014, 1.7706665992736816, 7.088797569274902, -2.319972515106201, -1.5617855787277222, -2.1146228313446045, 1.103759765625, -0.58984375, 0.084716796875
169, 3930170036, -6.669309616088867, 1.76250159740448, 7.069561958312988, -2.3223674297332764, -1.4683502912521362, -2.1883745193481445, 1.105224609375, -0.59228515625, 0.086181640625
170, 3930186703, -6.686010837554932, 1.765795111656189, 7.076769828796387, -2.3920085430145264, -1.4786852598190308, -2.2380123138427734, 1.104248046875, -0.593017578125, 0.085205078125
171, 3930203370, -6.6717352867126465, 1.7510987520217896, 7.068542957305908, -2.413113594055176, -1.5045925378799438, -2.2733960151672363, 1.106201171875, -0.59130859375, 0.087158203125
172, 3930220037, -6.672180652618408, 1.7612698078155518, 7.0650248527526855, -2.3285913467407227, -1.460858941078186, -2.283346652984619, 1.106201171875, -0.59228515625, 0.087158203125
173, 3930236704, -6.675482749938965, 1.741911768913269, 7.080599308013916, -2.472163438796997, -1.4042803049087524, -2.19335675239563, 1.105224609375, -0.593505859375, 0.086181640625
174, 3930253371, -6.672846794128418, 1.751503586769104, 7.089993476867676, -2.4460387229919434, -1.5931997299194336, -2.263791561126709, 1.103271484375, -0.591796875, 0.08349609375
175, 3930270038, -6.678736686706543, 1.7786058187484741, 7.0889081954956055, -2.3577256202697754, -1.4618319272994995, -2.2933099269866943, 1.104248046875, -0.592529296875, 0.085693359375
176, 3930286705, -6.688924789428711, 1.7610844373703003, 7.079625606536865, -2.3074350357055664, -1.4172402620315552, -2.3073840141296387, 1.103759765625, -0.59228515625, 0.086181640625
177, 3930303372, -6.688443660736084, 1.7442231178283691, 7.06488561630249, -2.3309993743896484, -1.3437448740005493, -2.2049591541290283, 1.107666015625, -0.591796875, 0.086181640625
178, 3930320039, -6.681036472320557, 1.7449758052825928, 7.079684734344482, -2.341487169265747, -1.3304132223129272, -2.224385976791382, 1.105712890625, -0.591796875, 0.085205078125
179, 3930336706, -6.685927391052246, 1.7592960596084595, 7.074063777923584, -2.288597583770752, -1.5081783533096313, -2.1583311557769775, 1.105224609375, -0.59228515625, 0.086181640625
180, 3930353373, -6.699738502502441, 1.7434319257736206, 7.060398101806641, -2.3877570629119873, -1.5632200241088867, -2.1519665718078613, 1.104248046875, -0.5908203125, 0.087646484375
181, 3930370040, -6.686931133270264, 1.7468345165252686, 7.081905841827393, -2.3763718605041504, -1.544919490814209, -2.1274163722991943, 1.102783203125, -0.59228515625, 0.087158203125
182, 3930386707, -6.683123588562012, 1.7601279020309448, 7.104213714599609, -2.319178819656372, -1.54206383228302, -2.0487983226776123, 1.106689453125, -0.59130859375, 0.085205078125
183, 3930403374, -6.674834251403809, 1.7647745609283447, 7.083824634552002, -2.4226412773132324, -1.6179927587509155, -2.12878680229187, 1.106689453125, -0.59130859375, 0.08251953125
184, 3930420041, -6.672747611999512, 1.7682112455368042, 7.092074871063232, -2.4697303771972656, -1.598053216934204, -2.3224828243255615, 1.104736328125, -0.5908203125, 0.085693359375
185, 3930436708, -6.683008670806885, 1.7585368156433105, 7.070884704589844, -2.4127163887023926, -1.5229824781417847, -2.2787623405456543, 1.104736328125, -0.5908203125, 0.084228515625
186, 3930453375, -6.673983573913574, 1.7595386505126953, 7.053675174713135, -2.5246827602386475, -1.5344059467315674, -2.411371946334839, 1.103271484375, -0.591796875, 0.086669921875
187, 3930470042, -6.678023815155029, 1.753912091255188, 7.085294246673584, -2.5040645599365234, -1.4856008291244507, -2.46293044090271, 1.105224609375, -0.593017578125, 0.086669921875
188, 3930486709, -6.692331790924072, 1.7517848014831543, 7.105788230895996, -2.5216727256774902, -1.545675277709961, -2.3340086936950684, 1.103759765625, -0.59228515625, 0.086669921875
189, 3930503376, -6.685293197631836, 1.7531062364578247, 7.073462009429932, -2.589611053466797, -1.562285304069519, -2.317821741104126, 1.105224609375, -0.592529296875, 0.087646484375
190, 3930520043, -6.69040584564209, 1.7548977136611938, 7.087137222290039, -2.655179262161255, -1.6159822940826416, -2.394044876098633, 1.105712890625, -0.5908203125, 0.087158203125
191, 3930536710, -6.691598892211914, 1.7442522048950195, 7.067332744598389, -2.5335702896118164, -1.6099634170532227, -2.3671646118164062, 1.10107421875, -0.59130859375, 0.08544921875
192, 3930553377, -6.686489582061768, 1.7475330829620361, 7.0841755867004395, -2.552881956100464, -1.6968542337417603, -2.380521535873413, 1.104736328125, -0.59130859375, 0.085205078125
193, 3930570044, -6.679233074188232, 1.7517484426498413, 7.074601173400879, -2.457493305206299, -1.519087553024292, -2.3180532455444336, 1.104248046875, -0.592529296875, 0.086669921875
194, 3930586711, -6.674224376678467, 1.7600914239883423, 7.07145357131958, -2.511337995529175, -1.6610349416732788, -2.244504928588867, 1.106689453125, -0.591796875, 0.085693359375
195, 3930603378, -6.678384780883789, 1.7571712732315063, 7.083517551422119, -2.425215244293213, -1.5415899753570557, -2.220082998275757, 1.106689453125, -0.592529296875, 0.086669921875
196, 3930620045, -6.676072120666504, 1.7470710277557373, 7.0910749435424805, -2.41703200340271, -1.4883540868759155, -2.2450428009033203, 1.106201171875, -0.59033203125, 0.083740234375
197, 3930636712, -6.672461032867432, 1.7537376880645752, 7.075672626495361, -2.3812255859375, -1.4049078226089478, -2.2782368659973145, 1.106201171875, -0.59130859375, 0.085693359375
198, 3930653379, -6.690988063812256, 1.751603126525879, 7.079700946807861, -2.3935067653656006, -1.3181064128875732, -2.2769432067871094, 1.105712890625, -0.592529296875, 0.086181640625
199, 3930670046, -6.679254055023193, 1.7594197988510132, 7.077758312225342, -2.3790481090545654, -1.3533238172531128, -2.250062942504883, 1.103271484375, -0.59228515625, 0.086181640625
200, 3930686713, -6.6945977210998535, 1.7379882335662842, 7.070367813110352, -2.2806060314178467, -1.3832393884658813, -2.2060346603393555, 1.105224609375, -0.591796875, 0.086181640625
201, 3930703380, -6.674379348754883, 1.7556573152542114, 7.071967601776123, -2.370173454284668, -1.4606794118881226, -2.136073589324951, 1.107666015625, -0.593017578125, 0.085693359375
202, 3930720047, -6.684449195861816, 1.7567024230957031, 7.057404518127441, -2.2544682025909424, -1.373583436012268, -2.1264302730560303, 1.106201171875, -0.58984375, 0.086181640625
203, 3930736714, -6.66456413269043, 1.7595505714416504, 7.072109699249268, -2.2887120246887207, -1.4643163681030273, -2.153118848800659, 1.103759765625, -0.59033203125, 0.085205078125
204, 3930753381, -6.673185348510742, 1.7714108228683472, 7.089234352111816, -2.260448932647705, -1.37602961063385, -2.2031404972076416, 1.105224609375, -0.59033203125, 0.088134765625
205, 3930770048, -6.676523685455322, 1.7447398900985718, 7.087751388549805, -2.302197217941284, -1.363581657409668, -2.2331454753875732, 1.103759765625, -0.59033203125, 0.08447265625
206, 3930786715, -6.686269283294678, 1.7635688781738281, 7.096835136413574, -2.2996490001678467, -1.3257900476455688, -2.2310707569122314, 1.105712890625, -0.594482421875, 0.087646484375
207, 3930803382, -6.694266319274902, 1.7698694467544556, 7.075037479400635, -2.2604103088378906, -1.224184513092041, -2.2443127632141113, 1.104248046875, -0.59228515625, 0.086669921875
208, 3930820049, -6.697234630584717, 1.741558313369751, 7.083431243896484, -2.4035089015960693, -1.4544813632965088, -2.3224573135375977, 1.106201171875, -0.593017578125, 0.086181640625
209, 3930836716, -6.688045501708984, 1.7733415365219116, 7.068329811096191, -2.4264960289001465, -1.4503960609436035, -2.337850332260132, 1.106689453125, -0.592529296875, 0.085693359375
210, 3930853383, -6.687234878540039, 1.7556849718093872, 7.0584869384765625, -2.3735291957855225, -1.4592324495315552, -2.2905821800231934, 1.104736328125, -0.591796875, 0.086669921875
211, 3930870050, -6.692378520965576, 1.7580574750900269, 7.074488639831543, -2.4575514793395996, -1.5152472257614136, -2.362041711807251, 1.105712890625, -0.5908203125, 0.087646484375
212, 3930886717, -6.68485689163208, 1.7540796995162964, 7.064327716827393, -2.426342248916626, -1.581494688987732, -2.209223508834839, 1.104248046875, -0.5908203125, 0.087158203125
213, 3930903384, -6.690066337585449, 1.7551218271255493, 7.075777053833008, -2.482562303543091, -1.5680991411209106, -2.325389862060547, 1.106689453125, -0.591796875, 0.086181640625
214, 3930920051, -6.674514293670654, 1.7516772747039795, 7.083765029907227, -2.4939470291137695, -1.5411288738250732, -2.371415853500366, 1.107177734375, -0.5908203125, 0.088134765625
215, 3930936718, -6.685603618621826, 1.760318636894226, 7.074197769165039, -2.5329296588897705, -1.4741134643554688, -2.37151837348938, 1.104736328125, -0.591796875, 0.087158203125
216, 3930953385, -6.682027339935303, 1.7608290910720825, 7.078936576843262, -2.478464126586914, -1.4118103981018066, -2.399282455444336, 1.104736328125, -0.59130859375, 0.087646484375
217, 3930970052, -6.691075801849365, 1.7524397373199463, 7.0652289390563965, -2.279491901397705, -1.426192045211792, -2.2775840759277344, 1.106689453125, -0.59033203125, 0.086669921875
218, 3930986719, -6.69139289855957, 1.7571913003921509, 7.0843658447265625, -2.4574618339538574, -1.4236308336257935, -2.262561798095703, 1.106689453125, -0.59130859375, 0.086669921875
219, 3931003386, -6.680093288421631, 1.7712606191635132, 7.078911304473877, -2.459754228591919, -1.3870813846588135, -2.29115891456604, 1.107666015625, -0.592529296875, 0.086669921875
220, 3931020053, -6.684815406799316, 1.7325559854507446, 7.0707292556762695, -2.3502466678619385, -1.5156569480895996, -2.2412774562835693, 1.106689453125, -0.5908203125, 0.085693359375
221, 3931036720, -6.681619167327881, 1.7602291107177734, 7.071867942810059, -2.3711085319519043, -1.523917317390442, -2.263125419616699, 1.104736328125, -0.59130859375, 0.086669921875
222, 3931053387, -6.686079502105713, 1.7458183765411377, 7.069644927978516, -2.4519166946411133, -1.4674028158187866, -2.2146406173706055, 1.106201171875, -0.59228515625, 0.087158203125
223, 3931070054, -6.674533367156982, 1.7476571798324585, 7.065816879272461, -2.4415690898895264, -1.4799401760101318, -2.257606029510498, 1.106201171875, -0.5908203125, 0.085693359375
224, 3931086721, -6.691073417663574, 1.742509126663208, 7.084193706512451, -2.3998332023620605, -1.5411931276321411, -2.2200193405151367, 1.106689453125, -0.593017578125, 0.087646484375
225, 3931103388, -6.69242000579834, 1.7555936574935913, 7.086155891418457, -2.46822452545166, -1.6893764734268188, -2.2297589778900146, 1.105224609375, -0.59228515625, 0.087646484375
226, 3931120055, -6.6877851486206055, 1.7526541948318481, 7.084083557128906, -2.417172908782959, -1.6080166101455688, -2.241687536239624, 1.106689453125, -0.592529296875, 0.087158203125
227, 3931136722, -6.683236122131348, 1.7468082904815674, 7.078392028808594, -2.336787223815918, -1.6727653741836548, -2.0944912433624268, 1.103759765625, -0.59130859375, 0.087646484375
228, 3931153389, -6.68508243560791, 1.7423263788223267, 7.091711521148682, -2.041370391845703, -1.567983865737915, -1.8880784511566162, 1.103271484375, -0.591796875, 0.085693359375
229, 3931170056, -6.682692527770996, 1.743181824684143, 7.091168403625488, -1.998610258102417, -1.4831674098968506, -1.7756386995315552, 1.105712890625, -0.59130859375, 0.085693359375
230, 3931186723, -6.669404983520508, 1.7737923860549927, 7.065918445587158, -1.98039972782135, -1.4449405670166016, -1.7555328607559204, 1.104736328125, -0.591796875, 0.085205078125
231, 3931203390, -6.687435150146484, 1.7594491243362427, 7.070439338684082, -2.070812225341797, -1.4945265054702759, -2.0023880004882812, 1.107666015625, -0.592529296875, 0.087158203125
232, 3931220057, -6.680638313293457, 1.7560337781906128, 7.072579860687256, -2.3053860664367676, -1.5642955303192139, -2.1398000717163086, 1.107177734375, -0.59228515625, 0.086181640625
233, 3931236724, -6.6798930168151855, 1.7608085870742798, 7.059754848480225, -2.419081211090088, -1.5333939790725708, -2.22217059135437, 1.105712890625, -0.593017578125, 0.087646484375
234, 3931253391, -6.682285308837891, 1.7576079368591309, 7.081117153167725, -2.3874237537384033, -1.5088313817977905, -2.388000011444092, 1.106689453125, -0.59130859375, 0.087646484375
235, 3931270058, -6.679437637329102, 1.758041262626648, 7.06298303604126, -2.4417099952697754, -1.5035552978515625, -2.365384340286255, 1.104736328125, -0.592529296875, 0.0888671875
236, 3931286725, -6.676871299743652, 1.7581819295883179, 7.069037914276123, -2.4925003051757812, -1.5417951345443726, -2.4506492614746094, 1.108154296875, -0.59130859375, 0.086669921875
237, 3931303392, -6.689554691314697, 1.749955177307129, 7.077560901641846, -2.4805643558502197, -1.5920085906982422, -2.299572229385376, 1.107666015625, -0.592529296875, 0.086669921875
238, 3931320059, -6.698516845703125, 1.7459304332733154, 7.067489147186279, -2.5697481632232666, -1.5479933023452759, -2.360300064086914, 1.105712890625, -0.591796875, 0.087158203125
239, 3931336726, -6.688229084014893, 1.759963870048523, 7.064443111419678, -2.6134305000305176, -1.6390719413757324, -2.286804676055908, 1.106689453125, -0.59228515625, 0.086669921875
240, 3931353393, -6.687562465667725, 1.766485333442688, 7.074822902679443, -2.748960018157959, -1.762115240097046, -2.525911569595337, 1.103271484375, -0.592529296875, 0.086669921875
241, 3931370060, -6.695532321929932, 1.7611931562423706, 7.067479133605957, -2.8239922523498535, -1.8040817975997925, -2.665078639984131, 1.103271484375, -0.59033203125, 0.088623046875
242, 3931386727, -6.689772605895996, 1.7517894506454468, 7.071065425872803, -2.724883794784546, -1.6985061168670654, -2.5168447494506836, 1.105224609375, -0.59228515625, 0.086181640625
243, 3931403394, -6.706835746765137, 1.7428220510482788, 7.0746049880981445, -2.6870157718658447, -1.6926155090332031, -2.5047433376312256, 1.107666015625, -0.59130859375, 0.085205078125
244, 3931420061, -6.682842254638672, 1.7357717752456665, 7.094092845916748, -2.6304752826690674, -1.6266627311706543, -2.4321818351745605, 1.106201171875, -0.59228515625, 0.086181640625
245, 3931436728, -6.690186977386475, 1.7627390623092651, 7.050956726074219, -2.7136917114257812, -1.7282171249389648, -2.4194400310516357, 1.105224609375, -0.58984375, 0.085693359375
246, 3931453395, -6.671230792999268, 1.7590343952178955, 7.076645374298096, -2.6477770805358887, -1.7259758710861206, -2.4244472980499268, 1.104736328125, -0.59130859375, 0.086181640625
247, 3931470062, -6.6863484382629395, 1.7503629922866821, 7.091849327087402, -2.684326648712158, -1.7307144403457642, -2.432899236679077, 1.105224609375, -0.59130859375, 0.085693359375
248, 3931486729, -6.6849822998046875, 1.7365663051605225, 7.085869312286377, -2.647444248199463, -1.7490019798278809, -2.454631805419922, 1.105712890625, -0.5908203125, 0.086669921875
249, 3931503396, -6.682916641235352, 1.7500684261322021, 7.089081287384033, -2.4965336322784424, -1.5982195138931274, -2.337069034576416, 1.107177734375, -0.59130859375, 0.08984375
250, 3931520063, -6.682769775390625, 1.7616881132125854, 7.093386650085449, -2.447190761566162, -1.4880337715148926, -2.3685085773468018, 1.104736328125, -0.58984375, 0.086669921875
251, 3931536730, -6.695947647094727, 1.7527377605438232, 7.079680919647217, -2.4272260665893555, -1.5150552988052368, -2.3421661853790283, 1.104248046875, -0.59130859375, 0.085693359375
252, 3931553397, -6.6790289878845215, 1.7519365549087524, 7.100987434387207, -2.320446252822876, -1.5213685035705566, -2.2033705711364746, 1.104248046875, -0.59033203125, 0.086669921875
253, 3931570064, -6.691930770874023, 1.7483079433441162, 7.076864242553711, -2.4377591609954834, -1.5468727350234985, -2.259341239929199, 1.104736328125, -0.59130859375, 0.087646484375
254, 3931586731, -6.684554100036621, 1.7460331916809082, 7.087521076202393, -2.449573278427124, -1.583876609802246, -2.31203293800354, 1.106689453125, -0.5908203125, 0.086181640625
255, 3931603398, -6.6800217628479, 1.734649419784546, 7.063936710357666, -2.420797348022461, -1.5894089937210083, -2.2932331562042236, 1.106689453125, -0.59228515625, 0.087158203125
256, 3931620065, -6.6926164627075195, 1.7386701107025146, 7.069460868835449, -2.3156588077545166, -1.5756754875183105, -2.070739269256592, 1.106201171875, -0.591796875, 0.084228515625
257, 3931636732, -6.694294452667236, 1.7401020526885986, 7.070188045501709, -2.3380422592163086, -1.4824118614196777, -2.1514410972595215, 1.106201171875, -0.58935546875, 0.085693359375
258, 3931653399, -6.7023539543151855, 1.7505192756652832, 7.081435203552246, -2.3349435329437256, -1.6435285806655884, -2.1722517013549805, 1.103759765625, -0.58984375, 0.085693359375
259, 3931670066, -6.69077730178833, 1.7504186630249023, 7.088870525360107, -2.3099453449249268, -1.5786515474319458, -2.187516450881958, 1.104736328125, -0.58984375, 0.084716796875
260, 3931686733, -6.686406135559082, 1.7456395626068115, 7.079532623291016, -2.344292402267456, -1.7325712442398071, -2.1510443687438965, 1.105712890625, -0.59130859375, 0.085205078125
261, 3931703400, -6.693722724914551, 1.7617555856704712, 7.084982395172119, -2.3073325157165527, -1.6923846006393433, -2.063051700592041, 1.106689453125, -0.593505859375, 0.087646484375
262, 3931720067, -6.700052261352539, 1.7463828325271606, 7.068594932556152, -2.379790782928467, -1.6608681678771973, -2.0931081771850586, 1.107666015625, -0.58984375, 0.085205078125
263, 3931736734, -6.690861225128174, 1.738681435585022, 7.0797953605651855, -2.4153029918670654, -1.7374629974365234, -2.0530498027801514, 1.104736328125, -0.59033203125, 0.087158203125
264, 3931753401, -6.690704822540283, 1.7482937574386597, 7.073478698730469, -2.421335220336914, -1.761680006980896, -2.147714853286743, 1.104248046875, -0.5908203125, 0.085693359375
265, 3931770068, -6.6861395835876465, 1.7614580392837524, 7.0915069580078125, -2.5352091789245605, -1.7262191772460938, -2.197326421737671, 1.103271484375, -0.59130859375, 0.087158203125
266, 3931786735, -6.669394016265869, 1.7630800008773804, 7.073642253875732, -2.5186634063720703, -1.6462819576263428, -2.2296366691589355, 1.106689453125, -0.591796875, 0.086181640625
267, 3931803402, -6.682347774505615, 1.7480608224868774, 7.064399719238281, -2.55461049079895, -1.696931004524231, -2.2426605224609375, 1.104248046875, -0.5908203125, 0.085205078125
268, 3931820069, -6.6753668785095215, 1.7567782402038574, 7.10471773147583, -2.498852252960205, -1.7524340152740479, -2.3013014793395996, 1.106689453125, -0.59130859375, 0.085693359375
269, 3931836736, -6.680757522583008, 1.7500954866409302, 7.07907772064209, -2.55969500541687, -1.6334370374679565, -2.2683889865875244, 1.104248046875, -0.593505859375, 0.086669921875
270, 3931853403, -6.670583248138428, 1.7476321458816528, 7.079957485198975, -2.4338979721069336, -1.6458337306976318, -2.2670440673828125, 1.106201171875, -0.59130859375, 0.085693359375
271, 3931870070, -6.676407337188721, 1.7307350635528564, 7.097802639007568, -2.408643960952759, -1.5999102592468262, -2.2501652240753174, 1.105224609375, -0.5908203125, 0.087158203125
272, 3931886737, -6.6790242195129395, 1.7449135780334473, 7.083527088165283, -2.485327959060669, -1.50124990940094, -2.269758939743042, 1.106201171875, -0.59130859375, 0.084228515625
273, 3931903404, -6.677072048187256, 1.7589850425720215, 7.060196399688721, -2.4379448890686035, -1.485177993774414, -2.342153310775757, 1.107666015625, -0.59130859375, 0.084228515625
274, 3931920071, -6.685023784637451, 1.7246603965759277, 7.065746784210205, -2.461611032485962, -1.5511436462402344, -2.3026204109191895, 1.104248046875, -0.5908203125, 0.087646484375
275, 3931936738, -6.693089485168457, 1.731048345565796, 7.07610559463501, -2.46828293800354, -1.5165278911590576, -2.2767770290374756, 1.105712890625, -0.592529296875, 0.085693359375
276, 3931953405, -6.685935020446777, 1.7338051795959473, 7.079498291015625, -2.476377010345459, -1.604392409324646, -2.2257566452026367, 1.104248046875, -0.59130859375, 0.088134765625
277, 3931970072, -6.672786712646484, 1.7517187595367432, 7.0796098709106445, -2.5107743740081787, -1.6013572216033936, -2.194880247116089, 1.103515625, -0.587890625, 0.085205078125
278, 3931986739, -6.674116134643555, 1.7417335510253906, 7.0816473960876465, -2.5462355613708496, -1.524006962776184, -2.250383138656616, 1.105224609375, -0.59228515625, 0.086669921875
279, 3932003406, -6.678473472595215, 1.7454911470413208, 7.081110000610352, -2.511056423187256, -1.5186283588409424, -2.3078579902648926, 1.105712890625, -0.5908203125, 0.085693359375
280, 3932020073, -6.683473587036133, 1.7331047058105469, 7.090555667877197, -2.437727212905884, -1.4508954286575317, -2.209965944290161, 1.1083984375, -0.591796875, 0.085205078125
281, 3932036740, -6.669534206390381, 1.7392053604125977, 7.085613250732422, -2.403610944747925, -1.4910304546356201, -2.3150548934936523, 1.105224609375, -0.59033203125, 0.086669921875
282, 3932053407, -6.6867547035217285, 1.7497820854187012, 7.063305377960205, -2.4401092529296875, -1.4964733123779297, -2.2904415130615234, 1.104248046875, -0.58984375, 0.08447265625
283, 3932070074, -6.688321113586426, 1.7525407075881958, 7.07480525970459, -2.5369255542755127, -1.6095789670944214, -2.2780959606170654, 1.104736328125, -0.58935546875, 0.086669921875
284, 3932086741, -6.692604064941406, 1.7432188987731934, 7.069842338562012, -2.4749934673309326, -1.5373127460479736, -2.2752785682678223, 1.106201171875, -0.59130859375, 0.083740234375
285, 3932103408, -6.67446756362915, 1.7532018423080444, 7.071701526641846, -2.4734439849853516, -1.567420482635498, -2.2338626384735107, 1.106201171875, -0.59228515625, 0.084716796875
286, 3932120075, -6.676923751831055, 1.747126579284668, 7.077131271362305, -2.4068641662597656, -1.5382603406906128, -2.286625385284424, 1.105712890625, -0.59130859375, 0.085693359375
287, 3932136742, -6.679489612579346, 1.757587194442749, 7.079784393310547, -2.4237940311431885, -1.4951541423797607, -2.3429346084594727, 1.105224609375, -0.591796875, 0.084716796875
288, 3932153409, -6.675210475921631, 1.751955270767212, 7.062767505645752, -2.5078961849212646, -1.5312144756317139, -2.2592244148254395, 1.103759765625, -0.5908203125, 0.087646484375
289, 3932170076, -6.679983615875244, 1.748345136642456, 7.101574420928955, -2.506676435470581, -1.574323058128357, -2.250434160232544, 1.105224609375, -0.58935546875, 0.086181640625
290, 3932186743, -6.6747965812683105, 1.748602032661438, 7.090804100036621, -2.4977376461029053, -1.6322335004806519, -2.336505651473999, 1.106201171875, -0.59130859375, 0.084716796875
291, 3932203410, -6.682491779327393, 1.7517718076705933, 7.057543754577637, -2.399845838546753, -1.5883973836898804, -2.29144024848938, 1.107666015625, -0.59033203125, 0.087646484375
292, 3932220077, -6.67697286605835, 1.7499160766601562, 7.0655999183654785, -2.4998505115509033, -1.542217493057251, -2.329103469848633, 1.104736328125, -0.59130859375, 0.085205078125
293, 3932236744, -6.684012413024902, 1.732934832572937, 7.076531410217285, -2.55240797996521, -1.5335988998413086, -2.337991237640381, 1.107177734375, -0.58935546875, 0.085205078125
294, 3932253411, -6.6859846115112305, 1.745633602142334, 7.073593616485596, -2.5576331615448, -1.5330226421356201, -2.412358045578003, 1.103759765625, -0.59228515625, 0.086669921875
295, 3932270078, -6.683444976806641, 1.747638463973999, 7.075925350189209, -2.6527843475341797, -1.6121275424957275, -2.3870270252227783, 1.105712890625, -0.5908203125, 0.088134765625
296, 3932286745, -6.678508758544922, 1.7434369325637817, 7.081960678100586, -2.6525795459747314, -1.5136467218399048, -2.396388530731201, 1.104248046875, -0.58984375, 0.086669921875
297, 3932303412, -6.691501140594482, 1.7364041805267334, 7.062613010406494, -2.57175874710083, -1.5878084897994995, -2.3565609455108643, 1.105224609375, -0.5908203125, 0.084228515625
298, 3932320079, -6.682875633239746, 1.728299617767334, 7.10397481918335, -2.516716718673706, -1.5105342864990234, -2.334110975265503, 1.106201171875, -0.5908203125, 0.086669921875
299, 3932336746, -6.6838531494140625, 1.73227858543396, 7.095445156097412, -2.4799883365631104, -1.6431827545166016, -2.2979331016540527, 1.104248046875, -0.5888671875, 0.087158203125
300, 3932353413, -6.676044940948486, 1.7350109815597534, 7.079840660095215, -2.494997262954712, -1.5452783107757568, -2.2686707973480225, 1.106689453125, -0.591796875, 0.085693359375
301, 3932370080, -6.687466621398926, 1.7273297309875488, 7.065511226654053, -2.4035470485687256, -1.490531086921692, -2.246746301651001, 1.105712890625, -0.59130859375, 0.086669921875
302, 3932386747, -6.694363117218018, 1.7448166608810425, 7.100670337677002, -2.4803080558776855, -1.6606377363204956, -2.189373731613159, 1.105712890625, -0.58837890625, 0.086181640625
303, 3932403414, -6.685486793518066, 1.741483449935913, 7.074106216430664, -2.3698790073394775, -1.6253564357757568, -2.138314723968506, 1.104736328125, -0.59033203125, 0.085205078125
304, 3932420081, -6.684443473815918, 1.7489296197891235, 7.058284282684326, -2.4214885234832764, -1.5784337520599365, -2.228996515274048, 1.106689453125, -0.59130859375, 0.086181640625
305, 3932436748, -6.687497138977051, 1.748348355293274, 7.100022315979004, -2.4207844734191895, -1.6347178220748901, -2.2065086364746094, 1.103271484375, -0.58984375, 0.086669921875
306, 3932453415, -6.6792988777160645, 1.7513580322265625, 7.088457107543945, -2.487915277481079, -1.6905021667480469, -2.2574520111083984, 1.103759765625, -0.59130859375, 0.084716796875
307, 3932470082, -6.679445266723633, 1.7329044342041016, 7.081234931945801, -2.383504867553711, -1.558647871017456, -2.199746608734131, 1.104736328125, -0.59033203125, 0.085693359375
308, 3932486749, -6.674449920654297, 1.7387775182724, 7.083132266998291, -2.3745408058166504, -1.480798363685608, -2.2116310596466064, 1.104736328125, -0.59130859375, 0.086181640625
309, 3932503416, -6.69515323638916, 1.7598484754562378, 7.083996295928955, -2.5156538486480713, -1.4595781564712524, -2.334418535232544, 1.107177734375, -0.59130859375, 0.084228515625
310, 3932520083, -6.68850564956665, 1.7401450872421265, 7.110107421875, -2.499108076095581, -1.5071794986724854, -2.39342999458313, 1.106689453125, -0.58984375, 0.086669921875
311, 3932536750, -6.6822662353515625, 1.7362186908721924, 7.069748878479004, -2.5950660705566406, -1.5372744798660278, -2.355651617050171, 1.106201171875, -0.58984375, 0.083984375
312, 3932553417, -6.6750640869140625, 1.728127121925354, 7.089240550994873, -2.58292555809021, -1.634436011314392, -2.333214521408081, 1.103759765625, -0.58984375, 0.084716796875
313, 3932570084, -6.6802978515625, 1.7385855913162231, 7.1044511795043945, -2.6038386821746826, -1.6443995237350464, -2.35351300239563, 1.10302734375, -0.5908203125, 0.086669921875
314, 3932586751, -6.683516025543213, 1.7443623542785645, 7.082547664642334, -2.7663121223449707, -1.7417914867401123, -2.4654908180236816, 1.105224609375, -0.58984375, 0.086181640625
315, 3932603418, -6.6937127113342285, 1.7157727479934692, 7.0860090255737305, -2.7439658641815186, -1.7586193084716797, -2.416686773300171, 1.106689453125, -0.58984375, 0.084716796875
316, 3932620085, -6.676006317138672, 1.7397700548171997, 7.087155342102051, -2.707775115966797, -1.7140531539916992, -2.3933918476104736, 1.105712890625, -0.58935546875, 0.085693359375
317, 3932636752, -6.680821418762207, 1.7358375787734985, 7.103763103485107, -2.634420156478882, -1.64082670211792, -2.3628742694854736, 1.105712890625, -0.5888671875, 0.085205078125
318, 3932653419, -6.672132968902588, 1.7333269119262695, 7.082260608673096, -2.523325204849243, -1.6609070301055908, -2.3386192321777344, 1.104248046875, -0.5888671875, 0.086669921875
319, 3932670086, -6.682207107543945, 1.7269344329833984, 7.085446834564209, -2.524082660675049, -1.6423414945602417, -2.2311551570892334, 1.103759765625, -0.58984375, 0.087158203125
320, 3932686753, -6.687604904174805, 1.7227592468261719, 7.094850540161133, -2.414893388748169, -1.621322512626648, -2.2036399841308594, 1.103759765625, -0.58984375, 0.085693359375
321, 3932703420, -6.679173469543457, 1.737142562866211, 7.080690383911133, -2.440045118331909, -1.6172115802764893, -2.089202404022217, 1.106201171875, -0.59033203125, 0.085693359375
322, 3932720087, -6.67141056060791, 1.7305033206939697, 7.102303981781006, -2.395171642303467, -1.5840301513671875, -2.1810879707336426, 1.106201171875, -0.58837890625, 0.085693359375
323, 3932736754, -6.685130596160889, 1.7416050434112549, 7.092948913574219, -2.2776477336883545, -1.5452399253845215, -2.1342551708221436, 1.106201171875, -0.59033203125, 0.084228515625
324, 3932753421, -6.676180839538574, 1.7514890432357788, 7.0970845222473145, -2.3728628158569336, -1.5137873888015747, -2.0427792072296143, 1.104248046875, -0.58935546875, 0.084716796875
325, 3932770088, -6.682781219482422, 1.7430678606033325, 7.070329189300537, -2.352231502532959, -1.4170737266540527, -2.0732455253601074, 1.104736328125, -0.58935546875, 0.086181640625
326, 3932786755, -6.672883033752441, 1.7359085083007812, 7.082849979400635, -2.339066743850708, -1.42484712600708, -2.207404851913452, 1.106689453125, -0.58935546875, 0.086181640625
327, 3932803422, -6.677900314331055, 1.7272852659225464, 7.087657451629639, -2.3763461112976074, -1.37646484375, -2.220006227493286, 1.105712890625, -0.58837890625, 0.085205078125
328, 3932820089, -6.687655448913574, 1.732292890548706, 7.083882808685303, -2.331101417541504, -1.4555824995040894, -2.2112209796905518, 1.105712890625, -0.591796875, 0.085693359375
329, 3932836756, -6.678337574005127, 1.730858564376831, 7.082528591156006, -2.380354881286621, -1.3467926979064941, -2.253021240234375, 1.105224609375, -0.58837890625, 0.087646484375
330, 3932853423, -6.680418491363525, 1.7436606884002686, 7.069450378417969, -2.367279529571533, -1.4779424667358398, -2.2227725982666016, 1.104248046875, -0.59033203125, 0.085693359375
331, 3932870090, -6.682028770446777, 1.7402312755584717, 7.095074653625488, -2.3753857612609863, -1.3878368139266968, -2.1666676998138428, 1.106201171875, -0.58740234375, 0.088134765625
332, 3932886757, -6.69572114944458, 1.734628677368164, 7.061675548553467, -2.4578075408935547, -1.4968575239181519, -2.236680269241333, 1.105224609375, -0.5888671875, 0.083984375
333, 3932903424, -6.683286666870117, 1.7416630983352661, 7.071157932281494, -2.3968751430511475, -1.3848659992218018, -2.2768282890319824, 1.105712890625, -0.58935546875, 0.085205078125
334, 3932920091, -6.688594818115234, 1.7348212003707886, 7.07077693939209, -2.3220088481903076, -1.5223674774169922, -2.20613694190979, 1.104248046875, -0.59033203125, 0.086181640625
335, 3932936758, -6.688754558563232, 1.7365634441375732, 7.0875420570373535, -2.3815460205078125, -1.4971776008605957, -2.2490642070770264, 1.104248046875, -0.59033203125, 0.087158203125
336, 3932953425, -6.668046951293945, 1.7494597434997559, 7.075811862945557, -2.419286012649536, -1.4534567594528198, -2.2695930004119873, 1.104248046875, -0.58935546875, 0.087158203125
337, 3932970092, -6.685438632965088, 1.733128309249878, 7.077726364135742, -2.3182051181793213, -1.4813232421875, -2.213449478149414, 1.104248046875, -0.58984375, 0.085205078125
338, 3932986759, -6.683578968048096, 1.728337049484253, 7.084434986114502, -2.3702502250671387, -1.4547756910324097, -2.149993896484375, 1.105712890625, -0.58935546875, 0.084716796875
339, 3933003426, -6.680212497711182, 1.7420470714569092, 7.070866584777832, -2.359966993331909, -1.550925850868225, -2.157946825027466, 1.106689453125, -0.58935546875, 0.086181640625
340, 3933020093, -6.684929847717285, 1.749085783958435, 7.089392185211182, -2.3800859451293945, -1.5543066263198853, -2.2357070446014404, 1.103759765625, -0.59228515625, 0.085693359375
341, 3933036760, -6.694918155670166, 1.7420289516448975, 7.091434955596924, -2.4848930835723877, -1.602702021598816, -2.3023643493652344, 1.106201171875, -0.58935546875, 0.086181640625
342, 3933053427, -6.691057205200195, 1.7273486852645874, 7.075995922088623, -2.461867332458496, -1.495922565460205, -2.2415850162506104, 1.106201171875, -0.59033203125, 0.087646484375
343, 3933070094, -6.672760009765625, 1.7384676933288574, 7.082574844360352, -2.4482152462005615, -1.4935916662216187, -2.279350996017456, 1.106201171875, -0.59130859375, 0.085205078125
344, 3933086761, -6.684950828552246, 1.741167426109314, 7.064440727233887, -2.4579482078552246, -1.3432451486587524, -2.238229751586914, 1.107666015625, -0.591796875, 0.086669921875
345, 3933103428, -6.678480625152588, 1.7333922386169434, 7.057562351226807, -2.5476958751678467, -1.5441259145736694, -2.374784231185913, 1.104736328125, -0.58984375, 0.088623046875
346, 3933120095, -6.690090179443359, 1.73551607131958, 7.097842216491699, -2.6843392848968506, -1.5969264507293701, -2.4125757217407227, 1.107177734375, -0.5888671875, 0.085693359375
347, 3933136762, -6.692671775817871, 1.731017827987671, 7.0916619300842285, -2.672762632369995, -1.6717668771743774, -2.4679760932922363, 1.104736328125, -0.58984375, 0.085693359375
348, 3933153429, -6.686008453369141, 1.7363101243972778, 7.105050563812256, -2.7472188472747803, -1.745544195175171, -2.427354574203491, 1.103515625, -0.58935546875, 0.086669921875
349, 3933170096, -6.673407077789307, 1.7264623641967773, 7.08762264251709, -2.581824541091919, -1.663314700126648, -2.4056477546691895, 1.105712890625, -0.5888671875, 0.086181640625
350, 3933186763, -6.694265842437744, 1.7268023490905762, 7.092123985290527, -2.573716878890991, -1.639562726020813, -2.3380048274993896, 1.104736328125, -0.58740234375, 0.084716796875
351, 3933203430, -6.672945022583008, 1.7398242950439453, 7.065207004547119, -2.597998857498169, -1.6288782358169556, -2.338414192199707, 1.104736328125, -0.58984375, 0.088134765625
352, 3933220097, -6.673830986022949, 1.726063847541809, 7.075253486633301, -2.485891819000244, -1.5459187030792236, -2.3267600536346436, 1.107666015625, -0.58935546875, 0.086181640625
353, 3933236764, -6.694007873535156, 1.736395239830017, 7.085328102111816, -2.5937342643737793, -1.6125116348266602, -2.337095022201538, 1.104736328125, -0.587890625, 0.086669921875
354, 3933253431, -6.675570011138916, 1.7236443758010864, 7.07901668548584, -2.6648995876312256, -1.6037522554397583, -2.358891725540161, 1.104736328125, -0.59033203125, 0.086181640625
355, 3933270098, -6.679415225982666, 1.7240146398544312, 7.0719733238220215, -2.5307652950286865, -1.6155853271484375, -2.4388160705566406, 1.105224609375, -0.58935546875, 0.085205078125
356, 3933286765, -6.684440612792969, 1.726292371749878, 7.089565753936768, -2.5744993686676025, -1.672304630279541, -2.3369412422180176, 1.104736328125, -0.587890625, 0.086181640625
357, 3933303432, -6.6746087074279785, 1.7225614786148071, 7.070510387420654, -2.5085461139678955, -1.5971438884735107, -2.3475189208984375, 1.107177734375, -0.58740234375, 0.086181640625
358, 3933320099, -6.677891254425049, 1.7328479290008545, 7.093860626220703, -2.504589319229126, -1.593225359916687, -2.3001229763031006, 1.107177734375, -0.58984375, 0.087158203125
359, 3933336766, -6.684638500213623, 1.7282730340957642, 7.111474990844727, -2.508469581604004, -1.5810080766677856, -2.277122735977173, 1.104248046875, -0.5888671875, 0.085205078125
360, 3933353433, -6.68914270401001, 1.7280408143997192, 7.090141773223877, -2.582247018814087, -1.612972617149353, -2.2718851566314697, 1.104736328125, -0.58740234375, 0.085205078125
361, 3933370100, -6.687482833862305, 1.7239489555358887, 7.059702396392822, -2.5817344188690186, -1.630632758140564, -2.3640267848968506, 1.104736328125, -0.5888671875, 0.086181640625
362, 3933386767, -6.688989162445068, 1.7050788402557373, 7.089941501617432, -2.4873390197753906, -1.5885764360427856, -2.3191657066345215, 1.103759765625, -0.58984375, 0.086669921875
363, 3933403434, -6.680825710296631, 1.7168711423873901, 7.076145172119141, -2.566521167755127, -1.6675151586532593, -2.3200628757476807, 1.107177734375, -0.59033203125, 0.084716796875
364, 3933420101, -6.676613807678223, 1.721647024154663, 7.076707363128662, -2.5815811157226562, -1.7814915180206299, -2.371262311935425, 1.104736328125, -0.5888671875, 0.086669921875
365, 3933436768, -6.67589807510376, 1.7219232320785522, 7.072691917419434, -2.5092251300811768, -1.5621827840805054, -2.3535895347595215, 1.106689453125, -0.58935546875, 0.087158203125
366, 3933453435, -6.695974826812744, 1.7137922048568726, 7.090265274047852, -2.466028928756714, -1.5592882633209229, -2.3089206218719482, 1.105712890625, -0.59033203125, 0.086669921875
367, 3933470102, -6.6900787353515625, 1.7146283388137817, 7.092071056365967, -2.539102077484131, -1.5656530857086182, -2.4043281078338623, 1.103759765625, -0.5888671875, 0.08447265625
368, 3933486769, -6.684194564819336, 1.706697702407837, 7.078336715698242, -2.6135711669921875, -1.5821607112884521, -2.411461591720581, 1.104736328125, -0.587890625, 0.087646484375
369, 3933503436, -6.692392826080322, 1.7189007997512817, 7.086958408355713, -2.5762407779693604, -1.6637243032455444, -2.3671131134033203, 1.103759765625, -0.58935546875, 0.086181640625
370, 3933520103, -6.682776927947998, 1.719757318496704, 7.0804524421691895, -2.6696889400482178, -1.7698763608932495, -2.367497205734253, 1.104736328125, -0.58984375, 0.088623046875
371, 3933536770, -6.69674015045166, 1.7127889394760132, 7.0753045082092285, -2.6421170234680176, -1.7584913969039917, -2.3788695335388184, 1.105712890625, -0.58935546875, 0.085693359375
372, 3933553437, -6.685186862945557, 1.7083903551101685, 7.083649158477783, -2.658304214477539, -1.735670566558838, -2.3458163738250732, 1.10400390625, -0.58837890625, 0.086669921875
373, 3933570104, -6.686776638031006, 1.7150155305862427, 7.074584484100342, -2.617912769317627, -1.874017596244812, -2.3693926334381104, 1.104736328125, -0.587890625, 0.084716796875
374, 3933586771, -6.684010982513428, 1.7017779350280762, 7.093278884887695, -2.6638495922088623, -1.7209560871124268, -2.361453056335449, 1.10302734375, -0.58740234375, 0.086669921875
375, 3933603438, -6.683767318725586, 1.7208367586135864, 7.071455955505371, -2.709555149078369, -1.7272824048995972, -2.424652099609375, 1.105224609375, -0.58935546875, 0.087646484375
376, 3933620105, -6.682648658752441, 1.7163723707199097, 7.083665370941162, -2.5772013664245605, -1.7262579202651978, -2.4311320781707764, 1.105224609375, -0.58837890625, 0.08447265625
377, 3933636772, -6.663597583770752, 1.7206083536148071, 7.095223426818848, -2.6437177658081055, -1.7175623178482056, -2.371890068054199, 1.105224609375, -0.587890625, 0.084716796875
378, 3933653439, -6.68172550201416, 1.7109932899475098, 7.102672576904297, -2.560847520828247, -1.6077220439910889, -2.3563685417175293, 1.103515625, -0.587890625, 0.0849609375
379, 3933670106, -6.691162109375, 1.7176477909088135, 7.087304592132568, -2.576829671859741, -1.5311784744262695, -2.278032064437866, 1.104736328125, -0.58740234375, 0.085205078125
380, 3933686773, -6.673053741455078, 1.7166805267333984, 7.10793399810791, -2.5109922885894775, -1.5629510879516602, -2.375424385070801, 1.103515625, -0.58837890625, 0.08447265625
381, 3933703440, -6.674908638000488, 1.6886042356491089, 7.078007221221924, -2.643115997314453, -1.600704312324524, -2.4517247676849365, 1.108154296875, -0.58740234375, 0.086669921875
382, 3933720107, -6.6750664710998535, 1.711919903755188, 7.089592456817627, -2.6500771045684814, -1.6672486066818237, -2.346764087677002, 1.104736328125, -0.5869140625, 0.083984375
383, 3933736774, -6.687002658843994, 1.6972085237503052, 7.096891403198242, -2.6185145378112793, -1.6261119842529297, -2.373772382736206, 1.108642578125, -0.587158203125, 0.08349609375
384, 3933753441, -6.693089008331299, 1.7065417766571045, 7.063819408416748, -2.633011817932129, -1.6406856775283813, -2.278608560562134, 1.103759765625, -0.58935546875, 0.085693359375
385, 3933770108, -6.6744232177734375, 1.7099933624267578, 7.101418972015381, -2.57358980178833, -1.6443737745285034, -2.3351356983184814, 1.105224609375, -0.5888671875, 0.08447265625
386, 3933786775, -6.675319194793701, 1.7028039693832397, 7.087048053741455, -2.5596823692321777, -1.5933279991149902, -2.3575596809387207, 1.105224609375, -0.58837890625, 0.08447265625
387, 3933803442, -6.680283069610596, 1.6951873302459717, 7.073476314544678, -2.557953357696533, -1.5750914812088013, -2.2960758209228516, 1.105712890625, -0.58740234375, 0.086181640625
388, 3933820109, -6.692103385925293, 1.696370005607605, 7.082566738128662, -2.5873310565948486, -1.5086649656295776, -2.3788692951202393, 1.107177734375, -0.586669921875, 0.087158203125
389, 3933836776, -6.68377161026001, 1.7067787647247314, 7.081110954284668, -2.5695815086364746, -1.5686753988265991, -2.392367362976074, 1.107666015625, -0.586669921875, 0.086669921875
390, 3933853443, -6.668715000152588, 1.715273380279541, 7.087055206298828, -2.653719663619995, -1.622564673423767, -2.329014301300049, 1.104736328125, -0.58935546875, 0.085693359375
391, 3933870110, -6.673884391784668, 1.7071462869644165, 7.088466644287109, -2.7026524543762207, -1.6630841493606567, -2.397246837615967, 1.1044921875, -0.5869140625, 0.08349609375
392, 3933886777, -6.685492515563965, 1.7061268091201782, 7.089535236358643, -2.665987968444824, -1.5630279779434204, -2.443247079849243, 1.103759765625, -0.58935546875, 0.08447265625
393, 3933903444, -6.668081283569336, 1.7222074270248413, 7.082340717315674, -2.720965623855591, -1.5957611799240112, -2.452211380004883, 1.107177734375, -0.58740234375, 0.085693359375
394, 3933920111, -6.6775712966918945, 1.6940909624099731, 7.092437267303467, -2.7970352172851562, -1.6977636814117432, -2.4132802486419678, 1.104248046875, -0.58740234375, 0.08447265625
395, 3933936778, -6.6877827644348145, 1.7202517986297607, 7.108013153076172, -2.707108974456787, -1.6241782903671265, -2.449150800704956, 1.104736328125, -0.58740234375, 0.087646484375
396, 3933953445, -6.693739891052246, 1.706205129623413, 7.071446895599365, -2.6791017055511475, -1.716153621673584, -2.4528260231018066, 1.104736328125, -0.586181640625, 0.086669921875
397, 3933970112, -6.669440269470215, 1.6960039138793945, 7.082944393157959, -2.587036609649658, -1.6884279251098633, -2.4133057594299316, 1.1044921875, -0.586181640625, 0.085693359375
398, 3933986779, -6.674839496612549, 1.691390872001648, 7.090396404266357, -2.4979171752929688, -1.6748274564743042, -2.325620412826538, 1.105712890625, -0.585693359375, 0.085693359375
399, 3934003446, -6.68484354019165, 1.6863332986831665, 7.105500221252441, -2.5343384742736816, -1.5354303121566772, -2.2329154014587402, 1.105712890625, -0.586669921875, 0.08447265625
400, 3934020113, -6.675134181976318, 1.6961333751678467, 7.111703872680664, -2.522146701812744, -1.6407753229141235, -2.2518301010131836, 1.104736328125, -0.587890625, 0.086181640625
401, 3934036780, -6.672849655151367, 1.7049882411956787, 7.1062469482421875, -2.461611270904541, -1.6479853391647339, -2.2659430503845215, 1.105224609375, -0.587890625, 0.085693359375
402, 3934053447, -6.680687427520752, 1.6875547170639038, 7.096129894256592, -2.546274185180664, -1.7233507633209229, -2.3012757301330566, 1.104248046875, -0.58740234375, 0.085205078125
403, 3934070114, -6.6815385818481445, 1.7103286981582642, 7.089595794677734, -2.572039842605591, -1.666054606437683, -2.134549379348755, 1.105224609375, -0.586181640625, 0.085693359375
404, 3934086781, -6.676759719848633, 1.703004240989685, 7.085667610168457, -2.469153642654419, -1.6893367767333984, -2.19415020942688, 1.1044921875, -0.5869140625, 0.083984375
405, 3934103448, -6.673217296600342, 1.7015525102615356, 7.111173152923584, -2.504819631576538, -1.6928586959838867, -2.1705613136291504, 1.106201171875, -0.586669921875, 0.086669921875
406, 3934120115, -6.683713436126709, 1.6970685720443726, 7.092527866363525, -2.324634313583374, -1.6236273050308228, -2.218290328979492, 1.106201171875, -0.5888671875, 0.085693359375
407, 3934136782, -6.669173240661621, 1.6968441009521484, 7.091641426086426, -2.4290060997009277, -1.704691767692566, -2.2234129905700684, 1.104736328125, -0.587158203125, 0.086669921875
408, 3934153449, -6.675624370574951, 1.703486442565918, 7.084475040435791, -2.4111156463623047, -1.6419918537139893, -2.2554545402526855, 1.10205078125, -0.58740234375, 0.086669921875
409, 3934170116, -6.6915283203125, 1.6923857927322388, 7.10283899307251, -2.347391366958618, -1.7091355323791504, -2.2179062366485596, 1.1025390625, -0.586181640625, 0.0849609375
410, 3934186783, -6.689538955688477, 1.6921030282974243, 7.079827785491943, -2.3553311824798584, -1.716422438621521, -2.118208885192871, 1.104736328125, -0.58740234375, 0.08349609375
411, 3934203450, -6.6870574951171875, 1.719010353088379, 7.08447265625, -2.5004141330718994, -1.7511147260665894, -2.176772117614746, 1.105712890625, -0.58740234375, 0.085693359375
412, 3934220117, -6.682178974151611, 1.7186697721481323, 7.092681407928467, -2.3498241901397705, -1.728165626525879, -2.201359987258911, 1.106689453125, -0.586181640625, 0.083984375
413, 3934236784, -6.6852874755859375, 1.70173978805542, 7.093565940856934, -2.394387722015381, -1.6042704582214355, -2.180739402770996, 1.10400390625, -0.586669921875, 0.0849609375
414, 3934253451, -6.661060810089111, 1.7038202285766602, 7.108180522918701, -2.3413848876953125, -1.4301745891571045, -2.1674106121063232, 1.1044921875, -0.586181640625, 0.085693359375
415, 3934270118, -6.6870903968811035, 1.7178744077682495, 7.08953332901001, -2.3398993015289307, -1.495640754699707, -2.2106192111968994, 1.1044921875, -0.585205078125, 0.08544921875
416, 3934286785, -6.678807735443115, 1.7090147733688354, 7.0912580490112305, -2.4014976024627686, -1.5287963151931763, -2.19569993019104, 1.10400390625, -0.5869140625, 0.08447265625
417, 3934303452, -6.681302070617676, 1.6934396028518677, 7.090976715087891, -2.4320285320281982, -1.6114230155944824, -2.284550428390503, 1.105224609375, -0.586669921875, 0.085693359375
418, 3934320119, -6.671108722686768, 1.7004989385604858, 7.108139991760254, -2.4299919605255127, -1.6107826232910156, -2.2276389598846436, 1.10205078125, -0.584228515625, 0.0859375
419, 3934336786, -6.668574810028076, 1.7120685577392578, 7.098397254943848, -2.4693973064422607, -1.7036031484603882, -2.230545997619629, 1.105224609375, -0.586669921875, 0.08447265625
420, 3934353453, -6.6722636222839355, 1.69776451587677, 7.093833923339844, -2.3525009155273438, -1.6765176057815552, -2.2236435413360596, 1.10400390625, -0.586669921875, 0.085693359375
421, 3934370120, -6.689552307128906, 1.697689414024353, 7.110132694244385, -2.4559504985809326, -1.6075682640075684, -2.2181365489959717, 1.10302734375, -0.585205078125, 0.086181640625
422, 3934386787, -6.669425010681152, 1.7029238939285278, 7.10482931137085, -2.4034571647644043, -1.5616317987442017, -2.202845811843872, 1.10400390625, -0.58740234375, 0.083984375
423, 3934403454, -6.679845333099365, 1.7065839767456055, 7.107461929321289, -2.3874495029449463, -1.552078366279602, -2.186901807785034, 1.10498046875, -0.585693359375, 0.0849609375
424, 3934420121, -6.672926902770996, 1.7078511714935303, 7.090555191040039, -2.392418146133423, -1.4329535961151123, -2.15775465965271, 1.103515625, -0.5869140625, 0.0849609375
425, 3934436788, -6.678623199462891, 1.70622718334198, 7.091262340545654, -2.402407169342041, -1.5058859586715698, -2.2210183143615723, 1.105712890625, -0.5869140625, 0.08251953125
426, 3934453455, -6.668019771575928, 1.7000356912612915, 7.109249114990234, -2.4446935653686523, -1.5459184646606445, -2.3024282455444336, 1.103515625, -0.587890625, 0.08349609375
427, 3934470122, -6.668084621429443, 1.6869043111801147, 7.116826057434082, -2.3863606452941895, -1.5116870403289795, -2.2477192878723145, 1.103515625, -0.5869140625, 0.086669921875
428, 3934486789, -6.674422264099121, 1.7000664472579956, 7.091005802154541, -2.3833513259887695, -1.431596040725708, -2.29879093170166, 1.1044921875, -0.586669921875, 0.08447265625
429, 3934503456, -6.67152214050293, 1.7069408893585205, 7.098513126373291, -2.3081653118133545, -1.537095069885254, -2.1887333393096924, 1.104736328125, -0.58837890625, 0.08447265625
430, 3934520123, -6.6706414222717285, 1.7089393138885498, 7.098145008087158, -2.3248519897460938, -1.457388162612915, -2.124317169189453, 1.1044921875, -0.5869140625, 0.08251953125
431, 3934536790, -6.68385648727417, 1.7101436853408813, 7.109798431396484, -2.362771511077881, -1.5462130308151245, -2.1464593410491943, 1.104248046875, -0.5888671875, 0.086181640625
432, 3934553457, -6.678584098815918, 1.7126216888427734, 7.103214740753174, -2.4507768154144287, -1.621386170387268, -2.1626081466674805, 1.10302734375, -0.58837890625, 0.083984375
433, 3934570124, -6.673853874206543, 1.7122515439987183, 7.120794773101807, -2.338311195373535, -1.5734007358551025, -2.1731350421905518, 1.103515625, -0.586181640625, 0.0830078125
434, 3934586791, -6.681010723114014, 1.7035835981369019, 7.1100239753723145, -2.3114824295043945, -1.5303845405578613, -2.2096333503723145, 1.104248046875, -0.58837890625, 0.086181640625
435, 3934603458, -6.682013034820557, 1.718121886253357, 7.104061603546143, -2.3593392372131348, -1.4790436029434204, -2.1736600399017334, 1.106201171875, -0.587890625, 0.085205078125
436, 3934620125, -6.667571544647217, 1.706782341003418, 7.107083797454834, -2.3694052696228027, -1.5203187465667725, -2.2708606719970703, 1.105712890625, -0.5888671875, 0.085205078125
437, 3934636792, -6.675785064697266, 1.7052505016326904, 7.099052429199219, -2.4356143474578857, -1.5086522102355957, -2.2825140953063965, 1.104248046875, -0.587890625, 0.085693359375
438, 3934653459, -6.670917510986328, 1.707923173904419, 7.134296417236328, -2.4377269744873047, -1.490748643875122, -2.264725685119629, 1.103515625, -0.586669921875, 0.086181640625
439, 3934670126, -6.678111553192139, 1.7097370624542236, 7.097410678863525, -2.458857774734497, -1.5398484468460083, -2.218149423599243, 1.106201171875, -0.587158203125, 0.083984375
440, 3934686793, -6.674426078796387, 1.6962701082229614, 7.092106342315674, -2.375117063522339, -1.6060060262680054, -2.279261589050293, 1.105224609375, -0.586181640625, 0.085693359375
441, 3934703460, -6.67257022857666, 1.697405457496643, 7.107300281524658, -2.483522415161133, -1.5337268114089966, -2.201296091079712, 1.104736328125, -0.587890625, 0.083984375
442, 3934720127, -6.667861461639404, 1.6971218585968018, 7.104372978210449, -2.363053560256958, -1.6362930536270142, -2.17547869682312, 1.105224609375, -0.5869140625, 0.08203125
443, 3934736794, -6.661234378814697, 1.7070094347000122, 7.095505237579346, -2.381737470626831, -1.5346745252609253, -2.1837387084960938, 1.10107421875, -0.5869140625, 0.086669921875
444, 3934753461, -6.6842827796936035, 1.70566725730896, 7.124227523803711, -2.3927767276763916, -1.535468578338623, -2.239292621612549, 1.103515625, -0.585693359375, 0.08447265625
445, 3934770128, -6.678406715393066, 1.6871222257614136, 7.106932640075684, -2.410522699356079, -1.622480034828186, -2.177307367324829, 1.103759765625, -0.5888671875, 0.0849609375
446, 3934786795, -6.678909778594971, 1.7025865316390991, 7.09413480758667, -2.349696397781372, -1.690502405166626, -2.2574522495269775, 1.104736328125, -0.58935546875, 0.08447265625
447, 3934803462, -6.6759748458862305, 1.6947561502456665, 7.102657318115234, -2.4154956340789795, -1.5544604063034058, -2.1991448402404785, 1.106201171875, -0.585693359375, 0.08447265625
448, 3934820129, -6.687935829162598, 1.6909165382385254, 7.114439964294434, -2.349696636199951, -1.6004992723464966, -2.1810624599456787, 1.105224609375, -0.587158203125, 0.087158203125
449, 3934836796, -6.68947696685791, 1.69677734375, 7.096630096435547, -2.257657051086426, -1.4497044086456299, -2.2171378135681152, 1.105224609375, -0.587890625, 0.083984375
450, 3934853463, -6.683757781982422, 1.709886908531189, 7.109566688537598, -2.3802523612976074, -1.4891479015350342, -2.213052749633789, 1.10400390625, -0.5869140625, 0.083984375
451, 3934870130, -6.6872172355651855, 1.7062160968780518, 7.076828479766846, -2.426150321960449, -1.4873552322387695, -2.29827880859375, 1.10302734375, -0.586181640625, 0.083984375
452, 3934886797, -6.676170349121094, 1.700437068939209, 7.093313217163086, -2.4180567264556885, -1.604520559310913, -2.2272419929504395, 1.105224609375, -0.586181640625, 0.0849609375
453, 3934903464, -6.686975002288818, 1.6970888376235962, 7.10219144821167, -2.399282693862915, -1.612012267112732, -2.171457529067993, 1.105712890625, -0.587890625, 0.087158203125
454, 3934920131, -6.672153949737549, 1.7044891119003296, 7.084544658660889, -2.3960678577423096, -1.6105648279190063, -2.153656482696533, 1.105712890625, -0.58740234375, 0.08251953125
455, 3934936798, -6.671512126922607, 1.7086211442947388, 7.105063438415527, -2.430171489715576, -1.553653597831726, -2.163184642791748, 1.1044921875, -0.585693359375, 0.08251953125
456, 3934953465, -6.6734466552734375, 1.7120696306228638, 7.087519645690918, -2.4503159523010254, -1.6060187816619873, -2.165489912033081, 1.1015625, -0.586669921875, 0.083984375
457, 3934970132, -6.6815619468688965, 1.7010635137557983, 7.086384296417236, -2.3741822242736816, -1.6516605615615845, -2.188579559326172, 1.1044921875, -0.585205078125, 0.083984375
458, 3934986799, -6.663685321807861, 1.7000370025634766, 7.100194931030273, -2.4155337810516357, -1.6237300634384155, -2.1764135360717773, 1.105224609375, -0.587890625, 0.08447265625
459, 3935003466, -6.676650047302246, 1.697133183479309, 7.08585262298584, -2.3068976402282715, -1.6288397312164307, -2.175158739089966, 1.106689453125, -0.58935546875, 0.0830078125
460, 3935020133, -6.6794610023498535, 1.69423508644104, 7.109724998474121, -2.345649480819702, -1.5328303575515747, -2.1965579986572266, 1.106201171875, -0.5888671875, 0.08349609375
461, 3935036800, -6.688234329223633, 1.7060887813568115, 7.092051982879639, -2.2935144901275635, -1.6581405401229858, -2.0862436294555664, 1.105712890625, -0.587158203125, 0.085205078125
462, 3935053467, -6.680464744567871, 1.7088499069213867, 7.088703155517578, -2.307371139526367, -1.6524032354354858, -2.0491695404052734, 1.104736328125, -0.58935546875, 0.085693359375
463, 3935070134, -6.662720203399658, 1.6974295377731323, 7.093880653381348, -2.331806182861328, -1.698928952217102, -2.167513132095337, 1.105712890625, -0.586669921875, 0.085205078125
464, 3935086801, -6.6678080558776855, 1.697737455368042, 7.097635269165039, -2.3549983501434326, -1.6622259616851807, -2.1243174076080322, 1.1044921875, -0.586181640625, 0.083984375
465, 3935103468, -6.673509120941162, 1.71701180934906, 7.082442760467529, -2.340386152267456, -1.6955993175506592, -1.9918104410171509, 1.105712890625, -0.587890625, 0.085205078125
466, 3935120135, -6.680142879486084, 1.7147982120513916, 7.089494228363037, -2.309279441833496, -1.7038463354110718, -2.0373876094818115, 1.104248046875, -0.587890625, 0.08447265625
467, 3935136802, -6.667868614196777, 1.711655616760254, 7.1020660400390625, -2.3522701263427734, -1.6105393171310425, -2.0871403217315674, 1.105224609375, -0.586181640625, 0.08349609375
468, 3935153469, -6.658254623413086, 1.694201946258545, 7.088604927062988, -2.2141408920288086, -1.4948850870132446, -2.0358893871307373, 1.10400390625, -0.586669921875, 0.083984375
469, 3935170136, -6.678982257843018, 1.7222554683685303, 7.099318504333496, -2.2567737102508545, -1.423195481300354, -2.110243320465088, 1.10302734375, -0.58740234375, 0.08544921875
470, 3935186803, -6.668473720550537, 1.699699878692627, 7.0729079246521, -2.280951738357544, -1.5263758897781372, -2.104262351989746, 1.10302734375, -0.5869140625, 0.08544921875
471, 3935203470, -6.673305988311768, 1.7023844718933105, 7.0978522300720215, -2.2779035568237305, -1.4094923734664917, -2.1629281044006348, 1.104736328125, -0.587890625, 0.0830078125
472, 3935220137, -6.662197113037109, 1.6981587409973145, 7.098705291748047, -2.3281686305999756, -1.4837946891784668, -2.240060806274414, 1.104736328125, -0.5869140625, 0.085693359375
473, 3935236804, -6.672056674957275, 1.7179734706878662, 7.086297988891602, -2.300366163253784, -1.4669545888900757, -2.1467795372009277, 1.10302734375, -0.58740234375, 0.08544921875
474, 3935253471, -6.6680006980896, 1.7103822231292725, 7.097360610961914, -2.338055372238159, -1.5470327138900757, -2.155103921890259, 1.104736328125, -0.5888671875, 0.084716796875
475, 3935270138, -6.669785499572754, 1.703224539756775, 7.12143087387085, -2.3573672771453857, -1.5345721244812012, -2.273921012878418, 1.10400390625, -0.58837890625, 0.0830078125
476, 3935286805, -6.673935413360596, 1.7197561264038086, 7.08099889755249, -2.4492979049682617, -1.5236977338790894, -2.2365458011627197, 1.105712890625, -0.58837890625, 0.08349609375
477, 3935303472, -6.676908493041992, 1.6999610662460327, 7.098504066467285, -2.432668685913086, -1.5628485679626465, -2.176042079925537, 1.104248046875, -0.5888671875, 0.084716796875
478, 3935320139, -6.674380779266357, 1.713637113571167, 7.088259220123291, -2.434499740600586, -1.557367205619812, -2.209568977355957, 1.105224609375, -0.587890625, 0.083984375
479, 3935336806, -6.659458160400391, 1.6976031064987183, 7.079959869384766, -2.386143207550049, -1.5847216844558716, -2.1587281227111816, 1.104736328125, -0.5869140625, 0.086181640625
480, 3935353473, -6.676616668701172, 1.7175946235656738, 7.095438003540039, -2.523709297180176, -1.5860024690628052, -2.283538579940796, 1.104248046875, -0.587890625, 0.0849609375
481, 3935370140, -6.67287015914917, 1.705444574356079, 7.092264175415039, -2.4541707038879395, -1.7172420024871826, -2.194944381713867, 1.105712890625, -0.58935546875, 0.0830078125
482, 3935386807, -6.685795307159424, 1.708135724067688, 7.107191562652588, -2.4825751781463623, -1.5663959980010986, -2.2427120208740234, 1.104736328125, -0.5869140625, 0.08447265625
483, 3935403474, -6.677855014801025, 1.7048981189727783, 7.103242874145508, -2.4404549598693848, -1.6046357154846191, -2.2352843284606934, 1.105224609375, -0.587158203125, 0.085205078125
484, 3935420141, -6.667928218841553, 1.7062853574752808, 7.11811637878418, -2.432079792022705, -1.5358529090881348, -2.275547742843628, 1.107177734375, -0.586181640625, 0.086669921875
485, 3935436808, -6.669307708740234, 1.7037957906723022, 7.102217197418213, -2.4842910766601562, -1.612844467163086, -2.227792739868164, 1.1044921875, -0.586669921875, 0.08447265625
486, 3935453475, -6.680306911468506, 1.718705654144287, 7.0780463218688965, -2.5112996101379395, -1.7146422863006592, -2.229483127593994, 1.10400390625, -0.586181640625, 0.0830078125
487, 3935470142, -6.671988487243652, 1.7148929834365845, 7.104755401611328, -2.5192525386810303, -1.7697867155075073, -2.2935791015625, 1.105224609375, -0.5888671875, 0.0830078125
488, 3935486809, -6.665320873260498, 1.7096260786056519, 7.110153675079346, -2.583937406539917, -1.7429829835891724, -2.262024164199829, 1.10400390625, -0.58740234375, 0.08349609375
489, 3935503476, -6.699553966522217, 1.7020758390426636, 7.113601207733154, -2.503603219985962, -1.6685137748718262, -2.271052598953247, 1.104248046875, -0.587890625, 0.08349609375
490, 3935520143, -6.676122188568115, 1.7175750732421875, 7.12705135345459, -2.4973151683807373, -1.7453519105911255, -2.2015013694763184, 1.104248046875, -0.58740234375, 0.08447265625
491, 3935536810, -6.671910285949707, 1.7148534059524536, 7.076390266418457, -2.5023608207702637, -1.724695086479187, -2.2513561248779297, 1.10302734375, -0.5869140625, 0.08251953125
492, 3935553477, -6.660754203796387, 1.702223300933838, 7.103016376495361, -2.5951554775238037, -1.6274566650390625, -2.2098381519317627, 1.10400390625, -0.586669921875, 0.083984375
493, 3935570144, -6.667719841003418, 1.7121421098709106, 7.105564594268799, -2.5376551151275635, -1.5664985179901123, -2.2395360469818115, 1.1015625, -0.5888671875, 0.0849609375
494, 3935586811, -6.654208660125732, 1.7037287950515747, 7.10270357131958, -2.540510892868042, -1.5703147649765015, -2.313633680343628, 1.104736328125, -0.58935546875, 0.085205078125
495, 3935603478, -6.671345233917236, 1.6991760730743408, 7.103013515472412, -2.5282294750213623, -1.5405783653259277, -2.379765510559082, 1.1044921875, -0.585693359375, 0.085205078125
496, 3935620145, -6.671896457672119, 1.7158921957015991, 7.108621120452881, -2.608205795288086, -1.615418791770935, -2.35990309715271, 1.105224609375, -0.58740234375, 0.08251953125
497, 3935636812, -6.674195766448975, 1.6938987970352173, 7.1027750968933105, -2.437061309814453, -1.4897114038467407, -2.306410789489746, 1.1044921875, -0.5869140625, 0.08349609375
498, 3935653479, -6.663052558898926, 1.703649878501892, 7.1045989990234375, -2.5450570583343506, -1.4328384399414062, -2.3183462619781494, 1.104736328125, -0.587890625, 0.085693359375
499, 3935670146, -6.662683010101318, 1.7177867889404297, 7.105240821838379, -2.4659266471862793, -1.4208518266677856, -2.3796119689941406, 1.103515625, -0.585693359375, 0.0830078125
500, 3935686813, -6.669734954833984, 1.686630129814148, 7.114941596984863, -2.484880208969116, -1.3395057916641235, -2.3772172927856445, 1.103515625, -0.586181640625, 0.085693359375
501, 3935703480, -6.665476322174072, 1.699323058128357, 7.1023640632629395, -2.5006706714630127, -1.3483166694641113, -2.3852083683013916, 1.105224609375, -0.5869140625, 0.084716796875
502, 3935720147, -6.674238681793213, 1.7083029747009277, 7.089437484741211, -2.5884454250335693, -1.4453887939453125, -2.4654786586761475, 1.1044921875, -0.585693359375, 0.08251953125
503, 3935736814, -6.675448417663574, 1.7050007581710815, 7.101794242858887, -2.575472354888916, -1.3949956893920898, -2.4269187450408936, 1.1044921875, -0.5869140625, 0.083984375
504, 3935753481, -6.6809892654418945, 1.6950303316116333, 7.093249797821045, -2.53035569190979, -1.4570040702819824, -2.336928367614746, 1.103515625, -0.585205078125, 0.0849609375
505, 3935770148, -6.669379711151123, 1.704335331916809, 7.100586414337158, -2.5674684047698975, -1.3606362342834473, -2.3809566497802734, 1.10400390625, -0.584716796875, 0.08349609375
506, 3935786815, -6.675369739532471, 1.6954420804977417, 7.095900058746338, -2.481844902038574, -1.3362913131713867, -2.3244292736053467, 1.10498046875, -0.585693359375, 0.083984375
507, 3935803482, -6.6692938804626465, 1.7018228769302368, 7.109795570373535, -2.442004680633545, -1.328786849975586, -2.3404629230499268, 1.104736328125, -0.586669921875, 0.08447265625
508, 3935820149, -6.667847156524658, 1.7031880617141724, 7.093930244445801, -2.502159595489502, -1.440730333328247, -2.3422563076019287, 1.106201171875, -0.586181640625, 0.083984375
509, 3935836816, -6.669702529907227, 1.6986191272735596, 7.09145975112915, -2.508187770843506, -1.4372568130493164, -2.4319515228271484, 1.105224609375, -0.585205078125, 0.08349609375
510, 3935853483, -6.67820930480957, 1.6968834400177002, 7.092576026916504, -2.5266799926757812, -1.4843453168869019, -2.3950047492980957, 1.1044921875, -0.5869140625, 0.0849609375
511, 3935870150, -6.686733722686768, 1.6740137338638306, 7.0839715003967285, -2.395146131515503, -1.435374140739441, -2.3537304401397705, 1.10302734375, -0.586669921875, 0.085693359375
512, 3935886817, -6.686877727508545, 1.689288854598999, 7.0932416915893555, -2.3104958534240723, -1.42661452293396, -2.240445137023926, 1.104736328125, -0.587890625, 0.08447265625
513, 3935903484, -6.671269416809082, 1.6903969049453735, 7.111179828643799, -2.2898011207580566, -1.5044515132904053, -2.120039939880371, 1.106201171875, -0.58837890625, 0.086181640625
514, 3935920151, -6.693386554718018, 1.6693329811096191, 7.106639862060547, -2.1920886039733887, -1.3814594745635986, -2.021392583847046, 1.105224609375, -0.586669921875, 0.085693359375
515, 3935936818, -6.6796875, 1.707332730293274, 7.099024295806885, -2.0047318935394287, -1.3226910829544067, -1.8760408163070679, 1.10400390625, -0.5869140625, 0.08447265625
516, 3935953485, -6.682600498199463, 1.7012087106704712, 7.084771156311035, -2.007126569747925, -1.4183162450790405, -1.8019046783447266, 1.104248046875, -0.58740234375, 0.085693359375
517, 3935970152, -6.679576873779297, 1.6954624652862549, 7.106043815612793, -2.194316864013672, -1.5548828840255737, -2.0759987831115723, 1.105224609375, -0.58740234375, 0.085693359375
518, 3935986819, -6.680811405181885, 1.689929485321045, 7.115332126617432, -2.370595932006836, -1.6121528148651123, -2.109846353530884, 1.10400390625, -0.5869140625, 0.08349609375
519, 3936003486, -6.688469409942627, 1.7116960287094116, 7.073177814483643, -2.1385321617126465, -1.3882211446762085, -1.9756228923797607, 1.105224609375, -0.5869140625, 0.084716796875
520, 3936020153, -6.682731628417969, 1.7279819250106812, 7.085311412811279, -2.274625301361084, -1.5825574398040771, -1.9353851079940796, 1.105712890625, -0.5888671875, 0.085693359375
521, 3936036820, -6.680813312530518, 1.7106082439422607, 7.0801472663879395, -2.473534107208252, -1.6246392726898193, -2.1705098152160645, 1.106689453125, -0.587890625, 0.084228515625
522, 3936053487, -6.682631492614746, 1.6880766153335571, 7.095370769500732, -2.550243616104126, -1.7710925340652466, -2.1799609661102295, 1.10400390625, -0.586181640625, 0.08349609375
523, 3936070154, -6.672152996063232, 1.6935943365097046, 7.1102118492126465, -2.435896158218384, -1.703654408454895, -1.987596869468689, 1.105224609375, -0.5888671875, 0.084716796875
524, 3936086821, -6.686312198638916, 1.696401834487915, 7.094539642333984, -2.0583646297454834, -1.5238916873931885, -1.7007474899291992, 1.10400390625, -0.58837890625, 0.083984375
525, 3936103488, -6.675422668457031, 1.6980493068695068, 7.09628963470459, -1.6806540489196777, -1.3486366271972656, -1.476328730583191, 1.106201171875, -0.587890625, 0.0830078125
526, 3936120155, -6.673672676086426, 1.6507340669631958, 7.068623065948486, -1.5143637657165527, -1.4669545888900757, -1.2974369525909424, 1.104248046875, -0.58837890625, 0.085693359375
527, 3936136822, -6.651927947998047, 1.6746771335601807, 7.086819648742676, 0.21400052309036255, -0.35734841227531433, -0.45365214347839355, 1.106689453125, -0.58837890625, 0.085205078125
528, 3936153489, -6.66292667388916, 1.6910474300384521, 7.084201812744141, 2.592639207839966, 2.252784252166748, 0.06593350321054459, 1.103271484375, -0.591796875, 0.087158203125
529, 3936170156, -6.720729827880859, 1.7586578130722046, 7.091909885406494, 4.557799816131592, 2.765550374984741, 0.9641709923744202, 1.104736328125, -0.59130859375, 0.087646484375
530, 3936186823, -6.718112945556641, 1.6922346353530884, 7.0961689949035645, 3.7483489513397217, 0.9859417676925659, 1.0620628595352173, 1.107177734375, -0.593017578125, 0.086669921875
531, 3936203490, -6.7076735496521, 1.8286570310592651, 6.981526851654053, 2.445814371109009, -0.40512892603874207, 1.0843329429626465, 1.107177734375, -0.593994140625, 0.08837890625
532, 3936220157, -6.7157673835754395, 1.8577244281768799, 7.035184860229492, 1.4370964765548706, -1.2158732414245605, 0.6674605011940002, 1.106201171875, -0.594482421875, 0.08935546875
533, 3936236824, -6.673893928527832, 1.8465954065322876, 7.076791763305664, 1.8579645156860352, -0.84401535987854, 0.6425522565841675, 1.105712890625, -0.597412109375, 0.08984375
534, 3936253491, -6.727097988128662, 1.7524504661560059, 7.058712005615234, 2.3623297214508057, -0.3101954460144043, 0.8473258018493652, 1.1064453125, -0.599609375, 0.08935546875
535, 3936270158, -6.712449550628662, 1.8092093467712402, 7.058887958526611, 2.4242355823516846, -0.28423693776130676, 1.3681087493896484, 1.107421875, -0.6005859375, 0.091552734375
536, 3936286825, -6.698950290679932, 1.896105408668518, 7.021788597106934, 1.0743823051452637, -1.2246071100234985, 0.8956440091133118, 1.107421875, -0.599609375, 0.091552734375
537, 3936303492, -6.680996417999268, 1.9054137468338013, 7.031635284423828, 0.00794634036719799, -1.5851444005966187, 0.24992233514785767, 1.10693359375, -0.603271484375, 0.08837890625
538, 3936320159, -6.687154769897461, 1.8919914960861206, 7.043109893798828, -0.593177318572998, -1.7944639921188354, -0.4070625901222229, 1.10791015625, -0.6005859375, 0.08837890625
539, 3936336826, -6.67677640914917, 1.945600986480713, 7.035478591918945, -1.3474160432815552, -1.9892574548721313, -1.0803685188293457, 1.10693359375, -0.6025390625, 0.09033203125
540, 3936353493, -6.670166969299316, 1.9179432392120361, 7.025021076202393, -2.464223623275757, -2.323277235031128, -2.0406792163848877, 1.10546875, -0.604248046875, 0.08935546875
541, 3936370160, -6.699359893798828, 1.8773523569107056, 7.086585998535156, -2.3945698738098145, -1.9505351781845093, -2.3439078330993652, 1.10791015625, -0.603759765625, 0.08935546875
542, 3936386827, -6.709907054901123, 1.89530348777771, 7.073498249053955, -1.7179335355758667, -1.1962028741836548, -2.2120795249938965, 1.10791015625, -0.60302734375, 0.08740234375
543, 3936403494, -6.673717975616455, 1.894148349761963, 7.0854668617248535, -1.6907070875167847, -1.0215497016906738, -2.480436086654663, 1.1083984375, -0.603759765625, 0.08984375
544, 3936420161, -6.652787685394287, 1.9273302555084229, 7.044037342071533, -2.7994678020477295, -0.2777441143989563, -3.3089685440063477, 1.107421875, -0.604248046875, 0.090576171875
545, 3936436828, -6.677819728851318, 1.9509879350662231, 7.071149826049805, -3.29591965675354, 0.6609421968460083, -3.9650769233703613, 1.1064453125, -0.6015625, 0.087890625
546, 3936453495, -6.687747478485107, 1.8717048168182373, 7.124495506286621, -2.621818780899048, 2.9445576667785645, -4.329545021057129, 1.10693359375, -0.6025390625, 0.092041015625
547, 3936470162, -6.712711811065674, 1.6787307262420654, 7.182390213012695, 0.13238565623760223, 6.91201639175415, -3.299774169921875, 1.10888671875, -0.603271484375, 0.092529296875
548, 3936486829, -6.703582763671875, 1.247106671333313, 7.230118751525879, 4.162393093109131, 12.549250602722168, -1.2516933679580688, 1.111083984375, -0.60302734375, 0.0947265625
549, 3936503496, -6.7694621086120605, 0.7668005228042603, 7.486156940460205, 10.142217636108398, 19.546064376831055, 3.0482046604156494, 1.11376953125, -0.605224609375, 0.099853515625
550, 3936520163, -7.405554294586182, 0.1297132968902588, 7.735500335693359, 23.55797004699707, 23.401653289794922, 14.700699806213379, 1.11572265625, -0.609375, 0.108154296875
551, 3936536830, -6.585576057434082, -0.23380176723003387, 8.257306098937988, 36.88642120361328, 27.08344078063965, 21.828842163085938, 1.117431640625, -0.619873046875, 0.115478515625
552, 3936553497, -0.34546008706092834, -6.522965908050537, 15.623418807983398, 7.5022969245910645, 33.26322555541992, 14.9876070022583, 1.120849609375, -0.63134765625, 0.123291015625
553, 3936570164, 0.8258174657821655, -23.21066665649414, 24.880430221557617, -81.75776672363281, 43.6929817199707, -15.738444328308105, 1.125244140625, -0.6240234375, 0.132080078125
554, 3936586831, -6.459405422210693, -27.059553146362305, 29.643672943115234, -69.25457000732422, -12.453139305114746, -76.7220458984375, 1.129638671875, -0.605712890625, 0.133544921875
555, 3936603498, -8.183439254760742, -23.8248348236084, 29.05072021484375, -10.580692291259766, -107.9337158203125, -159.99513244628906, 1.118896484375, -0.576416015625, 0.111083984375
556, 3936620165, -8.805852890014648, -15.811978340148926, 25.702306747436523, 24.205421447753906, -179.8618927001953, -220.50645446777344, 1.1025390625, -0.532470703125, 0.07470703125
557, 3936636832, -9.591031074523926, -8.992584228515625, 22.546232223510742, 23.952003479003906, -212.6452178955078, -235.9597625732422, 1.0712890625, -0.4892578125, 0.0234375
558, 3936653499, -10.058207511901855, -4.497761249542236, 20.399059295654297, 6.603853702545166, -211.3002166748047, -203.8416290283203, 1.03662109375, -0.451416015625, -0.026123046875
559, 3936670166, -10.201346397399902, -1.8794878721237183, 18.80813980102539, -35.42749786376953, -184.71495056152344, -164.42616271972656, 1.00390625, -0.413818359375, -0.06787109375
560, 3936686833, -12.369157791137695, -0.8478497266769409, 18.129714965820312, -66.68648529052734, -158.6294708251953, -133.57679748535156, 0.971923828125, -0.37890625, -0.104248046875
561, 3936703500, -15.055961608886719, 1.2662938833236694, 16.96016502380371, -78.91923522949219, -158.29368591308594, -109.11353302001953, 0.94140625, -0.345458984375, -0.135009765625
562, 3936720167, -14.708893775939941, 2.9939749240875244, 14.106353759765625, -88.51947021484375, -171.08448791503906, -95.5682601928711, 0.90185546875, -0.30810546875, -0.161376953125
563, 3936736834, -12.880834579467773, 3.7715654373168945, 11.093083381652832, -98.13758087158203, -169.20404052734375, -96.18276977539062, 0.861328125, -0.275634765625, -0.1865234375
564, 3936753501, -12.191069602966309, 4.0806732177734375, 9.131624221801758, -96.6888198852539, -155.33775329589844, -101.38613891601562, 0.8203125, -0.2392578125, -0.205322265625
565, 3936770168, -12.400336265563965, 4.840527057647705, 7.596983909606934, -80.92054748535156, -141.9746856689453, -107.01521301269531, 0.77880859375, -0.20458984375, -0.221435546875
566, 3936786835, -13.409154891967773, 6.685482978820801, 5.979324817657471, -58.915348052978516, -135.71067810058594, -116.15108489990234, 0.735595703125, -0.17626953125, -0.234130859375
567, 3936803502, -17.235755920410156, 12.303586959838867, 2.83292555809021, -43.91688537597656, -148.57376098632812, -138.0830078125, 0.68798828125, -0.150390625, -0.24609375
568, 3936820169, -22.559768676757812, 15.469618797302246, -5.395455360412598, -32.44467544555664, -190.07620239257812, -171.8562469482422, 0.6279296875, -0.1259765625, -0.25830078125
569, 3936836836, -20.47406578063965, 14.085787773132324, -16.24199104309082, 52.94910430908203, -195.30503845214844, -190.12945556640625, 0.556640625, -0.117919921875, -0.279541015625
570, 3936853503, -17.406137466430664, 18.97248077392578, -22.498428344726562, 134.15518188476562, -130.6326446533203, -172.1715545654297, 0.49609375, -0.1396484375, -0.3056640625
571, 3936870170, -17.129314422607422, 21.941295623779297, -22.76714515686035, 126.98377990722656, -42.55403137207031, -114.73053741455078, 0.46337890625, -0.16455078125, -0.322509765625
572, 3936886837, -15.811888694763184, 21.88850975036621, -19.49153709411621, 67.15679931640625, 34.09502410888672, -8.01572036743164, 0.462158203125, -0.1865234375, -0.335693359375
573, 3936903504, -15.30392074584961, 19.083005905151367, -15.385549545288086, -26.02155303955078, 106.64220428466797, 95.58223724365234, 0.491455078125, -0.1875, -0.327880859375
574, 3936920171, -16.844520568847656, 13.95984172821045, -10.094815254211426, -98.18324279785156, 164.4384307861328, 158.1905059814453, 0.54931640625, -0.176025390625, -0.308837890625
575, 3936936838, -17.557249069213867, 8.666746139526367, -4.999302864074707, -101.76527404785156, 197.68450927734375, 189.6341552734375, 0.6142578125, -0.16796875, -0.280029296875
576, 3936953505, -17.7750186920166, 5.376906871795654, -0.019557178020477295, -41.645591735839844, 214.97119140625, 188.4442596435547, 0.6884765625, -0.17138671875, -0.251220703125
577, 3936970172, -18.743135452270508, 5.79787015914917, 5.653378486633301, 19.537267684936523, 215.55255126953125, 165.89410400390625, 0.7587890625, -0.197021484375, -0.22265625
578, 3936986839, -18.9138126373291, 5.709745407104492, 9.838129997253418, 51.15365219116211, 198.2358856201172, 145.6587371826172, 0.8203125, -0.230224609375, -0.196044921875
579, 3937003506, -17.99609375, 4.482734680175781, 11.953612327575684, 85.01668548583984, 189.34823608398438, 132.0261688232422, 0.87158203125, -0.268798828125, -0.16748046875
580, 3937020173, -16.921775817871094, 4.139987468719482, 14.59004020690918, 119.38166809082031, 189.40748596191406, 110.516845703125, 0.917236328125, -0.311767578125, -0.140869140625
581, 3937036840, -13.399158477783203, 1.6494051218032837, 16.66182518005371, 151.27423095703125, 190.83937072753906, 117.98847198486328, 0.95849609375, -0.360107421875, -0.1083984375
582, 3937053507, -10.426897048950195, 2.7694783210754395, 18.83732795715332, 132.9042510986328, 202.2772979736328, 150.3325958251953, 0.996826171875, -0.413818359375, -0.072509765625
583, 3937070174, -9.77540397644043, -2.372626781463623, 23.607709884643555, 79.99468231201172, 217.51910400390625, 193.83657836914062, 1.036865234375, -0.46533203125, -0.025390625
584, 3937086841, -8.467095375061035, -7.514925479888916, 28.059959411621094, 50.50090026855469, 208.60659790039062, 227.87881469726562, 1.07177734375, -0.5224609375, 0.024658203125
585, 3937103508, -6.103488922119141, -11.755789756774902, 28.26644515991211, 16.43983268737793, 157.94004821777344, 212.54153442382812, 1.0966796875, -0.56689453125, 0.0625
586, 3937120175, -4.659829139709473, -16.83837890625, 27.09288215637207, 15.350020408630371, 106.41535949707031, 176.31448364257812, 1.107666015625, -0.609375, 0.090087890625
587, 3937136842, -5.1864914894104, -17.991458892822266, 24.694963455200195, 29.973018646240234, 57.32497787475586, 115.8802261352539, 1.11572265625, -0.638916015625, 0.1064453125
588, 3937153509, -3.34511137008667, -17.134782791137695, 21.280027389526367, 38.3903923034668, 25.788768768310547, 45.9546012878418, 1.1181640625, -0.65625, 0.117431640625
589, 3937170176, -3.342543601989746, -12.948999404907227, 18.533132553100586, 29.872426986694336, 10.62175178527832, -12.334820747375488, 1.11962890625, -0.6572265625, 0.12060546875
590, 3937186843, -2.310055732727051, -8.61490535736084, 15.249967575073242, 18.037256240844727, 2.1305084228515625, -54.71201705932617, 1.123046875, -0.64697265625, 0.12158203125
591, 3937203510, -5.365999698638916, -1.6533161401748657, 16.85834312438965, -12.817475318908691, 13.909459114074707, -91.27107238769531, 1.12841796875, -0.629638671875, 0.12548828125
592, 3937220177, -7.461167812347412, -8.01905345916748, 14.473038673400879, -68.39867401123047, -0.526392936706543, -97.73788452148438, 1.1298828125, -0.59423828125, 0.123291015625
593, 3937236844, -8.589884757995605, -1.6910308599472046, 10.07558536529541, -4.525181293487549, -16.18895721435547, -57.88796615600586, 1.1279296875, -0.576904296875, 0.120361328125
594, 3937253511, -8.075701713562012, 0.4460693895816803, 6.486384391784668, 10.867061614990234, -24.143789291381836, -29.699766159057617, 1.123291015625, -0.57177734375, 0.1142578125
595, 3937270178, -9.649628639221191, 4.681692123413086, 2.8340795040130615, 1.4364063739776611, -15.943036079406738, -7.581699371337891, 1.121337890625, -0.56982421875, 0.1103515625
596, 3937286845, -8.088836669921875, 2.6868858337402344, 6.226948261260986, -13.038102149963379, -25.12439727783203, -0.006851415615528822, 1.12109375, -0.56884765625, 0.10595703125
597, 3937303512, -6.59601354598999, 3.132850408554077, 7.089420795440674, -16.047508239746094, -25.28623390197754, -6.6000165939331055, 1.11962890625, -0.567138671875, 0.09814453125
598, 3937320179, -6.788266658782959, 1.8856145143508911, 6.982530117034912, -21.81050682067871, -21.6573429107666, -13.678263664245605, 1.11328125, -0.561279296875, 0.09326171875
599, 3937336846, -6.828004360198975, 1.753963589668274, 7.101357460021973, -21.970237731933594, -16.940797805786133, -15.040712356567383, 1.11328125, -0.55615234375, 0.090576171875
600, 3937353513, -6.930087089538574, 1.2708849906921387, 7.0383830070495605, -16.784189224243164, -13.391063690185547, -11.856220245361328, 1.108642578125, -0.552001953125, 0.08642578125
601, 3937370180, -6.832301139831543, 1.1975353956222534, 7.163463592529297, -9.607473373413086, -9.583088874816895, -6.037353515625, 1.107177734375, -0.54931640625, 0.08642578125
602, 3937386847, -6.761909008026123, 1.3826302289962769, 7.113729476928711, -4.239339351654053, -4.091088771820068, -1.7431597709655762, 1.109130859375, -0.54736328125, 0.083740234375
603, 3937403514, -6.8207783699035645, 1.50114905834198, 6.985702037811279, -1.451356291770935, -0.76786869764328, 0.6909985542297363, 1.111083984375, -0.54931640625, 0.082763671875
604, 3937420181, -6.852358818054199, 1.7266335487365723, 6.9275994300842285, -0.963293731212616, 0.231186643242836, 1.4804205894470215, 1.111572265625, -0.55029296875, 0.083984375
605, 3937436848, -6.843592166900635, 1.817176103591919, 6.918386459350586, -1.6133952140808105, -0.18578171730041504, 0.8736555576324463, 1.112548828125, -0.5498046875, 0.08447265625
606, 3937453515, -6.890359401702881, 1.8696421384811401, 6.857463836669922, -3.088571310043335, -2.004974842071533, -0.18708795309066772, 1.111083984375, -0.551513671875, 0.083984375
607, 3937470182, -6.889458656311035, 2.0040342807769775, 6.898466110229492, -4.713582515716553, -3.757652521133423, -1.845651388168335, 1.110107421875, -0.551513671875, 0.082275390625
608, 3937486849, -6.823024272918701, 1.8657000064849854, 6.959505558013916, -5.609630107879639, -3.7760679721832275, -3.5554914474487305, 1.108642578125, -0.54736328125, 0.081298828125
609, 3937503516, -6.815741539001465, 1.6632462739944458, 6.987458229064941, -5.370945453643799, -3.3156797885894775, -3.5868921279907227, 1.109130859375, -0.551025390625, 0.083251953125
610, 3937520183, -6.842922210693359, 1.5726103782653809, 6.992669582366943, -4.325985908508301, -2.468334674835205, -2.7473723888397217, 1.109619140625, -0.54736328125, 0.082763671875
611, 3937536850, -6.8553266525268555, 1.5471233129501343, 6.962381839752197, -3.1912527084350586, -1.9678363800048828, -1.612114429473877, 1.107421875, -0.54833984375, 0.0810546875
612, 3937553517, -6.82401704788208, 1.6574434041976929, 6.985163688659668, -2.1741981506347656, -0.9527155756950378, -0.7003408670425415, 1.107666015625, -0.548828125, 0.083740234375
613, 3937570184, -6.831552505493164, 1.6574822664260864, 6.974593639373779, -1.716819167137146, -0.10263008624315262, -0.3119242489337921, 1.107666015625, -0.54833984375, 0.083251953125
614, 3937586851, -6.8254170417785645, 1.7755093574523926, 6.912082195281982, -1.624613642692566, 0.4629687964916229, -0.5013173818588257, 1.107177734375, -0.552490234375, 0.082763671875
615, 3937603518, -6.836939334869385, 1.800275206565857, 6.9465556144714355, -2.1382763385772705, 0.41531631350517273, -1.2110068798065186, 1.111083984375, -0.550537109375, 0.081298828125
616, 3937620185, -6.827046871185303, 1.7988550662994385, 6.944899082183838, -2.4871726036071777, 0.05539386719465256, -1.880702257156372, 1.111083984375, -0.551513671875, 0.083984375
617, 3937636852, -6.859269618988037, 1.7984719276428223, 6.898786544799805, -2.972738265991211, -0.6324800848960876, -2.4885685443878174, 1.108154296875, -0.551513671875, 0.084716796875
618, 3937653519, -6.843864440917969, 1.7685209512710571, 6.921132564544678, -3.2753779888153076, -1.8073861598968506, -2.797765016555786, 1.108642578125, -0.551513671875, 0.083740234375
619, 3937670186, -6.844081401824951, 1.7741830348968506, 6.926355838775635, -3.5058412551879883, -2.2766876220703125, -3.155113697052002, 1.110107421875, -0.548828125, 0.083740234375
620, 3937686853, -6.836416244506836, 1.709410309791565, 6.947439193725586, -3.5791828632354736, -2.286176919937134, -3.3819525241851807, 1.110107421875, -0.54931640625, 0.083740234375
621, 3937703520, -6.8548197746276855, 1.6633715629577637, 6.920534610748291, -3.2698581218719482, -2.429211139678955, -2.9620063304901123, 1.109619140625, -0.548828125, 0.082275390625
622, 3937720187, -6.857245445251465, 1.6597415208816528, 6.935892581939697, -3.2191834449768066, -2.7232701778411865, -2.7569637298583984, 1.110107421875, -0.55029296875, 0.084228515625
623, 3937736854, -6.830450534820557, 1.7091258764266968, 6.962429523468018, -3.1741952896118164, -3.3847827911376953, -2.405916690826416, 1.107421875, -0.548828125, 0.081787109375
624, 3937753521, -6.816858291625977, 1.715751051902771, 6.953915119171143, -3.1288986206054688, -3.6163341999053955, -2.45328688621521, 1.109619140625, -0.550537109375, 0.082763671875
625, 3937770188, -6.818637847900391, 1.7558921575546265, 6.928747177124023, -3.219721555709839, -3.7392499446868896, -2.638697385787964, 1.107666015625, -0.54931640625, 0.082275390625
626, 3937786855, -6.8055267333984375, 1.720304250717163, 6.9402265548706055, -3.5320427417755127, -3.8790054321289062, -2.998504638671875, 1.1064453125, -0.548828125, 0.081298828125
627, 3937803522, -6.831954479217529, 1.6541603803634644, 6.952174186706543, -3.661937713623047, -4.051980495452881, -2.9640684127807617, 1.1083984375, -0.546875, 0.07958984375
628, 3937820189, -6.806746482849121, 1.6715682744979858, 6.980722427368164, -3.6021573543548584, -4.180876731872559, -2.8752050399780273, 1.109130859375, -0.5478515625, 0.07958984375
629, 3937836856, -6.793495178222656, 1.6961396932601929, 6.989682197570801, -3.681595802307129, -4.229041576385498, -2.9544765949249268, 1.107421875, -0.54638671875, 0.080078125
630, 3937853523, -6.788638591766357, 1.7047014236450195, 6.971401214599609, -3.56211256980896, -4.247725963592529, -2.8941071033477783, 1.10595703125, -0.54833984375, 0.07763671875
631, 3937870190, -6.7873663902282715, 1.6747593879699707, 6.979447364807129, -3.4389536380767822, -3.9454703330993652, -2.988375186920166, 1.10498046875, -0.54541015625, 0.07958984375
632, 3937886857, -6.774026870727539, 1.6194573640823364, 7.00259256362915, -3.1642696857452393, -3.800220489501953, -2.5105953216552734, 1.10400390625, -0.548828125, 0.077392578125
633, 3937903524, -6.796262741088867, 1.6248267889022827, 7.01461124420166, -2.657407522201538, -3.2157516479492188, -2.0472488403320312, 1.10595703125, -0.5478515625, 0.07763671875
634, 3937920191, -6.786164283752441, 1.674691081047058, 6.994450569152832, -2.2649102210998535, -3.131822347640991, -1.6273971796035767, 1.1064453125, -0.5458984375, 0.0771484375
635, 3937936858, -6.789844036102295, 1.6585800647735596, 6.995933532714844, -2.30694842338562, -3.287492275238037, -1.4760981798171997, 1.10546875, -0.54638671875, 0.075927734375
636, 3937953525, -6.774118423461914, 1.697513461112976, 6.988960266113281, -2.1897196769714355, -3.8256537914276123, -1.289945363998413, 1.1064453125, -0.5478515625, 0.075439453125
637, 3937970192, -6.753862380981445, 1.6278995275497437, 7.00342321395874, -2.071171283721924, -4.177854537963867, -0.9974097609519958, 1.10546875, -0.5498046875, 0.073974609375
638, 3937986859, -6.785804271697998, 1.674085021018982, 7.039055824279785, -2.0014536380767822, -4.215479850769043, -0.8485103845596313, 1.103515625, -0.54638671875, 0.073486328125
639, 3938003526, -6.7900543212890625, 1.7149358987808228, 7.004212856292725, -2.160264730453491, -4.205899715423584, -1.0278377532958984, 1.10498046875, -0.54833984375, 0.072998046875
640, 3938020193, -6.759816646575928, 1.7031289339065552, 7.050083160400391, -2.272179365158081, -4.213225364685059, -1.2712736129760742, 1.10595703125, -0.54931640625, 0.073486328125
641, 3938036860, -6.763575077056885, 1.7007938623428345, 7.035144805908203, -2.342857599258423, -3.991008996963501, -1.4264607429504395, 1.1025390625, -0.548828125, 0.074951171875
642, 3938053527, -6.746867656707764, 1.6878695487976074, 7.060672283172607, -2.1739675998687744, -3.2947022914886475, -1.2681487798690796, 1.1025390625, -0.548828125, 0.0732421875
643, 3938070194, -6.753894805908203, 1.6707807779312134, 7.0491156578063965, -2.10113787651062, -2.9744796752929688, -1.4099408388137817, 1.100341796875, -0.54833984375, 0.07421875
644, 3938086861, -6.75771427154541, 1.6126179695129395, 7.055239677429199, -1.9032667875289917, -2.8693268299102783, -1.2010051012039185, 1.1025390625, -0.548828125, 0.07080078125
645, 3938103528, -6.752821922302246, 1.6604526042938232, 7.035396575927734, -1.527759075164795, -2.9559106826782227, -0.5960331559181213, 1.1025390625, -0.548828125, 0.072265625
646, 3938120195, -6.733245372772217, 1.7408334016799927, 7.047651290893555, -1.4236562252044678, -3.009671211242676, -0.5052489042282104, 1.101806640625, -0.54931640625, 0.073486328125
647, 3938136862, -6.74655818939209, 1.7202359437942505, 7.059553623199463, -1.7124652862548828, -3.053610324859619, -0.8195039629936218, 1.101806640625, -0.54931640625, 0.06982421875
648, 3938153529, -6.725459098815918, 1.7345576286315918, 7.042495250701904, -1.8540010452270508, -3.2362165451049805, -1.0402600765228271, 1.101806640625, -0.550048828125, 0.0693359375
649, 3938170196, -6.730431079864502, 1.7391612529754639, 7.072476387023926, -2.142258882522583, -3.367403984069824, -1.347817063331604, 1.1015625, -0.551025390625, 0.0712890625
650, 3938186863, -6.712064743041992, 1.7102044820785522, 7.065670013427734, -2.228522539138794, -3.4740428924560547, -1.4833850860595703, 1.099365234375, -0.551025390625, 0.067626953125
651, 3938203530, -6.699230194091797, 1.71431565284729, 7.065345764160156, -2.224975347518921, -3.374677896499634, -1.4047667980194092, 1.100830078125, -0.551025390625, 0.068115234375
652, 3938220197, -6.712989807128906, 1.7337994575500488, 7.058167934417725, -1.9957802295684814, -3.1509642601013184, -1.2774592638015747, 1.100341796875, -0.552001953125, 0.06982421875
653, 3938236864, -6.700191020965576, 1.7193197011947632, 7.054709434509277, -1.919095516204834, -2.703061819076538, -1.361135721206665, 1.100830078125, -0.552978515625, 0.067138671875
654, 3938253531, -6.710013389587402, 1.7134675979614258, 7.099863052368164, -1.9167391061782837, -2.316194772720337, -1.4186363220214844, 1.098876953125, -0.552001953125, 0.068603515625
