sep=,
DeviceTag:,B,,,,,,,,,,,,,,,,,
FirmwareVersion:,2.2.1,,,,,,,,,,,,,,,,,
AppVersion:,2023.6.1,,,,,,,,,,,,,,,,,
SyncStatus:,Synced,,,,,,,,,,,,,,,,,
OutputRate:,60Hz,,,,,,,,,,,,,,,,,
FilterProfile:,General,,,,,,,,,,,,,,,,,
Measurement Mode:,Inertial Mode - Rate quantities (with mag),,,,,,,,,,,,,,,,,
StartTime:,2023-12-05 15:16:09.596 +0200,,,,,,,,,,,,,,,,,
 2023,,,,,,,,,,,,,,,,,,,

PacketCounter,SampleTimeFine,Acc_X,Acc_Y,Acc_Z,Gyr_X,Gyr_Y,Gyr_Z,Mag_X,Mag_Y,Mag_Z
1, 3927386647, -7.262051105499268, -1.3789660930633545, 6.290408134460449, -0.3684898912906647, -0.6165873408317566, -1.315122365951538, 0.87646484375, 0.289306640625, -0.400146484375
2, 3927403314, -7.251612663269043, -1.3826695680618286, 6.279841899871826, -0.3459763824939728, -0.6375256776809692, -1.400015950202942, 0.87646484375, 0.289306640625, -0.400146484375
3, 3927419981, -7.243484973907471, -1.3823838233947754, 6.275350093841553, -0.24676555395126343, -0.8100273609161377, -1.1799004077911377, 0.873046875, 0.290283203125, -0.39599609375
4, 3927436648, -7.2489237785339355, -1.3817858695983887, 6.289093494415283, -0.16484335064888, -0.805071234703064, -1.0975555181503296, 0.87451171875, 0.290283203125, -0.3974609375
5, 3927453315, -7.2491655349731445, -1.3734534978866577, 6.292294979095459, -0.20683535933494568, -0.831541895866394, -1.1539161205291748, 0.8759765625, 0.290283203125, -0.3994140625
6, 3927469982, -7.237847328186035, -1.361218810081482, 6.287003517150879, -0.1637163609266281, -0.787091076374054, -1.1426976919174194, 0.876953125, 0.291259765625, -0.3994140625
7, 3927486649, -7.2451324462890625, -1.3613297939300537, 6.2987775802612305, -0.20518334209918976, -0.6101585030555725, -1.061198115348816, 0.87451171875, 0.288818359375, -0.399658203125
8, 3927503316, -7.25173282623291, -1.3592817783355713, 6.292781352996826, -0.12826840579509735, -0.8323871493339539, -1.0744142532348633, 0.87744140625, 0.290283203125, -0.401123046875
9, 3927519983, -7.245628833770752, -1.3733903169631958, 6.303692817687988, -0.11756230145692825, -0.8946260213851929, -1.1023706197738647, 0.8759765625, 0.288818359375, -0.39794921875
10, 3927536650, -7.249765396118164, -1.3885077238082886, 6.287961483001709, -0.13309639692306519, -0.8867244124412537, -0.9853078126907349, 0.873046875, 0.290283203125, -0.39892578125
11, 3927553317, -7.243175983428955, -1.3647328615188599, 6.286850452423096, -0.1126062199473381, -0.8693333864212036, -0.982746422290802, 0.87646484375, 0.290283203125, -0.400146484375
12, 3927569984, -7.256634712219238, -1.3682798147201538, 6.294139385223389, -0.23849265277385712, -0.8952406644821167, -0.9625764489173889, 0.8759765625, 0.289794921875, -0.400634765625
13, 3927586651, -7.244195461273193, -1.359409213066101, 6.300573825836182, -0.2050168514251709, -0.7972081303596497, -1.0157612562179565, 0.876708984375, 0.290283203125, -0.3974609375
14, 3927603318, -7.251684188842773, -1.3813831806182861, 6.300581932067871, -0.25809916853904724, -0.7099583745002747, -1.042398452758789, 0.876953125, 0.289306640625, -0.400146484375
15, 3927619985, -7.243130683898926, -1.386576533317566, 6.27870512008667, -0.21596629917621613, -0.6087241768836975, -1.08197021484375, 0.8740234375, 0.288818359375, -0.39892578125
16, 3927636652, -7.262441158294678, -1.378185749053955, 6.297464370727539, -0.18872718513011932, -0.7063854336738586, -1.0578429698944092, 0.8759765625, 0.288330078125, -0.400634765625
17, 3927653319, -7.251132488250732, -1.3694431781768799, 6.292662620544434, -0.193401500582695, -0.7589042782783508, -1.1013845205307007, 0.87646484375, 0.288818359375, -0.39892578125
18, 3927669986, -7.254617691040039, -1.36629056930542, 6.288649082183838, -0.28608107566833496, -0.7029917240142822, -1.162432312965393, 0.8740234375, 0.290283203125, -0.399658203125
19, 3927686653, -7.239602088928223, -1.36813223361969, 6.297364234924316, -0.22895191609859467, -0.6725638508796692, -1.1381770372390747, 0.877685546875, 0.290771484375, -0.3984375
20, 3927703320, -7.251753330230713, -1.3644146919250488, 6.2912468910217285, -0.1924666464328766, -0.5964685678482056, -1.1467317342758179, 0.877197265625, 0.288330078125, -0.39892578125
21, 3927719987, -7.242414951324463, -1.3730171918869019, 6.296351909637451, -0.18957239389419556, -0.8004608750343323, -1.1387277841567993, 0.87548828125, 0.288818359375, -0.3984375
22, 3927736654, -7.242785453796387, -1.3534233570098877, 6.294699668884277, -0.24339750409126282, -0.6688500642776489, -1.1424288749694824, 0.8759765625, 0.290283203125, -0.39892578125
23, 3927753321, -7.24531888961792, -1.3461941480636597, 6.304549694061279, -0.30033448338508606, -0.5919735431671143, -1.093098759651184, 0.87548828125, 0.287353515625, -0.402099609375
24, 3927769988, -7.256695747375488, -1.36913001537323, 6.296602249145508, -0.2527333199977875, -0.5915253162384033, -1.1126925945281982, 0.87744140625, 0.290771484375, -0.39892578125
25, 3927786655, -7.256795883178711, -1.3763874769210815, 6.292666435241699, -0.284672349691391, -0.4714273512363434, -1.0574842691421509, 0.8740234375, 0.291748046875, -0.3984375
26, 3927803322, -7.255442142486572, -1.3653056621551514, 6.28509521484375, -0.1411515772342682, -0.6677999496459961, -1.1097086668014526, 0.87451171875, 0.288818359375, -0.401123046875
27, 3927819989, -7.2476115226745605, -1.3677496910095215, 6.2784600257873535, -0.22047413885593414, -0.7019160985946655, -1.0794216394424438, 0.875, 0.290771484375, -0.399658203125
28, 3927836656, -7.238790512084961, -1.3509701490402222, 6.289882183074951, -0.18762582540512085, -0.6412779092788696, -1.0306421518325806, 0.877197265625, 0.290283203125, -0.3974609375
29, 3927853323, -7.254944324493408, -1.3584216833114624, 6.295518398284912, -0.25791990756988525, -0.6416493654251099, -1.1459890604019165, 0.87548828125, 0.287353515625, -0.400146484375
30, 3927869990, -7.257589340209961, -1.3611844778060913, 6.267653942108154, -0.1812739074230194, -0.6621907353401184, -1.2447515726089478, 0.87548828125, 0.287353515625, -0.3994140625
31, 3927886657, -7.244382858276367, -1.3768272399902344, 6.310276508331299, -0.2614160180091858, -0.7956585884094238, -1.1422879695892334, 0.8759765625, 0.288818359375, -0.3994140625
32, 3927903324, -7.25645637512207, -1.347035527229309, 6.295665740966797, -0.17843087017536163, -0.8724966049194336, -1.1183017492294312, 0.876708984375, 0.289306640625, -0.39794921875
33, 3927919991, -7.252562522888184, -1.3528941869735718, 6.29803991317749, -0.13303236663341522, -0.8786308765411377, -1.1815139055252075, 0.87451171875, 0.288330078125, -0.3994140625
34, 3927936658, -7.264744281768799, -1.366755723953247, 6.288975715637207, -0.18342533707618713, -0.9139379262924194, -1.1498820781707764, 0.877197265625, 0.290771484375, -0.3984375
35, 3927953325, -7.2588396072387695, -1.3666810989379883, 6.286418914794922, -0.19131407141685486, -0.9720019698143005, -1.1377800703048706, 0.87646484375, 0.289794921875, -0.39794921875
36, 3927969992, -7.241102695465088, -1.3618394136428833, 6.29503059387207, -0.17321869730949402, -0.9496293067932129, -1.1684129238128662, 0.87646484375, 0.291259765625, -0.3984375
37, 3927986659, -7.2479939460754395, -1.3638290166854858, 6.282739162445068, -0.19657747447490692, -0.8696792721748352, -1.161920189857483, 0.876953125, 0.290771484375, -0.3984375
38, 3928003326, -7.243494510650635, -1.369978666305542, 6.276844024658203, -0.23094969987869263, -0.684371292591095, -1.1984566450119019, 0.875, 0.287353515625, -0.401123046875
39, 3928019993, -7.2618513107299805, -1.361804485321045, 6.291624069213867, -0.24976225197315216, -0.6408425569534302, -1.155273675918579, 0.87353515625, 0.289794921875, -0.39794921875
40, 3928036660, -7.244059085845947, -1.3941271305084229, 6.29310941696167, -0.3220925033092499, -0.6791335344314575, -1.2563540935516357, 0.87548828125, 0.289794921875, -0.39892578125
41, 3928053327, -7.26177978515625, -1.3733956813812256, 6.296921253204346, -0.23242245614528656, -0.68128502368927, -1.1343225240707397, 0.87646484375, 0.288330078125, -0.399658203125
42, 3928069994, -7.265359878540039, -1.3677445650100708, 6.286038398742676, -0.29179269075393677, -0.6075589060783386, -1.1971375942230225, 0.876220703125, 0.288330078125, -0.39892578125
43, 3928086661, -7.255867958068848, -1.3668793439865112, 6.305294036865234, -0.23472753167152405, -0.6421103477478027, -1.189210295677185, 0.87646484375, 0.288818359375, -0.400634765625
44, 3928103328, -7.244657039642334, -1.3738107681274414, 6.2906389236450195, -0.2622356414794922, -0.6390753388404846, -1.143005132675171, 0.87646484375, 0.291259765625, -0.401611328125
45, 3928119995, -7.2589826583862305, -1.3852890729904175, 6.285353660583496, -0.28045907616615295, -0.6706685423851013, -1.0858376026153564, 0.8740234375, 0.289306640625, -0.399658203125
46, 3928136662, -7.240609645843506, -1.3653780221939087, 6.291286945343018, -0.0959836021065712, -0.7414236664772034, -1.0961852073669434, 0.87451171875, 0.289306640625, -0.39794921875
47, 3928153329, -7.253052711486816, -1.3665378093719482, 6.292054176330566, -0.12765368819236755, -0.8675405979156494, -1.0712255239486694, 0.876220703125, 0.289306640625, -0.3974609375
48, 3928169996, -7.2623443603515625, -1.371638298034668, 6.280742168426514, -0.08765947073698044, -0.8583200573921204, -1.0353549718856812, 0.878173828125, 0.290283203125, -0.400634765625
49, 3928186663, -7.2446160316467285, -1.356272578239441, 6.261867046356201, -0.03643406555056572, -0.8597159385681152, -0.9523826837539673, 0.875732421875, 0.288818359375, -0.39697265625
50, 3928203330, -7.255552291870117, -1.362492561340332, 6.302901744842529, -0.07889992743730545, -0.8861609101295471, -0.9957706332206726, 0.877685546875, 0.287841796875, -0.3984375
51, 3928219997, -7.2633466720581055, -1.3644554615020752, 6.265681743621826, -0.022026922553777695, -0.7602745294570923, -0.995309591293335, 0.8740234375, 0.288330078125, -0.3984375
52, 3928236664, -7.239671230316162, -1.3646906614303589, 6.293065071105957, -0.024780288338661194, -0.867514967918396, -0.9365284442901611, 0.87451171875, 0.289306640625, -0.399658203125
53, 3928253331, -7.264966011047363, -1.3600969314575195, 6.315671920776367, -0.08147399872541428, -0.8440024256706238, -0.9651504755020142, 0.877197265625, 0.288818359375, -0.400634765625
54, 3928269998, -7.25300407409668, -1.3632899522781372, 6.309128761291504, -0.14277797937393188, -0.86500483751297, -1.015915036201477, 0.87646484375, 0.288330078125, -0.399658203125
55, 3928286665, -7.245904922485352, -1.35543954372406, 6.300592422485352, -0.196769580245018, -0.7437288165092468, -1.0439225435256958, 0.877685546875, 0.290283203125, -0.3984375
56, 3928303332, -7.246417045593262, -1.355012059211731, 6.317873477935791, -0.16982501745224, -0.6767772436141968, -1.0537065267562866, 0.87548828125, 0.288330078125, -0.3994140625
57, 3928319999, -7.241612434387207, -1.3635075092315674, 6.298043727874756, -0.27972912788391113, -0.7214329838752747, -1.0464837551116943, 0.8740234375, 0.287841796875, -0.3955078125
58, 3928336666, -7.235746383666992, -1.3604342937469482, 6.289206504821777, -0.17852051556110382, -0.7172324061393738, -1.0828791856765747, 0.8759765625, 0.289306640625, -0.399658203125
59, 3928353333, -7.252696514129639, -1.355024814605713, 6.298186302185059, -0.13528627157211304, -0.7373256087303162, -1.0461121797561646, 0.87646484375, 0.288818359375, -0.400146484375
60, 3928370000, -7.248520374298096, -1.3734145164489746, 6.281923770904541, -0.1365797370672226, -0.794326663017273, -0.9204692840576172, 0.87451171875, 0.288330078125, -0.39892578125
61, 3928386667, -7.244859218597412, -1.3540781736373901, 6.29849100112915, -0.08631480485200882, -0.8730984330177307, -0.8975971341133118, 0.8759765625, 0.289306640625, -0.400634765625
62, 3928403334, -7.2534260749816895, -1.3539505004882812, 6.276294708251953, -0.08472680300474167, -0.9287803173065186, -0.9665207862854004, 0.8759765625, 0.288330078125, -0.3984375
63, 3928420001, -7.255507946014404, -1.3582359552383423, 6.280843257904053, -0.05709070339798927, -1.0363410711288452, -0.951575756072998, 0.875, 0.288330078125, -0.3994140625
64, 3928436668, -7.246172904968262, -1.362628698348999, 6.286810398101807, 0.06183544918894768, -1.082674264907837, -0.905383288860321, 0.87451171875, 0.287353515625, -0.399658203125
65, 3928453335, -7.252730369567871, -1.3538230657577515, 6.2922892570495605, 0.07702378183603287, -1.1496387720108032, -0.8257662057876587, 0.877197265625, 0.286865234375, -0.401123046875
66, 3928470002, -7.253689765930176, -1.3417637348175049, 6.300169944763184, 0.15241478383541107, -1.2994475364685059, -0.86622154712677, 0.8759765625, 0.287841796875, -0.3994140625
67, 3928486669, -7.247363567352295, -1.3366951942443848, 6.277971267700195, 0.12891513109207153, -1.248952031135559, -0.8142148852348328, 0.878662109375, 0.288818359375, -0.400146484375
68, 3928503336, -7.256377220153809, -1.3566668033599854, 6.288328647613525, 0.257516473531723, -1.3290941715240479, -0.8943442702293396, 0.876220703125, 0.286865234375, -0.401123046875
69, 3928520003, -7.256598472595215, -1.3486262559890747, 6.294559955596924, 0.12221740186214447, -1.4013606309890747, -0.8022410273551941, 0.875, 0.288330078125, -0.401611328125
70, 3928536670, -7.2264227867126465, -1.3344862461090088, 6.298464298248291, 0.20246200263500214, -1.4297137260437012, -0.8625973463058472, 0.8740234375, 0.287353515625, -0.401611328125
71, 3928553337, -7.236943244934082, -1.3318898677825928, 6.291736602783203, 0.13534390926361084, -1.3731353282928467, -0.9897645115852356, 0.87353515625, 0.28662109375, -0.399658203125
72, 3928570004, -7.252327919006348, -1.3299182653427124, 6.32190465927124, 0.0117818433791399, -1.3025466203689575, -1.0820213556289673, 0.877197265625, 0.286376953125, -0.39990234375
73, 3928586671, -7.237037181854248, -1.3460745811462402, 6.310640811920166, 0.007165153045207262, -1.211877703666687, -1.0621330738067627, 0.87646484375, 0.287841796875, -0.400634765625
74, 3928603338, -7.241616725921631, -1.3364959955215454, 6.318019390106201, -0.1304710954427719, -1.0699706077575684, -1.1186603307724, 0.8759765625, 0.288330078125, -0.3994140625
75, 3928620005, -7.240845203399658, -1.356500506401062, 6.301438331604004, -0.09644462913274765, -1.0698425769805908, -1.1476538181304932, 0.87353515625, 0.287109375, -0.401123046875
76, 3928636672, -7.252392768859863, -1.3178378343582153, 6.321101665496826, -0.09723862260580063, -1.08108651638031, -1.1222845315933228, 0.87451171875, 0.287841796875, -0.399658203125
77, 3928653339, -7.250101089477539, -1.3374738693237305, 6.3272705078125, -0.2442810982465744, -1.0486863851547241, -1.2245559692382812, 0.876708984375, 0.286865234375, -0.400634765625
78, 3928670006, -7.233676433563232, -1.341370940208435, 6.304497241973877, -0.17444811761379242, -1.038697600364685, -1.2810064554214478, 0.8759765625, 0.287841796875, -0.402587890625
79, 3928686673, -7.238795757293701, -1.342944860458374, 6.331970691680908, -0.2736332416534424, -0.9881122708320618, -1.326468825340271, 0.87548828125, 0.286865234375, -0.3994140625
80, 3928703340, -7.226522922515869, -1.340360164642334, 6.298279762268066, -0.24691924452781677, -0.8347434997558594, -1.2726949453353882, 0.87451171875, 0.286865234375, -0.400146484375
81, 3928720007, -7.242753982543945, -1.34316086769104, 6.3005194664001465, -0.3041508197784424, -0.5756710767745972, -1.1827049255371094, 0.87353515625, 0.2861328125, -0.402099609375
82, 3928736674, -7.25234317779541, -1.3424818515777588, 6.3340606689453125, -0.2887575924396515, -0.4761401116847992, -1.1153947114944458, 0.875732421875, 0.2861328125, -0.401123046875
83, 3928753341, -7.235830307006836, -1.3310627937316895, 6.31395959854126, -0.3077365756034851, -0.4553297758102417, -0.9975889325141907, 0.87451171875, 0.28466796875, -0.401123046875
84, 3928770008, -7.24656867980957, -1.3302383422851562, 6.296554088592529, -0.16557328402996063, -0.5512365102767944, -1.0302963256835938, 0.875732421875, 0.28564453125, -0.400146484375
85, 3928786675, -7.245024681091309, -1.3396424055099487, 6.323607444763184, -0.22687730193138123, -0.530733585357666, -1.1238597631454468, 0.877197265625, 0.28515625, -0.400634765625
86, 3928803342, -7.24259090423584, -1.339766502380371, 6.315202713012695, -0.09918517619371414, -0.6368085145950317, -0.9565061926841736, 0.876708984375, 0.2861328125, -0.400146484375
87, 3928820009, -7.238227844238281, -1.31229829788208, 6.300833225250244, -0.24229615926742554, -0.5238950252532959, -1.0695351362228394, 0.87451171875, 0.287353515625, -0.400634765625
88, 3928836676, -7.257624626159668, -1.3155990839004517, 6.304051399230957, -0.29197198152542114, -0.4883061349391937, -1.1922839879989624, 0.8720703125, 0.28564453125, -0.402099609375
89, 3928853343, -7.2456841468811035, -1.339961290359497, 6.3034844398498535, -0.3237573206424713, -0.6469383239746094, -1.2891768217086792, 0.87353515625, 0.2861328125, -0.400634765625
90, 3928870010, -7.249405384063721, -1.340833306312561, 6.290905952453613, -0.2919207513332367, -0.6070337891578674, -1.3334097862243652, 0.878173828125, 0.28564453125, -0.400634765625
91, 3928886677, -7.24876594543457, -1.3382720947265625, 6.3109893798828125, -0.333759069442749, -0.6759575009346008, -1.3284410238265991, 0.8759765625, 0.288818359375, -0.400634765625
92, 3928903344, -7.230114936828613, -1.331585168838501, 6.2836995124816895, -0.34767958521842957, -0.7756933569908142, -1.2945938110351562, 0.876708984375, 0.286376953125, -0.402099609375
93, 3928920011, -7.247683048248291, -1.3447214365005493, 6.30521821975708, -0.35369858145713806, -0.7909201979637146, -1.3468694686889648, 0.875, 0.286865234375, -0.401123046875
94, 3928936678, -7.236502647399902, -1.3418209552764893, 6.318806171417236, -0.22213895618915558, -0.6316220164299011, -1.4703227281570435, 0.87451171875, 0.288818359375, -0.399658203125
95, 3928953345, -7.248295307159424, -1.3457101583480835, 6.309300899505615, -0.3133201599121094, -0.6346315145492554, -1.4274085760116577, 0.8759765625, 0.287841796875, -0.400634765625
96, 3928970012, -7.240462303161621, -1.3645802736282349, 6.299418926239014, -0.37675002217292786, -0.5899757742881775, -1.3735450506210327, 0.8759765625, 0.288330078125, -0.402099609375
97, 3928986679, -7.246476173400879, -1.3463287353515625, 6.283901691436768, -0.3270421326160431, -0.6370839476585388, -1.3837965726852417, 0.877685546875, 0.285888671875, -0.402099609375
98, 3929003346, -7.229180335998535, -1.3543657064437866, 6.340815544128418, -0.2845890522003174, -0.6701626181602478, -1.2514684200286865, 0.87451171875, 0.28662109375, -0.3994140625
99, 3929020013, -7.245059013366699, -1.3431422710418701, 6.304464340209961, -0.28876399993896484, -0.6276584267616272, -1.2333731651306152, 0.877197265625, 0.288818359375, -0.400634765625
100, 3929036680, -7.250511646270752, -1.3376760482788086, 6.302114009857178, -0.2625429630279541, -0.670886218547821, -1.1878145933151245, 0.8759765625, 0.286865234375, -0.400634765625
101, 3929053347, -7.240594863891602, -1.3454298973083496, 6.31074857711792, -0.23276817798614502, -0.7120074033737183, -1.3254443407058716, 0.87451171875, 0.287841796875, -0.39794921875
102, 3929070014, -7.2375569343566895, -1.3347876071929932, 6.287574768066406, -0.23931224644184113, -0.7528212666511536, -1.2850532531738281, 0.877197265625, 0.286376953125, -0.400146484375
103, 3929086681, -7.235501766204834, -1.3523236513137817, 6.3136210441589355, -0.24594596028327942, -0.8422224521636963, -1.2254525423049927, 0.876953125, 0.286376953125, -0.404052734375
104, 3929103348, -7.243572235107422, -1.3463057279586792, 6.305313587188721, -0.1956425905227661, -0.8638907074928284, -1.2469799518585205, 0.87451171875, 0.28515625, -0.39990234375
105, 3929120015, -7.250715732574463, -1.341591238975525, 6.312314987182617, -0.19314536452293396, -0.8774398565292358, -1.1838958263397217, 0.87451171875, 0.288330078125, -0.399658203125
106, 3929136682, -7.2449822425842285, -1.330479383468628, 6.29762601852417, -0.2932654023170471, -0.6973313689231873, -1.2045525312423706, 0.8740234375, 0.287841796875, -0.3994140625
107, 3929153349, -7.251151084899902, -1.342637300491333, 6.299154758453369, -0.31302565336227417, -0.6176502704620361, -1.2532294988632202, 0.87451171875, 0.289306640625, -0.39697265625
108, 3929170016, -7.253200054168701, -1.3441498279571533, 6.290143966674805, -0.37094876170158386, -0.5245993733406067, -1.2677903175354004, 0.878662109375, 0.288330078125, -0.400146484375
109, 3929186683, -7.245570182800293, -1.3607372045516968, 6.300822734832764, -0.1549440324306488, -0.6842688918113708, -1.2463266849517822, 0.877685546875, 0.288818359375, -0.400634765625
110, 3929203350, -7.240616798400879, -1.3442636728286743, 6.310784339904785, -0.24421709775924683, -0.7185130715370178, -1.213465690612793, 0.876220703125, 0.286865234375, -0.39990234375
111, 3929220017, -7.251054286956787, -1.3451071977615356, 6.31848669052124, -0.1935935765504837, -0.8332195281982422, -1.244956374168396, 0.8759765625, 0.287841796875, -0.400634765625
112, 3929236684, -7.250823974609375, -1.3589115142822266, 6.299981117248535, -0.22628822922706604, -0.8294545412063599, -1.2228655815124512, 0.8759765625, 0.287841796875, -0.400146484375
113, 3929253351, -7.240702152252197, -1.3472696542739868, 6.286968231201172, -0.23750656843185425, -0.8286476731300354, -1.1100801229476929, 0.875732421875, 0.2861328125, -0.400146484375
114, 3929270018, -7.238567352294922, -1.3418337106704712, 6.304125785827637, -0.21346904337406158, -0.706513524055481, -1.1591027975082397, 0.877197265625, 0.288330078125, -0.400634765625
115, 3929286685, -7.239336967468262, -1.3463815450668335, 6.294623374938965, -0.251247763633728, -0.6814386248588562, -1.1105793714523315, 0.877685546875, 0.286376953125, -0.400634765625
116, 3929303352, -7.2415771484375, -1.3387967348098755, 6.278064727783203, -0.1533176153898239, -0.7134801745414734, -1.1558499336242676, 0.87451171875, 0.287841796875, -0.400146484375
117, 3929320019, -7.254995822906494, -1.3393021821975708, 6.295755386352539, -0.11802330613136292, -0.862686812877655, -1.049301028251648, 0.87353515625, 0.2861328125, -0.3994140625
118, 3929336686, -7.249654769897461, -1.341749668121338, 6.307152271270752, -0.0819094181060791, -0.9722581505775452, -1.074657678604126, 0.87646484375, 0.288818359375, -0.39892578125
119, 3929353353, -7.240645408630371, -1.3465776443481445, 6.310356616973877, -0.14788775146007538, -0.8383036851882935, -1.0956217050552368, 0.875, 0.288818359375, -0.39892578125
120, 3929370020, -7.2431721687316895, -1.3428930044174194, 6.32856559753418, -0.13523505628108978, -0.8377145528793335, -1.0801644325256348, 0.87646484375, 0.288330078125, -0.400634765625
121, 3929386687, -7.24275541305542, -1.3450608253479004, 6.285549640655518, -0.3362947404384613, -0.7023642659187317, -1.1721138954162598, 0.877685546875, 0.286376953125, -0.39892578125
122, 3929403354, -7.244844436645508, -1.3393909931182861, 6.302023887634277, -0.20346727967262268, -0.8944211006164551, -1.1143317222595215, 0.87548828125, 0.287841796875, -0.402587890625
123, 3929420021, -7.242701053619385, -1.3411885499954224, 6.287443161010742, -0.1706574261188507, -0.869384765625, -1.0827128887176514, 0.8740234375, 0.287353515625, -0.400634765625
124, 3929436688, -7.249416828155518, -1.3410847187042236, 6.283953666687012, -0.1390257477760315, -0.8697688579559326, -1.1039586067199707, 0.8740234375, 0.288330078125, -0.401611328125
125, 3929453355, -7.225222110748291, -1.3394190073013306, 6.302870750427246, -0.10744527727365494, -0.7838895320892334, -1.1904654502868652, 0.877685546875, 0.285888671875, -0.3984375
126, 3929470022, -7.23460578918457, -1.337270975112915, 6.286006450653076, -0.17241188883781433, -0.7558436393737793, -1.1883397102355957, 0.878662109375, 0.289306640625, -0.402099609375
127, 3929486689, -7.260463714599609, -1.3463178873062134, 6.313117027282715, -0.12253115326166153, -0.8892858028411865, -1.163764238357544, 0.87451171875, 0.28662109375, -0.400634765625
128, 3929503356, -7.249655246734619, -1.345680832862854, 6.286489963531494, -0.09038722515106201, -0.9683650135993958, -1.1119370460510254, 0.87548828125, 0.2861328125, -0.400146484375
129, 3929520023, -7.24470853805542, -1.3334217071533203, 6.301917552947998, -0.07469943165779114, -0.9563013315200806, -1.068177580833435, 0.87451171875, 0.287353515625, -0.401611328125
130, 3929536690, -7.259149074554443, -1.337172269821167, 6.313815116882324, -0.06239253655076027, -0.9188940525054932, -1.0620561838150024, 0.875732421875, 0.286376953125, -0.400634765625
131, 3929553357, -7.2408061027526855, -1.3391687870025635, 6.307797908782959, -0.07932253181934357, -1.0706493854522705, -1.0783586502075195, 0.87353515625, 0.28662109375, -0.402587890625
132, 3929570024, -7.2559685707092285, -1.3312183618545532, 6.288321018218994, -0.10890520364046097, -0.9963981509208679, -1.2125179767608643, 0.87451171875, 0.28564453125, -0.400146484375
133, 3929586691, -7.239556789398193, -1.3430761098861694, 6.311384201049805, -0.12410634011030197, -0.8864811658859253, -1.189517855644226, 0.876708984375, 0.2861328125, -0.401123046875
134, 3929603358, -7.245237827301025, -1.3460521697998047, 6.289037704467773, -0.2149161696434021, -0.8588963747024536, -1.2037073373794556, 0.875, 0.28662109375, -0.401611328125
135, 3929620025, -7.225536346435547, -1.3502660989761353, 6.309446811676025, -0.16322974860668182, -0.8776832818984985, -1.1132688522338867, 0.876220703125, 0.2861328125, -0.3994140625
136, 3929636692, -7.24359655380249, -1.3500854969024658, 6.322915077209473, -0.09821189194917679, -0.8035984039306641, -1.0773725509643555, 0.87451171875, 0.2861328125, -0.39990234375
137, 3929653359, -7.235151767730713, -1.3365364074707031, 6.321466445922852, -0.18240085244178772, -0.7768844366073608, -1.0869518518447876, 0.875, 0.28564453125, -0.400146484375
138, 3929670026, -7.236940383911133, -1.3250023126602173, 6.310300827026367, -0.22217735648155212, -0.82481849193573, -1.1064814329147339, 0.87646484375, 0.286865234375, -0.403564453125
139, 3929686693, -7.249688148498535, -1.3205909729003906, 6.324385643005371, -0.19213367998600006, -0.7665497064590454, -1.105713129043579, 0.87548828125, 0.287353515625, -0.401611328125
140, 3929703360, -7.2417311668396, -1.3223658800125122, 6.310542106628418, -0.31093817949295044, -0.6798507571220398, -1.2573530673980713, 0.8740234375, 0.28662109375, -0.401611328125
141, 3929720027, -7.241228103637695, -1.344249963760376, 6.318568229675293, -0.29510951042175293, -0.609441339969635, -1.3012019395828247, 0.8740234375, 0.28515625, -0.39990234375
142, 3929736694, -7.225109577178955, -1.3538181781768799, 6.293030261993408, -0.19465650618076324, -0.6884564757347107, -1.151431679725647, 0.87451171875, 0.286865234375, -0.402099609375
143, 3929753361, -7.2509918212890625, -1.345205545425415, 6.291195392608643, -0.19274836778640747, -0.8183897733688354, -1.094007968902588, 0.875732421875, 0.2861328125, -0.400634765625
144, 3929770028, -7.25349760055542, -1.3308180570602417, 6.285784721374512, -0.15042339265346527, -0.7505801916122437, -1.0878738164901733, 0.877685546875, 0.287841796875, -0.403076171875
145, 3929786695, -7.251626491546631, -1.3242849111557007, 6.302972316741943, -0.25772780179977417, -0.7967215180397034, -1.024405598640442, 0.877197265625, 0.287353515625, -0.400634765625
146, 3929803362, -7.244120121002197, -1.3402475118637085, 6.297623157501221, -0.2518496811389923, -0.7485182881355286, -1.1355646848678589, 0.876708984375, 0.287353515625, -0.401611328125
147, 3929820029, -7.260638236999512, -1.324000358581543, 6.307638168334961, -0.29971984028816223, -0.6574651598930359, -1.1345018148422241, 0.87451171875, 0.288818359375, -0.401611328125
148, 3929836696, -7.2455549240112305, -1.3549906015396118, 6.320084571838379, -0.26710206270217896, -0.7219067811965942, -1.1043684482574463, 0.87451171875, 0.286865234375, -0.400146484375
149, 3929853363, -7.251552581787109, -1.3284722566604614, 6.304434299468994, -0.18119704723358154, -0.804981529712677, -1.1400597095489502, 0.8740234375, 0.2861328125, -0.399658203125
150, 3929870030, -7.2380690574646, -1.3332065343856812, 6.306421279907227, -0.10671531409025192, -0.8314394950866699, -1.132401466369629, 0.87646484375, 0.287353515625, -0.401123046875
151, 3929886697, -7.233992099761963, -1.3388535976409912, 6.2979936599731445, -0.2832636535167694, -0.7218427062034607, -1.1350653171539307, 0.8740234375, 0.287353515625, -0.400634765625
152, 3929903364, -7.237663269042969, -1.333635687828064, 6.312633037567139, -0.1833869218826294, -0.7400277256965637, -1.1524817943572998, 0.87548828125, 0.28564453125, -0.402099609375
153, 3929920031, -7.241599082946777, -1.3294332027435303, 6.305238246917725, -0.2589828073978424, -0.6087113618850708, -1.1145622730255127, 0.87451171875, 0.287353515625, -0.402099609375
154, 3929936698, -7.230767250061035, -1.3368360996246338, 6.28584098815918, -0.2139044553041458, -0.7471736073493958, -1.051145076751709, 0.875732421875, 0.28564453125, -0.401611328125
155, 3929953365, -7.245970726013184, -1.3364715576171875, 6.320396900177002, -0.25281018018722534, -0.7647184133529663, -1.0996941328048706, 0.8759765625, 0.286865234375, -0.400146484375
156, 3929970032, -7.250354766845703, -1.3259754180908203, 6.298807144165039, -0.2447933703660965, -0.8066591024398804, -1.1853300333023071, 0.876708984375, 0.287353515625, -0.400634765625
157, 3929986699, -7.2513251304626465, -1.3266199827194214, 6.3135762214660645, -0.195245623588562, -0.8513789772987366, -1.1360129117965698, 0.8759765625, 0.286865234375, -0.401611328125
158, 3930003366, -7.250416278839111, -1.327877163887024, 6.317788600921631, -0.3339512050151825, -0.7270677089691162, -1.234096646308899, 0.876708984375, 0.286865234375, -0.401611328125
159, 3930020033, -7.248863697052002, -1.3344273567199707, 6.302267551422119, -0.289385050535202, -0.6737163662910461, -1.2874479293823242, 0.875, 0.286865234375, -0.402587890625
160, 3930036700, -7.236981391906738, -1.3426859378814697, 6.2844319343566895, -0.3764938414096832, -0.6805934309959412, -1.1808478832244873, 0.875, 0.287841796875, -0.401123046875
161, 3930053367, -7.237667560577393, -1.33974027633667, 6.294600963592529, -0.3516111671924591, -0.5479453206062317, -1.1531990766525269, 0.877685546875, 0.286376953125, -0.3974609375
162, 3930070034, -7.237128734588623, -1.351206660270691, 6.313867568969727, -0.24293646216392517, -0.7297953963279724, -1.1988919973373413, 0.876220703125, 0.287353515625, -0.400146484375
163, 3930086701, -7.252621650695801, -1.3460235595703125, 6.326055526733398, -0.2007523477077484, -0.7542171478271484, -1.061774492263794, 0.8759765625, 0.287841796875, -0.399658203125
164, 3930103368, -7.245248794555664, -1.3335009813308716, 6.300715923309326, -0.24015745520591736, -0.7791383266448975, -1.1041505336761475, 0.87548828125, 0.28564453125, -0.401611328125
165, 3930120035, -7.249659538269043, -1.3163586854934692, 6.320281505584717, -0.14553135633468628, -0.7229056358337402, -1.1443370580673218, 0.87451171875, 0.286865234375, -0.401123046875
166, 3930136702, -7.241884231567383, -1.3360512256622314, 6.310262680053711, -0.2659110426902771, -0.652906060218811, -1.244072675704956, 0.87646484375, 0.286376953125, -0.403076171875
167, 3930153369, -7.244965076446533, -1.3388547897338867, 6.3276495933532715, -0.26336896419525146, -0.5686979293823242, -1.2436566352844238, 0.876708984375, 0.287841796875, -0.400146484375
168, 3930170036, -7.252804756164551, -1.3526777029037476, 6.295703887939453, -0.213846817612648, -0.6106515526771545, -1.2067614793777466, 0.877197265625, 0.28564453125, -0.401123046875
169, 3930186703, -7.251459121704102, -1.3315671682357788, 6.3198113441467285, -0.2685747742652893, -0.5443211197853088, -1.1384590864181519, 0.876220703125, 0.28515625, -0.3994140625
170, 3930203370, -7.245237350463867, -1.3370888233184814, 6.307005405426025, -0.2357393056154251, -0.652790904045105, -1.1039713621139526, 0.87451171875, 0.28662109375, -0.400634765625
171, 3930220037, -7.254950046539307, -1.3209189176559448, 6.314123153686523, -0.2514270842075348, -0.7000719308853149, -1.1386253833770752, 0.8740234375, 0.288330078125, -0.402587890625
172, 3930236704, -7.2480034828186035, -1.3249112367630005, 6.29918098449707, -0.241322860121727, -0.5605723857879639, -1.2232881784439087, 0.8740234375, 0.288330078125, -0.401123046875
173, 3930253371, -7.242384433746338, -1.3454910516738892, 6.3065385818481445, -0.30951666831970215, -0.6091212630271912, -1.1984822750091553, 0.8740234375, 0.28662109375, -0.39892578125
174, 3930270038, -7.245323181152344, -1.3399955034255981, 6.29372501373291, -0.3558885157108307, -0.5839311480522156, -1.1304421424865723, 0.877197265625, 0.286865234375, -0.400146484375
175, 3930286705, -7.250253200531006, -1.325366497039795, 6.307296276092529, -0.2553330361843109, -0.6867533326148987, -1.1106563806533813, 0.875732421875, 0.2861328125, -0.400634765625
176, 3930303372, -7.25325870513916, -1.327558994293213, 6.307246208190918, -0.20677132904529572, -0.619840145111084, -1.1960234642028809, 0.875244140625, 0.28515625, -0.400146484375
177, 3930320039, -7.250789642333984, -1.3214945793151855, 6.298281192779541, -0.16609835624694824, -0.7509259581565857, -1.1157020330429077, 0.876708984375, 0.287353515625, -0.401611328125
178, 3930336706, -7.246128082275391, -1.3232343196868896, 6.296022415161133, -0.23217913508415222, -0.7910866737365723, -1.1483454704284668, 0.87451171875, 0.2861328125, -0.3994140625
179, 3930353373, -7.257085800170898, -1.325337290763855, 6.298481464385986, -0.19336308538913727, -0.8556819558143616, -1.1316202878952026, 0.875732421875, 0.2861328125, -0.39697265625
180, 3930370040, -7.250082969665527, -1.3346567153930664, 6.324962615966797, -0.30131420493125916, -0.9050951600074768, -1.1692901849746704, 0.87646484375, 0.287353515625, -0.402099609375
181, 3930386707, -7.2479634284973145, -1.3308045864105225, 6.318959712982178, -0.26417577266693115, -0.8165008425712585, -1.2429393529891968, 0.876220703125, 0.28466796875, -0.400634765625
182, 3930403374, -7.230103015899658, -1.3384183645248413, 6.2867231369018555, -0.18515422940254211, -0.7940321564674377, -1.1771981716156006, 0.875732421875, 0.286376953125, -0.39990234375
183, 3930420041, -7.246215343475342, -1.337687373161316, 6.310234069824219, -0.23448427021503448, -0.6567095518112183, -1.254689335823059, 0.87548828125, 0.286865234375, -0.3994140625
184, 3930436708, -7.237870693206787, -1.3265858888626099, 6.303969860076904, -0.24817423522472382, -0.7480060458183289, -1.2470310926437378, 0.876708984375, 0.287841796875, -0.3994140625
185, 3930453375, -7.248649597167969, -1.34861159324646, 6.305922508239746, -0.236341193318367, -0.6592453122138977, -1.1675422191619873, 0.8759765625, 0.2861328125, -0.401611328125
186, 3930470042, -7.246499061584473, -1.340513825416565, 6.305365085601807, -0.2763674259185791, -0.6496726274490356, -1.2012676000595093, 0.877685546875, 0.286376953125, -0.39990234375
187, 3930486709, -7.256421089172363, -1.3347587585449219, 6.303864002227783, -0.29984790086746216, -0.6393827199935913, -1.2530502080917358, 0.878173828125, 0.28564453125, -0.402099609375
188, 3930503376, -7.2501220703125, -1.3275222778320312, 6.310474872589111, -0.2622484564781189, -0.7434342503547668, -1.2020553350448608, 0.876708984375, 0.286865234375, -0.3994140625
189, 3930520043, -7.263187408447266, -1.3315153121948242, 6.302319049835205, -0.3306983709335327, -0.6950902342796326, -1.2021576166152954, 0.875, 0.286865234375, -0.401611328125
190, 3930536710, -7.255177021026611, -1.3377704620361328, 6.29141092300415, -0.30877387523651123, -0.6724997758865356, -1.3377385139465332, 0.8740234375, 0.28564453125, -0.39990234375
191, 3930553377, -7.258479118347168, -1.3486790657043457, 6.302874565124512, -0.2477772831916809, -0.771236777305603, -1.2612718343734741, 0.87353515625, 0.28515625, -0.39990234375
192, 3930570044, -7.259642124176025, -1.3188499212265015, 6.319737434387207, -0.24855202436447144, -0.836273729801178, -1.3834762573242188, 0.876708984375, 0.286376953125, -0.402587890625
193, 3930586711, -7.249182224273682, -1.3452494144439697, 6.301076889038086, -0.271020770072937, -0.7925208806991577, -1.2782657146453857, 0.876708984375, 0.28564453125, -0.400634765625
194, 3930603378, -7.247845649719238, -1.3436287641525269, 6.285672664642334, -0.25658804178237915, -0.7554849982261658, -1.2532037496566772, 0.8759765625, 0.286865234375, -0.404052734375
195, 3930620045, -7.244157314300537, -1.336001992225647, 6.294064521789551, -0.3660951554775238, -0.7310504913330078, -1.2422159910202026, 0.876220703125, 0.2861328125, -0.401123046875
196, 3930636712, -7.238236904144287, -1.347347617149353, 6.300327777862549, -0.2953912913799286, -0.7699177861213684, -1.2668426036834717, 0.8740234375, 0.28662109375, -0.400634765625
197, 3930653379, -7.245473861694336, -1.332466959953308, 6.30562686920166, -0.26190266013145447, -0.7164000272750854, -1.206870436668396, 0.876708984375, 0.2861328125, -0.400634765625
198, 3930670046, -7.245090484619141, -1.3348671197891235, 6.313697338104248, -0.2664233148097992, -0.6937839984893799, -1.2338662147521973, 0.875, 0.287353515625, -0.400634765625
199, 3930686713, -7.238906383514404, -1.343009114265442, 6.309872627258301, -0.20780865848064423, -0.8500599265098572, -1.180361270904541, 0.878173828125, 0.286376953125, -0.401123046875
200, 3930703380, -7.250267505645752, -1.3337713479995728, 6.30063533782959, -0.2409130483865738, -0.8141379952430725, -1.1446315050125122, 0.876220703125, 0.287353515625, -0.400634765625
201, 3930720047, -7.2515716552734375, -1.3429522514343262, 6.2856221199035645, -0.20651517808437347, -0.8979812264442444, -1.1778768301010132, 0.875, 0.28662109375, -0.39990234375
202, 3930736714, -7.256036758422852, -1.332411527633667, 6.29714298248291, -0.16509944200515747, -0.836062490940094, -1.158321499824524, 0.87548828125, 0.287841796875, -0.401611328125
203, 3930753381, -7.244747161865234, -1.3292325735092163, 6.301140308380127, -0.11967533081769943, -0.8616111874580383, -1.1754947900772095, 0.87451171875, 0.286865234375, -0.403564453125
204, 3930770048, -7.250120639801025, -1.322544813156128, 6.303879261016846, -0.17224541306495667, -0.8089130520820618, -1.1631109714508057, 0.877197265625, 0.287353515625, -0.400146484375
205, 3930786715, -7.2403059005737305, -1.34469473361969, 6.294600009918213, -0.2085770219564438, -0.656952977180481, -1.1552609205245972, 0.875732421875, 0.28564453125, -0.39990234375
206, 3930803382, -7.2393951416015625, -1.335070013999939, 6.283674240112305, -0.2726215720176697, -0.6728455424308777, -1.094430685043335, 0.876220703125, 0.286376953125, -0.400634765625
207, 3930820049, -7.241608142852783, -1.3335040807724, 6.283199787139893, -0.22234386205673218, -0.729705810546875, -1.0866060256958008, 0.87353515625, 0.287109375, -0.400146484375
208, 3930836716, -7.254342555999756, -1.3357945680618286, 6.279027938842773, -0.08224238455295563, -0.7909842729568481, -1.0834811925888062, 0.87451171875, 0.28564453125, -0.400634765625
209, 3930853383, -7.252771854400635, -1.3234657049179077, 6.292613506317139, -0.12062300741672516, -0.9277176260948181, -1.1177127361297607, 0.8759765625, 0.286865234375, -0.400146484375
210, 3930870050, -7.2455854415893555, -1.334853172302246, 6.306077003479004, -0.14674796164035797, -0.8255357146263123, -1.121349573135376, 0.877197265625, 0.28564453125, -0.401123046875
211, 3930886717, -7.254509925842285, -1.335504412651062, 6.306666851043701, -0.22909922897815704, -0.7091580629348755, -1.1644749641418457, 0.878173828125, 0.28466796875, -0.400634765625
212, 3930903384, -7.245113849639893, -1.3328765630722046, 6.316250324249268, -0.44131961464881897, -0.6316732168197632, -1.2930954694747925, 0.8759765625, 0.287353515625, -0.402587890625
213, 3930920051, -7.239203453063965, -1.3384411334991455, 6.305901050567627, -0.4998318552970886, -0.43457069993019104, -1.2835549116134644, 0.87646484375, 0.288330078125, -0.401123046875
214, 3930936718, -7.251379489898682, -1.3357160091400146, 6.291236877441406, -0.5686722993850708, -0.26949039101600647, -1.315807580947876, 0.8740234375, 0.287353515625, -0.3994140625
215, 3930953385, -7.249104022979736, -1.3614979982376099, 6.279759407043457, -0.5262641310691833, -0.3547615110874176, -1.3636329174041748, 0.876708984375, 0.28515625, -0.401611328125
216, 3930970052, -7.250804424285889, -1.3334014415740967, 6.295727252960205, -0.3616897463798523, -0.3880068063735962, -1.1778384447097778, 0.877197265625, 0.2861328125, -0.402099609375
217, 3930986719, -7.257137775421143, -1.3620084524154663, 6.290177345275879, -0.387622594833374, -0.45489439368247986, -1.17020583152771, 0.8759765625, 0.287841796875, -0.400634765625
218, 3931003386, -7.253338813781738, -1.352981686592102, 6.293776512145996, -0.35366013646125793, -0.5134578347206116, -1.0917798280715942, 0.876220703125, 0.286376953125, -0.39892578125
219, 3931020053, -7.247461318969727, -1.3305801153182983, 6.309090614318848, -0.37285688519477844, -0.4700826406478882, -1.1238341331481934, 0.875244140625, 0.2861328125, -0.3994140625
220, 3931036720, -7.271268367767334, -1.3312160968780518, 6.276727676391602, -0.4764346182346344, -0.47160664200782776, -1.2434964179992676, 0.87548828125, 0.287841796875, -0.401123046875
221, 3931053387, -7.2661824226379395, -1.3269180059432983, 6.271583080291748, -0.4448029100894928, -0.4623604714870453, -1.245827317237854, 0.87451171875, 0.286865234375, -0.39892578125
222, 3931070054, -7.258516311645508, -1.3398247957229614, 6.309794902801514, -0.37257516384124756, -0.5347035527229309, -1.2391552925109863, 0.877685546875, 0.285888671875, -0.401611328125
223, 3931086721, -7.2480549812316895, -1.3509272336959839, 6.294241428375244, -0.2945972681045532, -0.5285308957099915, -1.1614718437194824, 0.879150390625, 0.287841796875, -0.400634765625
224, 3931103388, -7.256808757781982, -1.3362401723861694, 6.288577556610107, -0.2603274881839752, -0.5746464729309082, -1.1706539392471313, 0.878173828125, 0.285888671875, -0.39892578125
225, 3931120055, -7.245182514190674, -1.3324263095855713, 6.294737815856934, -0.23320363461971283, -0.5950726866722107, -1.222647786140442, 0.876708984375, 0.287353515625, -0.39892578125
226, 3931136722, -7.247554302215576, -1.3363343477249146, 6.31023645401001, -0.30564916133880615, -0.5065807700157166, -1.2385276556015015, 0.87353515625, 0.28662109375, -0.3994140625
227, 3931153389, -7.259878635406494, -1.330875039100647, 6.3383073806762695, -0.3323119878768921, -0.5515183210372925, -1.2396419048309326, 0.876220703125, 0.286376953125, -0.3994140625
228, 3931170056, -7.250380039215088, -1.3463958501815796, 6.285179138183594, -0.2935919463634491, -0.6115095615386963, -1.2958168983459473, 0.876708984375, 0.286376953125, -0.39990234375
229, 3931186723, -7.253461837768555, -1.347210168838501, 6.2854108810424805, -0.39457646012306213, -0.5559877157211304, -1.2630903720855713, 0.878662109375, 0.288330078125, -0.400146484375
230, 3931203390, -7.259735107421875, -1.347154974937439, 6.299572467803955, -0.22924646735191345, -0.6860745549201965, -1.154300332069397, 0.87451171875, 0.287841796875, -0.401123046875
231, 3931220057, -7.257108211517334, -1.3475890159606934, 6.269908428192139, -0.08266499638557434, -0.791739821434021, -1.137831449508667, 0.87451171875, 0.287353515625, -0.399658203125
232, 3931236724, -7.249088764190674, -1.3328101634979248, 6.281234264373779, -0.20737962424755096, -0.8119546175003052, -1.2129215002059937, 0.8740234375, 0.2861328125, -0.39794921875
233, 3931253391, -7.256902694702148, -1.3336005210876465, 6.296031951904297, -0.29021111130714417, -0.7303781509399414, -1.1094204187393188, 0.8740234375, 0.2861328125, -0.39892578125
234, 3931270058, -7.251134872436523, -1.339324712753296, 6.280962944030762, -0.23311398923397064, -0.6001695990562439, -1.2461347579956055, 0.877197265625, 0.28564453125, -0.39990234375
235, 3931286725, -7.254518985748291, -1.3380926847457886, 6.283461093902588, -0.2720068693161011, -0.6591172814369202, -1.2368375062942505, 0.878173828125, 0.288330078125, -0.39892578125
236, 3931303392, -7.246343612670898, -1.3411136865615845, 6.305245399475098, -0.2173749804496765, -0.8270084857940674, -1.2254139184951782, 0.876220703125, 0.287841796875, -0.39990234375
237, 3931320059, -7.259176254272461, -1.3504194021224976, 6.31311559677124, -0.2543213367462158, -0.8153547644615173, -1.2030925750732422, 0.877197265625, 0.288818359375, -0.3984375
238, 3931336726, -7.252344608306885, -1.3379302024841309, 6.290582656860352, -0.2822391390800476, -0.8608173131942749, -1.2726309299468994, 0.875732421875, 0.2861328125, -0.3994140625
239, 3931353393, -7.259342670440674, -1.3456182479858398, 6.298468589782715, -0.23346616327762604, -0.8645374774932861, -1.3055498600006104, 0.875244140625, 0.286865234375, -0.3984375
240, 3931370060, -7.262734889984131, -1.3285998106002808, 6.299036026000977, -0.14562100172042847, -0.8924233317375183, -1.3038272857666016, 0.87451171875, 0.286865234375, -0.399658203125
241, 3931386727, -7.249039649963379, -1.3478235006332397, 6.301490306854248, -0.3030622601509094, -0.8077348470687866, -1.372161865234375, 0.876708984375, 0.287841796875, -0.400146484375
242, 3931403394, -7.260560989379883, -1.3355997800827026, 6.2903642654418945, -0.2959163188934326, -0.6872270703315735, -1.2807244062423706, 0.87451171875, 0.28662109375, -0.400146484375
243, 3931420061, -7.24946928024292, -1.3399921655654907, 6.296027183532715, -0.29469969868659973, -0.8270341157913208, -1.3878111839294434, 0.87451171875, 0.287841796875, -0.39794921875
244, 3931436728, -7.2575531005859375, -1.3384414911270142, 6.280928134918213, -0.2568441331386566, -0.7123532295227051, -1.3276983499526978, 0.873046875, 0.287109375, -0.396484375
245, 3931453395, -7.2614312171936035, -1.335939884185791, 6.281704902648926, -0.27349239587783813, -0.8276103138923645, -1.25197434425354, 0.87548828125, 0.286865234375, -0.400146484375
246, 3931470062, -7.2638020515441895, -1.3468098640441895, 6.306357383728027, -0.14720900356769562, -0.7611837983131409, -1.3311305046081543, 0.875244140625, 0.287841796875, -0.39697265625
247, 3931486729, -7.263285160064697, -1.352674126625061, 6.312078952789307, -0.28310996294021606, -0.8495091795921326, -1.2207269668579102, 0.875732421875, 0.286376953125, -0.400146484375
248, 3931503396, -7.254523754119873, -1.3364214897155762, 6.280629634857178, -0.19693604111671448, -0.6467847228050232, -1.2142213582992554, 0.87646484375, 0.287841796875, -0.400634765625
249, 3931520063, -7.262864112854004, -1.3313672542572021, 6.306736469268799, -0.23006609082221985, -0.7313961982727051, -1.2114551067352295, 0.878173828125, 0.286865234375, -0.3974609375
250, 3931536730, -7.248096942901611, -1.3555126190185547, 6.292924880981445, -0.16010499000549316, -0.6852294206619263, -1.1510604619979858, 0.875, 0.28662109375, -0.3984375
251, 3931553397, -7.248383045196533, -1.338194727897644, 6.307365417480469, -0.12477227300405502, -0.7460851073265076, -1.1936031579971313, 0.876220703125, 0.287353515625, -0.39892578125
252, 3931570064, -7.244223117828369, -1.352674961090088, 6.280702114105225, -0.20004799962043762, -0.7603769898414612, -1.1594868898391724, 0.876708984375, 0.28515625, -0.400390625
253, 3931586731, -7.257143497467041, -1.337802529335022, 6.297565460205078, -0.22539176046848297, -0.7719796299934387, -1.133080244064331, 0.878662109375, 0.286376953125, -0.3984375
254, 3931603398, -7.259748458862305, -1.3339085578918457, 6.30084228515625, -0.24002942442893982, -0.6956409811973572, -1.2023112773895264, 0.875732421875, 0.2861328125, -0.400146484375
255, 3931620065, -7.256375312805176, -1.3397736549377441, 6.278644561767578, -0.1927739828824997, -0.8490738272666931, -1.171460747718811, 0.87451171875, 0.28564453125, -0.39990234375
256, 3931636732, -7.264438629150391, -1.333294153213501, 6.289215087890625, -0.16842271387577057, -0.8396931290626526, -1.1480827331542969, 0.875732421875, 0.28515625, -0.39990234375
257, 3931653399, -7.248895168304443, -1.357073426246643, 6.306407451629639, -0.06716930121183395, -0.8314650058746338, -1.1975089311599731, 0.873046875, 0.2861328125, -0.401123046875
258, 3931670066, -7.261010646820068, -1.3487813472747803, 6.301989555358887, -0.13756580650806427, -0.8150089383125305, -1.1732665300369263, 0.875, 0.28662109375, -0.39990234375
259, 3931686733, -7.244243621826172, -1.3352646827697754, 6.29038143157959, -0.15810716152191162, -0.8215016722679138, -1.136371374130249, 0.876220703125, 0.286376953125, -0.39892578125
260, 3931703400, -7.254115104675293, -1.340570092201233, 6.314648151397705, -0.15496964752674103, -0.8103986978530884, -1.20101797580719, 0.875732421875, 0.286865234375, -0.3984375
261, 3931720067, -7.256650447845459, -1.33470618724823, 6.298349857330322, -0.2180665135383606, -0.7540763020515442, -1.1650192737579346, 0.87451171875, 0.286865234375, -0.399658203125
262, 3931736734, -7.254434108734131, -1.3443896770477295, 6.289635181427002, -0.1750115603208542, -0.8602152466773987, -1.1546204090118408, 0.875, 0.287841796875, -0.396484375
263, 3931753401, -7.263396263122559, -1.334991216659546, 6.291025161743164, -0.20783425867557526, -0.8177878856658936, -1.245980978012085, 0.87548828125, 0.288330078125, -0.39892578125
264, 3931770068, -7.238471508026123, -1.3417534828186035, 6.287102222442627, -0.2315516322851181, -0.762592613697052, -1.2406792640686035, 0.8759765625, 0.287353515625, -0.400146484375
265, 3931786735, -7.2454609870910645, -1.3475556373596191, 6.3054728507995605, -0.1922488957643509, -0.8784515261650085, -1.273040771484375, 0.878173828125, 0.286865234375, -0.3994140625
266, 3931803402, -7.256382465362549, -1.3412649631500244, 6.285501003265381, -0.24777725338935852, -0.8977378606796265, -1.243522047996521, 0.875732421875, 0.286376953125, -0.3984375
267, 3931820069, -7.232027530670166, -1.34535551071167, 6.316946506500244, -0.21311046183109283, -0.9371046423912048, -1.2060891389846802, 0.87548828125, 0.287353515625, -0.400634765625
268, 3931836736, -7.240190505981445, -1.3381460905075073, 6.310539722442627, -0.19304290413856506, -0.8550670146942139, -1.2206372022628784, 0.8740234375, 0.288818359375, -0.401123046875
269, 3931853403, -7.2353010177612305, -1.352961778640747, 6.294286727905273, -0.27174434065818787, -0.7977267503738403, -1.2988135814666748, 0.87548828125, 0.287841796875, -0.400634765625
270, 3931870070, -7.252408981323242, -1.3478856086730957, 6.302281379699707, -0.20669448375701904, -0.7790870666503906, -1.3042882680892944, 0.875732421875, 0.286865234375, -0.3984375
271, 3931886737, -7.23422908782959, -1.3460100889205933, 6.320491313934326, -0.24234738945960999, -0.7112519145011902, -1.2120569944381714, 0.876220703125, 0.286376953125, -0.39990234375
272, 3931903404, -7.254992485046387, -1.3414233922958374, 6.296026706695557, -0.30686578154563904, -0.6864972710609436, -1.2686227560043335, 0.877197265625, 0.286865234375, -0.400146484375
273, 3931920071, -7.243188858032227, -1.3391000032424927, 6.294203758239746, -0.2200130820274353, -0.7108420133590698, -1.2402565479278564, 0.876220703125, 0.286865234375, -0.39990234375
274, 3931936738, -7.253967761993408, -1.3347188234329224, 6.322103977203369, -0.24812300503253937, -0.7640908360481262, -1.2030798196792603, 0.8740234375, 0.28662109375, -0.3994140625
275, 3931953405, -7.2533979415893555, -1.331918716430664, 6.300128936767578, -0.3494724631309509, -0.8175957202911377, -1.2581725120544434, 0.875, 0.2861328125, -0.400146484375
276, 3931970072, -7.265552997589111, -1.3381496667861938, 6.295520782470703, -0.326203316450119, -0.7692645788192749, -1.3260846138000488, 0.877197265625, 0.2861328125, -0.3994140625
277, 3931986739, -7.247959136962891, -1.346312403678894, 6.309293746948242, -0.3239622414112091, -0.7615039348602295, -1.3101664781570435, 0.878173828125, 0.287841796875, -0.3984375
278, 3932003406, -7.2488627433776855, -1.3522056341171265, 6.291510105133057, -0.27047014236450195, -0.7007507085800171, -1.2541385889053345, 0.876220703125, 0.287353515625, -0.400634765625
279, 3932020073, -7.24652099609375, -1.35174560546875, 6.2762579917907715, -0.2771294414997101, -0.6971264481544495, -1.2372214794158936, 0.876708984375, 0.286376953125, -0.3994140625
280, 3932036740, -7.256565093994141, -1.3445698022842407, 6.277250289916992, -0.30319029092788696, -0.7139923572540283, -1.238092064857483, 0.876220703125, 0.28466796875, -0.3984375
281, 3932053407, -7.261596202850342, -1.3396050930023193, 6.2737226486206055, -0.306520015001297, -0.6805166602134705, -1.1560933589935303, 0.877685546875, 0.287353515625, -0.3984375
282, 3932070074, -7.256017684936523, -1.3517931699752808, 6.298675060272217, -0.2062462717294693, -0.7605178952217102, -1.1910033226013184, 0.876708984375, 0.286865234375, -0.400146484375
283, 3932086741, -7.2581000328063965, -1.3394722938537598, 6.284707546234131, -0.27738553285598755, -0.7229313254356384, -1.1479099988937378, 0.875732421875, 0.288330078125, -0.3974609375
284, 3932103408, -7.253485679626465, -1.339348554611206, 6.297747611999512, -0.22713340818881989, -0.7223933935165405, -1.2562004327774048, 0.877197265625, 0.28564453125, -0.39794921875
285, 3932120075, -7.265030860900879, -1.3644835948944092, 6.293027877807617, -0.2571642994880676, -0.7587890028953552, -1.181257724761963, 0.875, 0.287841796875, -0.401611328125
286, 3932136742, -7.248382091522217, -1.3477517366409302, 6.284922122955322, -0.254910409450531, -0.7073459029197693, -1.2569944858551025, 0.87353515625, 0.287353515625, -0.400146484375
287, 3932153409, -7.2546539306640625, -1.351770043373108, 6.3053297996521, -0.3000655770301819, -0.74912029504776, -1.214298129081726, 0.875732421875, 0.286376953125, -0.3994140625
288, 3932170076, -7.252727508544922, -1.3445920944213867, 6.317728519439697, -0.3170340061187744, -0.746200442314148, -1.2305365800857544, 0.875244140625, 0.286865234375, -0.3984375
289, 3932186743, -7.262399673461914, -1.337652325630188, 6.2812113761901855, -0.2939569354057312, -0.6807342767715454, -1.2122619152069092, 0.87646484375, 0.289306640625, -0.401123046875
290, 3932203410, -7.252099514007568, -1.3540458679199219, 6.309077262878418, -0.270201176404953, -0.7097791433334351, -1.223480224609375, 0.876708984375, 0.286865234375, -0.39892578125
291, 3932220077, -7.252907752990723, -1.3434293270111084, 6.317385673522949, -0.3076085150241852, -0.6840639710426331, -1.2503864765167236, 0.8740234375, 0.287841796875, -0.400146484375
292, 3932236744, -7.2627272605896, -1.3390185832977295, 6.295511722564697, -0.36092135310173035, -0.6741774082183838, -1.339211106300354, 0.876220703125, 0.286865234375, -0.39990234375
293, 3932253411, -7.243452548980713, -1.3433544635772705, 6.308560371398926, -0.31470322608947754, -0.632134199142456, -1.3568838834762573, 0.875, 0.286865234375, -0.3994140625
294, 3932270078, -7.257237911224365, -1.3500330448150635, 6.301667213439941, -0.4388096034526825, -0.5568841695785522, -1.325342059135437, 0.876708984375, 0.287353515625, -0.39990234375
295, 3932286745, -7.243560791015625, -1.327752709388733, 6.299832820892334, -0.35583725571632385, -0.5599576234817505, -1.3384941816329956, 0.877685546875, 0.286865234375, -0.400634765625
296, 3932303412, -7.240791320800781, -1.342150092124939, 6.304191589355469, -0.29860568046569824, -0.6611022353172302, -1.3466262817382812, 0.87646484375, 0.289306640625, -0.39892578125
297, 3932320079, -7.265937805175781, -1.3527599573135376, 6.299238204956055, -0.3068273365497589, -0.6817203760147095, -1.3409656286239624, 0.87451171875, 0.28662109375, -0.401123046875
298, 3932336746, -7.252619743347168, -1.3468263149261475, 6.29341983795166, -0.22252315282821655, -0.7920728325843811, -1.330912709236145, 0.87548828125, 0.287841796875, -0.39892578125
299, 3932353413, -7.253355979919434, -1.3568167686462402, 6.273843765258789, -0.25923892855644226, -0.6903262734413147, -1.242215871810913, 0.875732421875, 0.288818359375, -0.39697265625
300, 3932370080, -7.266794681549072, -1.3345863819122314, 6.303516387939453, -0.2662952244281769, -0.7883461117744446, -1.262885332107544, 0.878173828125, 0.286376953125, -0.3994140625
301, 3932386747, -7.243447303771973, -1.3578808307647705, 6.311368942260742, -0.2038899064064026, -0.6972160935401917, -1.2567768096923828, 0.875732421875, 0.287353515625, -0.39599609375
302, 3932403414, -7.259141445159912, -1.3686153888702393, 6.278070449829102, -0.3474363088607788, -0.6251163482666016, -1.17020583152771, 0.87451171875, 0.286865234375, -0.3994140625
303, 3932420081, -7.246248722076416, -1.3530570268630981, 6.296882629394531, -0.21804089844226837, -0.6820405721664429, -1.1719344854354858, 0.8740234375, 0.287109375, -0.399658203125
304, 3932436748, -7.252737522125244, -1.3557360172271729, 6.305180072784424, -0.1886119246482849, -0.6730633974075317, -1.2070497274398804, 0.873046875, 0.289794921875, -0.400634765625
305, 3932453415, -7.261382579803467, -1.3384723663330078, 6.297194004058838, -0.32114484906196594, -0.6089035272598267, -1.1888391971588135, 0.87548828125, 0.289306640625, -0.3994140625
306, 3932470082, -7.258370399475098, -1.3527297973632812, 6.287847995758057, -0.2905120551586151, -0.6534055471420288, -1.284387230873108, 0.87646484375, 0.287841796875, -0.400634765625
307, 3932486749, -7.255780220031738, -1.3509418964385986, 6.293859004974365, -0.2590084373950958, -0.6853190660476685, -1.2730792760849, 0.87451171875, 0.287841796875, -0.39794921875
308, 3932503416, -7.265671253204346, -1.3518810272216797, 6.280893325805664, -0.28302034735679626, -0.6769949197769165, -1.2580958604812622, 0.877197265625, 0.2861328125, -0.39990234375
309, 3932520083, -7.257692813873291, -1.3585264682769775, 6.272220134735107, -0.42569583654403687, -0.6587586402893066, -1.280084252357483, 0.876220703125, 0.287353515625, -0.39990234375
310, 3932536750, -7.264545440673828, -1.351380705833435, 6.298437595367432, -0.3140372931957245, -0.6088266372680664, -1.3631590604782104, 0.876220703125, 0.288330078125, -0.39794921875
311, 3932553417, -7.26776123046875, -1.3268327713012695, 6.29793119430542, -0.4293392598628998, -0.5662391185760498, -1.4356621503829956, 0.875732421875, 0.287353515625, -0.39892578125
312, 3932570084, -7.259585380554199, -1.3575835227966309, 6.301815986633301, -0.3722805976867676, -0.5496613383293152, -1.4758294820785522, 0.875, 0.288818359375, -0.39794921875
313, 3932586751, -7.260430335998535, -1.3502990007400513, 6.293543338775635, -0.42162343859672546, -0.6086601614952087, -1.4606794118881226, 0.87548828125, 0.286865234375, -0.3994140625
314, 3932603418, -7.251169681549072, -1.3506035804748535, 6.294930934906006, -0.31512582302093506, -0.7097278237342834, -1.406969666481018, 0.876220703125, 0.287841796875, -0.3994140625
315, 3932620085, -7.261692523956299, -1.3607587814331055, 6.278042793273926, -0.2977348268032074, -0.7098304033279419, -1.3519023656845093, 0.8740234375, 0.288818359375, -0.3974609375
316, 3932636752, -7.2546706199646, -1.3569833040237427, 6.291585445404053, -0.3230529725551605, -0.6383581161499023, -1.3628261089324951, 0.875, 0.288818359375, -0.39697265625
317, 3932653419, -7.248378276824951, -1.3703778982162476, 6.282069683074951, -0.3449198305606842, -0.6221644878387451, -1.2753651142120361, 0.87451171875, 0.287353515625, -0.3984375
318, 3932670086, -7.263257026672363, -1.3665448427200317, 6.275587558746338, -0.23033501207828522, -0.6185082793235779, -1.1952165365219116, 0.876220703125, 0.289306640625, -0.39697265625
319, 3932686753, -7.2621002197265625, -1.3626512289047241, 6.283980369567871, -0.1772206723690033, -0.7746112942695618, -1.1589298248291016, 0.8759765625, 0.289306640625, -0.3974609375
320, 3932703420, -7.259769439697266, -1.3479646444320679, 6.281471252441406, -0.20865386724472046, -0.7415773272514343, -1.1893641948699951, 0.877685546875, 0.286865234375, -0.3984375
321, 3932720087, -7.262418746948242, -1.3542691469192505, 6.306868076324463, -0.2955961525440216, -0.7415260076522827, -1.1355901956558228, 0.8740234375, 0.287353515625, -0.399658203125
322, 3932736754, -7.251343727111816, -1.3547163009643555, 6.2742719650268555, -0.2469576597213745, -0.7299619913101196, -1.142403244972229, 0.87548828125, 0.287353515625, -0.3984375
323, 3932753421, -7.261809825897217, -1.3796254396438599, 6.306972980499268, -0.17245028913021088, -0.6744464039802551, -1.1388301849365234, 0.875, 0.288330078125, -0.39892578125
324, 3932770088, -7.253515243530273, -1.3652591705322266, 6.3095574378967285, -0.18948274850845337, -0.8336037397384644, -1.05733060836792, 0.877197265625, 0.286376953125, -0.3974609375
325, 3932786755, -7.259437084197998, -1.361291766166687, 6.289392471313477, -0.19538648426532745, -0.6316988468170166, -1.0782307386398315, 0.878662109375, 0.288330078125, -0.401123046875
326, 3932803422, -7.266850471496582, -1.3607596158981323, 6.284667491912842, -0.178847074508667, -0.6900381445884705, -1.0693366527557373, 0.877197265625, 0.287353515625, -0.39990234375
327, 3932820089, -7.2659912109375, -1.3592218160629272, 6.297767162322998, -0.14133086800575256, -0.8314138054847717, -1.032409429550171, 0.87646484375, 0.290283203125, -0.39892578125
328, 3932836756, -7.262729167938232, -1.3473385572433472, 6.290653228759766, -0.07207413762807846, -0.9221340417861938, -1.0443066358566284, 0.8740234375, 0.289306640625, -0.3984375
329, 3932853423, -7.261096477508545, -1.3688305616378784, 6.297817707061768, -0.09143735468387604, -0.8872239589691162, -1.103484869003296, 0.8759765625, 0.288330078125, -0.39892578125
330, 3932870090, -7.257022380828857, -1.3570226430892944, 6.294954299926758, -0.12774334847927094, -0.8346794843673706, -1.259312391281128, 0.875, 0.287841796875, -0.3994140625
331, 3932886757, -7.2513957023620605, -1.3682451248168945, 6.286677360534668, -0.10394914448261261, -0.8475114703178406, -1.1299940347671509, 0.875, 0.286865234375, -0.3994140625
332, 3932903424, -7.263848781585693, -1.3654698133468628, 6.294953346252441, -0.08347178995609283, -0.8730729222297668, -1.1128590106964111, 0.877685546875, 0.286865234375, -0.39990234375
333, 3932920091, -7.258577823638916, -1.3589063882827759, 6.265787124633789, -0.15751808881759644, -0.8880819082260132, -1.0809327363967896, 0.875, 0.287353515625, -0.39892578125
334, 3932936758, -7.274679183959961, -1.3559521436691284, 6.290095329284668, -0.07299619168043137, -0.9124907851219177, -1.1086840629577637, 0.875, 0.287841796875, -0.39892578125
335, 3932953425, -7.245660305023193, -1.346284031867981, 6.3096442222595215, -0.06115671992301941, -0.9503399133682251, -1.1071410179138184, 0.878662109375, 0.287841796875, -0.3984375
336, 3932970092, -7.253333568572998, -1.3436206579208374, 6.296238422393799, -0.20697620511054993, -0.8878769874572754, -1.1443498134613037, 0.875732421875, 0.286376953125, -0.39794921875
337, 3932986759, -7.235986709594727, -1.3586487770080566, 6.272525787353516, -0.16854439675807953, -0.787731409072876, -1.0962364673614502, 0.876220703125, 0.287353515625, -0.3994140625
338, 3933003426, -7.257082462310791, -1.3552244901657104, 6.311368465423584, -0.05925498530268669, -0.8687700033187866, -1.0734666585922241, 0.876220703125, 0.286865234375, -0.3994140625
339, 3933020093, -7.264608383178711, -1.347725510597229, 6.313547611236572, -0.17214293777942657, -0.886839747428894, -1.097132921218872, 0.874755859375, 0.287353515625, -0.396484375
340, 3933036760, -7.269738674163818, -1.3517616987228394, 6.286517143249512, -0.21851474046707153, -0.9210070371627808, -1.0760918855667114, 0.8759765625, 0.288330078125, -0.3984375
341, 3933053427, -7.259993076324463, -1.3534586429595947, 6.294681072235107, -0.2026861160993576, -0.7338934540748596, -1.2103537321090698, 0.875, 0.288818359375, -0.3994140625
342, 3933070094, -7.241457462310791, -1.3574268817901611, 6.294680118560791, -0.25863704085350037, -0.801754355430603, -1.2102642059326172, 0.875732421875, 0.286376953125, -0.400146484375
343, 3933086761, -7.260541915893555, -1.354968547821045, 6.314389705657959, -0.27943453192710876, -0.6459778547286987, -1.187801718711853, 0.877197265625, 0.28564453125, -0.39990234375
344, 3933103428, -7.248717308044434, -1.3440133333206177, 6.282390117645264, -0.384549081325531, -0.5616864562034607, -1.3247015476226807, 0.875, 0.288818359375, -0.39794921875
345, 3933120095, -7.259800910949707, -1.339052677154541, 6.264603137969971, -0.42509400844573975, -0.5476251244544983, -1.4453376531600952, 0.8740234375, 0.28662109375, -0.39892578125
346, 3933136762, -7.265408992767334, -1.3444600105285645, 6.300999164581299, -0.4534536600112915, -0.4617905914783478, -1.519774317741394, 0.875, 0.288330078125, -0.39794921875
347, 3933153429, -7.267965793609619, -1.3680346012115479, 6.298229217529297, -0.5106724500656128, -0.4956122040748596, -1.4623507261276245, 0.875, 0.288330078125, -0.3974609375
348, 3933170096, -7.263203144073486, -1.3508269786834717, 6.286126136779785, -0.48251765966415405, -0.5588691234588623, -1.425910234451294, 0.8759765625, 0.288330078125, -0.3984375
349, 3933186763, -7.250926971435547, -1.3704581260681152, 6.2806196212768555, -0.3054826557636261, -0.7050151824951172, -1.4600903987884521, 0.876220703125, 0.287841796875, -0.39697265625
350, 3933203430, -7.2532172203063965, -1.3636823892593384, 6.296776294708252, -0.27193644642829895, -0.8065502047538757, -1.3582350015640259, 0.877197265625, 0.286376953125, -0.3994140625
351, 3933220097, -7.2530622482299805, -1.3601092100143433, 6.294320106506348, -0.3146520256996155, -0.7769484519958496, -1.2670217752456665, 0.876708984375, 0.286865234375, -0.401123046875
352, 3933236764, -7.252686023712158, -1.3524965047836304, 6.291461944580078, -0.3012949824333191, -0.6620498895645142, -1.3022905588150024, 0.8759765625, 0.289306640625, -0.400634765625
353, 3933253431, -7.261524677276611, -1.3611522912979126, 6.271300792694092, -0.27002188563346863, -0.7510411739349365, -1.233635425567627, 0.877197265625, 0.289794921875, -0.39892578125
354, 3933270098, -7.25801420211792, -1.3546866178512573, 6.270686149597168, -0.2317437380552292, -0.6522018313407898, -1.2063453197479248, 0.877197265625, 0.287841796875, -0.3984375
355, 3933286765, -7.2477803230285645, -1.3521307706832886, 6.271573066711426, -0.2655909061431885, -0.7112135291099548, -1.2535239458084106, 0.877685546875, 0.286376953125, -0.39794921875
356, 3933303432, -7.258214950561523, -1.355180263519287, 6.308998107910156, -0.23758341372013092, -0.7650129199028015, -1.3000879287719727, 0.876708984375, 0.288330078125, -0.39892578125
357, 3933320099, -7.238114356994629, -1.370402455329895, 6.289389133453369, -0.3311977982521057, -0.7540634870529175, -1.3123050928115845, 0.874755859375, 0.287353515625, -0.3955078125
358, 3933336766, -7.266119480133057, -1.366693377494812, 6.283190727233887, -0.2926250696182251, -0.7958890199661255, -1.3432965278625488, 0.876953125, 0.289306640625, -0.400146484375
359, 3933353433, -7.2400431632995605, -1.3598521947860718, 6.279754161834717, -0.3294689655303955, -0.7760136127471924, -1.3007410764694214, 0.87451171875, 0.288818359375, -0.3984375
360, 3933370100, -7.255072593688965, -1.3553342819213867, 6.306106090545654, -0.37765929102897644, -0.6568248867988586, -1.3170819282531738, 0.878173828125, 0.286376953125, -0.400634765625
361, 3933386767, -7.250741481781006, -1.3407104015350342, 6.287187576293945, -0.44056400656700134, -0.5119338631629944, -1.366424560546875, 0.875, 0.287841796875, -0.3984375
362, 3933403434, -7.251576900482178, -1.3636654615402222, 6.292647838592529, -0.4571995139122009, -0.4671500325202942, -1.4458754062652588, 0.87548828125, 0.288330078125, -0.3994140625
363, 3933420101, -7.254622936248779, -1.3720552921295166, 6.300353527069092, -0.4389376640319824, -0.550352931022644, -1.4924136400222778, 0.876220703125, 0.289794921875, -0.39697265625
364, 3933436768, -7.255929946899414, -1.3619681596755981, 6.282826900482178, -0.5602650046348572, -0.5582799911499023, -1.4324158430099487, 0.87451171875, 0.290283203125, -0.3974609375
365, 3933453435, -7.254077434539795, -1.362037181854248, 6.2992987632751465, -0.42354437708854675, -0.5259696245193481, -1.4524065256118774, 0.875, 0.289306640625, -0.39892578125
366, 3933470102, -7.253561973571777, -1.3600088357925415, 6.290547847747803, -0.5015862584114075, -0.5988633036613464, -1.4434804916381836, 0.87451171875, 0.290771484375, -0.3974609375
367, 3933486769, -7.265015602111816, -1.3537771701812744, 6.261580944061279, -0.5144054293632507, -0.5995805263519287, -1.4373079538345337, 0.876220703125, 0.287353515625, -0.39794921875
368, 3933503436, -7.258324146270752, -1.3668104410171509, 6.294306755065918, -0.4830939471721649, -0.49191755056381226, -1.40727698802948, 0.87451171875, 0.289794921875, -0.39697265625
369, 3933520103, -7.258476734161377, -1.3614462614059448, 6.268282413482666, -0.43588972091674805, -0.5916405320167542, -1.4543530941009521, 0.875732421875, 0.286865234375, -0.3984375
370, 3933536770, -7.25689697265625, -1.338173270225525, 6.269740104675293, -0.35724595189094543, -0.6998926401138306, -1.4238485097885132, 0.8740234375, 0.289794921875, -0.3974609375
371, 3933553437, -7.2626848220825195, -1.363576054573059, 6.288435935974121, -0.42386460304260254, -0.6938352584838867, -1.502415418624878, 0.8759765625, 0.291259765625, -0.399169921875
372, 3933570104, -7.259976863861084, -1.3595277070999146, 6.274645805358887, -0.44363754987716675, -0.6293424367904663, -1.48676598072052, 0.8759765625, 0.291259765625, -0.396484375
373, 3933586771, -7.253118515014648, -1.3604899644851685, 6.2923808097839355, -0.4265923500061035, -0.5623396635055542, -1.5632966756820679, 0.877197265625, 0.290283203125, -0.39697265625
374, 3933603438, -7.256011962890625, -1.3703598976135254, 6.287803649902344, -0.46275752782821655, -0.6457602381706238, -1.4985480308532715, 0.876953125, 0.290283203125, -0.400146484375
375, 3933620105, -7.258327007293701, -1.3692859411239624, 6.2862749099731445, -0.3829098343849182, -0.6656100153923035, -1.4421998262405396, 0.87548828125, 0.289306640625, -0.39599609375
376, 3933636772, -7.266858100891113, -1.375125527381897, 6.285043716430664, -0.36112627387046814, -0.6655716300010681, -1.4457217454910278, 0.87451171875, 0.289794921875, -0.399169921875
377, 3933653439, -7.261341571807861, -1.3699065446853638, 6.290106296539307, -0.3133457601070404, -0.6010403633117676, -1.4144996404647827, 0.87353515625, 0.289306640625, -0.396484375
378, 3933670106, -7.243687152862549, -1.3840055465698242, 6.270410537719727, -0.3257935047149658, -0.7824935913085938, -1.3478171825408936, 0.877197265625, 0.290283203125, -0.39697265625
379, 3933686773, -7.260664463043213, -1.3689881563186646, 6.2735419273376465, -0.3222333490848541, -0.6448893547058105, -1.4159083366394043, 0.87451171875, 0.290283203125, -0.39794921875
380, 3933703440, -7.261143207550049, -1.372900128364563, 6.2888922691345215, -0.289180189371109, -0.6432884931564331, -1.5175907611846924, 0.877197265625, 0.289794921875, -0.39697265625
381, 3933720107, -7.264250755310059, -1.3806896209716797, 6.2899627685546875, -0.44331732392311096, -0.6026667952537537, -1.5533076524734497, 0.8759765625, 0.288330078125, -0.39892578125
382, 3933736774, -7.264806270599365, -1.3714524507522583, 6.28314733505249, -0.43813085556030273, -0.5513774156570435, -1.6403911113739014, 0.87451171875, 0.289794921875, -0.39599609375
383, 3933753441, -7.247868061065674, -1.3733290433883667, 6.266358375549316, -0.4636795222759247, -0.6779425144195557, -1.6259835958480835, 0.8740234375, 0.290283203125, -0.3955078125
384, 3933770108, -7.253019332885742, -1.3933231830596924, 6.284297943115234, -0.4331812262535095, -0.5910707116127014, -1.5268948078155518, 0.87744140625, 0.2919921875, -0.3984375
385, 3933786775, -7.266436576843262, -1.3742622137069702, 6.27878475189209, -0.37940093874931335, -0.652291476726532, -1.5572137832641602, 0.875, 0.29248046875, -0.3974609375
386, 3933803442, -7.269590854644775, -1.386365294456482, 6.272956371307373, -0.3769165277481079, -0.6698746085166931, -1.536365032196045, 0.877197265625, 0.290283203125, -0.39697265625
387, 3933820109, -7.2610979080200195, -1.3899110555648804, 6.2966132164001465, -0.36202266812324524, -0.5689861178398132, -1.465302586555481, 0.875, 0.290771484375, -0.3955078125
388, 3933836776, -7.242388725280762, -1.3869966268539429, 6.270323753356934, -0.44122999906539917, -0.5928571224212646, -1.501826286315918, 0.87451171875, 0.287841796875, -0.3974609375
389, 3933853443, -7.254077911376953, -1.3582793474197388, 6.29293966293335, -0.4758455157279968, -0.3631880581378937, -1.6274693012237549, 0.8759765625, 0.291259765625, -0.3984375
390, 3933870110, -7.268982887268066, -1.3892956972122192, 6.2666754722595215, -0.6637787222862244, -0.36644089221954346, -1.7928376197814941, 0.875, 0.291259765625, -0.399658203125
391, 3933886777, -7.270697116851807, -1.4164446592330933, 6.281279563903809, -0.6478475332260132, -0.3956137001514435, -1.7906094789505005, 0.875, 0.290283203125, -0.3974609375
392, 3933903444, -7.252201557159424, -1.3946748971939087, 6.259690284729004, -0.7149016857147217, -0.17854613065719604, -1.9087477922439575, 0.87646484375, 0.2919921875, -0.39599609375
393, 3933920111, -7.258479118347168, -1.390620231628418, 6.267265319824219, -0.6763288378715515, -0.15694180130958557, -1.9052006006240845, 0.87548828125, 0.29248046875, -0.39697265625
394, 3933936778, -7.258230686187744, -1.3919541835784912, 6.278071880340576, -0.6213128566741943, -0.20742444694042206, -1.7962825298309326, 0.87353515625, 0.290771484375, -0.39599609375
395, 3933953445, -7.264239311218262, -1.3907512426376343, 6.271363735198975, -0.5044357776641846, -0.3994749188423157, -1.674103856086731, 0.8759765625, 0.29248046875, -0.39794921875
396, 3933970112, -7.272969722747803, -1.3921623229980469, 6.27765417098999, -0.4948374032974243, -0.5285565257072449, -1.5135314464569092, 0.87744140625, 0.2919921875, -0.3974609375
397, 3933986779, -7.262249946594238, -1.3954726457595825, 6.268911361694336, -0.36808013916015625, -0.5294017195701599, -1.4734219312667847, 0.877197265625, 0.29248046875, -0.39453125
398, 3934003446, -7.269535064697266, -1.402998685836792, 6.254735469818115, -0.46269333362579346, -0.5165056586265564, -1.4623312950134277, 0.87744140625, 0.29345703125, -0.39794921875
399, 3934020113, -7.260058879852295, -1.40492844581604, 6.263367176055908, -0.4409482777118683, -0.5181833505630493, -1.4951413869857788, 0.8759765625, 0.29150390625, -0.39599609375
400, 3934036780, -7.267050743103027, -1.4105795621871948, 6.254785060882568, -0.35276368260383606, -0.6573114991188049, -1.5061291456222534, 0.875, 0.29248046875, -0.396484375
401, 3934053447, -7.270290374755859, -1.4018046855926514, 6.274393081665039, -0.26769113540649414, -0.7586737275123596, -1.3976465463638306, 0.87451171875, 0.29248046875, -0.39697265625
402, 3934070114, -7.2530107498168945, -1.4192631244659424, 6.259522438049316, -0.23406167328357697, -0.7858745455741882, -1.3431044816970825, 0.877685546875, 0.29150390625, -0.39697265625
403, 3934086781, -7.262904644012451, -1.4077693223953247, 6.269322395324707, -0.283238023519516, -0.7627333998680115, -1.2997163534164429, 0.87744140625, 0.29150390625, -0.3974609375
404, 3934103448, -7.265328407287598, -1.397020936012268, 6.262003421783447, -0.2930605411529541, -0.7444843649864197, -1.3179527521133423, 0.87744140625, 0.29345703125, -0.39599609375
405, 3934120115, -7.276689052581787, -1.4071499109268188, 6.256560325622559, -0.2677423655986786, -0.7383756637573242, -1.2494001388549805, 0.875, 0.29541015625, -0.39697265625
406, 3934136782, -7.2605743408203125, -1.4130398035049438, 6.27476692199707, -0.17925047874450684, -0.8177878856658936, -1.2646524906158447, 0.8740234375, 0.29248046875, -0.398681640625
407, 3934153449, -7.279143333435059, -1.4028178453445435, 6.264869689941406, -0.15828648209571838, -0.800614595413208, -1.2971680164337158, 0.875, 0.2939453125, -0.3974609375
408, 3934170116, -7.268411159515381, -1.4216582775115967, 6.255528926849365, -0.1724759191274643, -0.7929692268371582, -1.3437703847885132, 0.8779296875, 0.29296875, -0.396484375
409, 3934186783, -7.263073444366455, -1.4116357564926147, 6.272336959838867, -0.278755784034729, -0.8122811913490295, -1.252524971961975, 0.876953125, 0.29296875, -0.39501953125
410, 3934203450, -7.250664710998535, -1.4134706258773804, 6.243101119995117, -0.23167969286441803, -0.8333476781845093, -1.236696481704712, 0.876708984375, 0.290771484375, -0.39599609375
411, 3934220117, -7.272617816925049, -1.411774754524231, 6.275639533996582, -0.16447193920612335, -0.7637194991111755, -1.2463395595550537, 0.875, 0.291259765625, -0.3974609375
412, 3934236784, -7.26409387588501, -1.413214921951294, 6.239008903503418, -0.24484460055828094, -0.7832491397857666, -1.1689635515213013, 0.875, 0.294921875, -0.39697265625
413, 3934253451, -7.259396076202393, -1.3982634544372559, 6.283199787139893, -0.19852405786514282, -0.8145479559898376, -1.295861840248108, 0.876953125, 0.29296875, -0.396484375
414, 3934270118, -7.263968467712402, -1.3870892524719238, 6.260764122009277, -0.20137345790863037, -0.6936110258102417, -1.2520062923431396, 0.8779296875, 0.29296875, -0.39794921875
415, 3934286785, -7.253746032714844, -1.4168100357055664, 6.254058361053467, -0.22984838485717773, -0.7011476159095764, -1.2556496858596802, 0.878662109375, 0.29150390625, -0.3974609375
416, 3934303452, -7.27359676361084, -1.4002727270126343, 6.2796630859375, -0.2662055492401123, -0.7344441413879395, -1.3648494482040405, 0.8779296875, 0.294921875, -0.39599609375
417, 3934320119, -7.2697529792785645, -1.4048808813095093, 6.2806010246276855, -0.20354412496089935, -0.8227183222770691, -1.2781505584716797, 0.87548828125, 0.29345703125, -0.396484375
418, 3934336786, -7.257127285003662, -1.40015709400177, 6.278995513916016, -0.1349405199289322, -0.8066848516464233, -1.322319746017456, 0.87646484375, 0.2939453125, -0.39501953125
419, 3934353453, -7.263177394866943, -1.4159449338912964, 6.269524574279785, -0.20764857530593872, -0.8639484643936157, -1.3855894804000854, 0.87548828125, 0.29345703125, -0.3974609375
420, 3934370120, -7.254705905914307, -1.412217378616333, 6.283356189727783, -0.10390431433916092, -0.8800203204154968, -1.303078055381775, 0.87646484375, 0.29296875, -0.3955078125
421, 3934386787, -7.251410961151123, -1.4180315732955933, 6.270054817199707, -0.15521296858787537, -0.9138227701187134, -1.2689813375473022, 0.876708984375, 0.290771484375, -0.396484375
422, 3934403454, -7.251627445220947, -1.4037127494812012, 6.25753927230835, -0.20643837749958038, -0.7910099029541016, -1.2567511796951294, 0.87646484375, 0.29248046875, -0.39892578125
423, 3934420121, -7.265582084655762, -1.400602102279663, 6.248120307922363, -0.14286763966083527, -0.759442150592804, -1.2442777156829834, 0.8759765625, 0.29345703125, -0.39697265625
424, 3934436788, -7.249849319458008, -1.3944501876831055, 6.279633522033691, -0.12441368401050568, -0.7316139340400696, -1.2460066080093384, 0.875, 0.29296875, -0.39697265625
425, 3934453455, -7.265303134918213, -1.4107577800750732, 6.277271747589111, -0.22076867520809174, -0.7729145288467407, -1.1010771989822388, 0.8759765625, 0.29296875, -0.399658203125
426, 3934470122, -7.27748441696167, -1.4084407091140747, 6.282386779785156, -0.2236885279417038, -0.8064926862716675, -1.2287309169769287, 0.875, 0.29248046875, -0.39599609375
427, 3934486789, -7.256477355957031, -1.4022191762924194, 6.285982131958008, -0.25494879484176636, -0.82511305809021, -1.1672347784042358, 0.877197265625, 0.29150390625, -0.39599609375
428, 3934503456, -7.260013103485107, -1.4073727130889893, 6.284064769744873, -0.2948789894580841, -0.7999742031097412, -1.2464548349380493, 0.87548828125, 0.2919921875, -0.396484375
429, 3934520123, -7.2588791847229, -1.4220460653305054, 6.24668025970459, -0.2764250338077545, -0.8210278153419495, -1.2281160354614258, 0.87548828125, 0.2919921875, -0.396484375
430, 3934536790, -7.252983570098877, -1.4220292568206787, 6.280060768127441, -0.2328706532716751, -0.7579437494277954, -1.211186170578003, 0.87646484375, 0.294921875, -0.396484375
431, 3934553457, -7.260748863220215, -1.4135686159133911, 6.267958641052246, -0.2849668860435486, -0.7547550201416016, -1.2195358276367188, 0.8759765625, 0.29248046875, -0.3974609375
432, 3934570124, -7.267908573150635, -1.4018396139144897, 6.257409572601318, -0.19910669326782227, -0.7650577425956726, -1.082757592201233, 0.87744140625, 0.2919921875, -0.39697265625
433, 3934586791, -7.264257907867432, -1.4066338539123535, 6.253817081451416, -0.17239910364151, -0.667018711566925, -1.1600120067596436, 0.876953125, 0.2919921875, -0.3955078125
434, 3934603458, -7.271298408508301, -1.4158060550689697, 6.277725696563721, -0.2455105185508728, -0.7395538687705994, -1.1504840850830078, 0.877685546875, 0.2919921875, -0.3974609375
435, 3934620125, -7.268382549285889, -1.3913170099258423, 6.269872665405273, -0.2826617658138275, -0.7171812653541565, -1.2027212381362915, 0.876953125, 0.2939453125, -0.39794921875
436, 3934636792, -7.267518043518066, -1.4180288314819336, 6.241452693939209, -0.28381434082984924, -0.7525780200958252, -1.2446234226226807, 0.87744140625, 0.2939453125, -0.3974609375
437, 3934653459, -7.277863502502441, -1.4104400873184204, 6.263012409210205, -0.3458866775035858, -0.6959354281425476, -1.3217304944992065, 0.8759765625, 0.2919921875, -0.3974609375
438, 3934670126, -7.278863906860352, -1.4202747344970703, 6.283860683441162, -0.2777440547943115, -0.6439672708511353, -1.2554959058761597, 0.87646484375, 0.29345703125, -0.396484375
439, 3934686793, -7.2717509269714355, -1.4114656448364258, 6.27209997177124, -0.2429492175579071, -0.6843329071998596, -1.234660029411316, 0.87744140625, 0.29345703125, -0.3974609375
440, 3934703460, -7.27386474609375, -1.4012688398361206, 6.259108066558838, -0.2509276270866394, -0.5823943614959717, -1.1965229511260986, 0.87451171875, 0.29443359375, -0.3935546875
441, 3934720127, -7.269983768463135, -1.4096111059188843, 6.269134044647217, -0.25108128786087036, -0.7561124563217163, -1.1354109048843384, 0.87548828125, 0.2939453125, -0.3974609375
442, 3934736794, -7.260713577270508, -1.407265305519104, 6.257170677185059, -0.19213365018367767, -0.7276439666748047, -1.1800665855407715, 0.8759765625, 0.29345703125, -0.39697265625
443, 3934753461, -7.27390718460083, -1.403916597366333, 6.274104595184326, -0.2893978953361511, -0.6162671446800232, -1.098592758178711, 0.87744140625, 0.29345703125, -0.39501953125
444, 3934770128, -7.271642208099365, -1.3959587812423706, 6.284337997436523, -0.21884769201278687, -0.7520272731781006, -1.1814881563186646, 0.87744140625, 0.29248046875, -0.396484375
445, 3934786795, -7.271050930023193, -1.4006139039993286, 6.285913467407227, -0.15053224563598633, -0.8189084529876709, -1.115554690361023, 0.87744140625, 0.29443359375, -0.39892578125
446, 3934803462, -7.2597503662109375, -1.4013807773590088, 6.255874156951904, -0.18233682215213776, -0.734162449836731, -1.0852869749069214, 0.876953125, 0.29345703125, -0.39599609375
447, 3934820129, -7.2508463859558105, -1.4089369773864746, 6.288867473602295, -0.21377640962600708, -0.7108548283576965, -1.051426887512207, 0.87548828125, 0.294921875, -0.3955078125
448, 3934836796, -7.26493501663208, -1.4088071584701538, 6.277423858642578, -0.22618576884269714, -0.7496196627616882, -1.0756053924560547, 0.87646484375, 0.294921875, -0.39599609375
449, 3934853463, -7.276854038238525, -1.4019522666931152, 6.273161888122559, -0.2627606689929962, -0.6447740793228149, -1.2353644371032715, 0.87451171875, 0.291748046875, -0.399169921875
450, 3934870130, -7.256796360015869, -1.3998467922210693, 6.2776265144348145, -0.22502034902572632, -0.6504473090171814, -1.1014611721038818, 0.875, 0.291259765625, -0.39501953125
451, 3934886797, -7.271780967712402, -1.407329797744751, 6.282606601715088, -0.14385372400283813, -0.790651261806488, -1.1105282306671143, 0.876953125, 0.29296875, -0.39453125
452, 3934903464, -7.266569137573242, -1.3933533430099487, 6.279355525970459, -0.1547391265630722, -0.7467638850212097, -1.1175973415374756, 0.87548828125, 0.2919921875, -0.39599609375
453, 3934920131, -7.273880481719971, -1.412516713142395, 6.271777153015137, -0.15317673981189728, -0.7740926146507263, -1.0816243886947632, 0.875, 0.29296875, -0.3974609375
454, 3934936798, -7.263887882232666, -1.3980951309204102, 6.250551700592041, -0.17058058083057404, -0.6639452576637268, -1.1930010318756104, 0.87353515625, 0.29443359375, -0.396484375
455, 3934953465, -7.2698798179626465, -1.4014872312545776, 6.288715362548828, -0.1802493929862976, -0.6857032179832458, -1.1293920278549194, 0.8759765625, 0.291259765625, -0.3974609375
456, 3934970132, -7.267996788024902, -1.4076578617095947, 6.261559963226318, -0.20700185000896454, -0.7346619367599487, -1.1108484268188477, 0.876708984375, 0.291259765625, -0.39501953125
457, 3934986799, -7.250138759613037, -1.4041749238967896, 6.259836673736572, -0.11661462485790253, -0.65679931640625, -1.1387662887573242, 0.87744140625, 0.2919921875, -0.39794921875
458, 3935003466, -7.262696266174316, -1.3988251686096191, 6.259804725646973, -0.13650929927825928, -0.748537540435791, -1.0703099966049194, 0.87646484375, 0.29248046875, -0.3955078125
459, 3935020133, -7.259113311767578, -1.3906171321868896, 6.274878978729248, -0.14897626638412476, -0.7300260066986084, -1.0843521356582642, 0.879150390625, 0.29296875, -0.39697265625
460, 3935036800, -7.268952369689941, -1.4020565748214722, 6.2824811935424805, -0.09693125635385513, -0.7982069253921509, -1.046752691268921, 0.8759765625, 0.29248046875, -0.39794921875
461, 3935053467, -7.253103733062744, -1.3985522985458374, 6.281881809234619, -0.08185818791389465, -0.8469480276107788, -0.9786357283592224, 0.876708984375, 0.290283203125, -0.39599609375
462, 3935070134, -7.272000789642334, -1.4053248167037964, 6.250516414642334, -0.20056664943695068, -0.8232241868972778, -1.1290653944015503, 0.875, 0.290771484375, -0.39697265625
463, 3935086801, -7.264673709869385, -1.4100589752197266, 6.296604156494141, -0.16202594339847565, -0.8711135983467102, -1.1364355087280273, 0.878662109375, 0.29150390625, -0.39599609375
464, 3935103468, -7.252825736999512, -1.399035930633545, 6.270658016204834, -0.19898506999015808, -0.7304742932319641, -1.0910626649856567, 0.878173828125, 0.29248046875, -0.39794921875
465, 3935120135, -7.253688335418701, -1.4125994443893433, 6.2931809425354, -0.10871310532093048, -0.7390928864479065, -1.1038304567337036, 0.87548828125, 0.29296875, -0.3955078125
466, 3935136802, -7.258162975311279, -1.4116731882095337, 6.280485153198242, -0.059267785400152206, -0.7976819276809692, -1.0570745468139648, 0.87646484375, 0.29296875, -0.39697265625
467, 3935153469, -7.274291038513184, -1.397653341293335, 6.279808521270752, 0.013171330094337463, -0.7679712176322937, -0.9336597919464111, 0.87646484375, 0.29248046875, -0.39697265625
468, 3935170136, -7.261525630950928, -1.4093025922775269, 6.27492094039917, 0.0011461683316156268, -0.8747376799583435, -0.9002351760864258, 0.876220703125, 0.289794921875, -0.3955078125
469, 3935186803, -7.274406909942627, -1.4102435111999512, 6.267031669616699, 0.04754997417330742, -0.9928890466690063, -0.8383419513702393, 0.87646484375, 0.291259765625, -0.39794921875
470, 3935203470, -7.256295680999756, -1.3877832889556885, 6.259651184082031, 0.09776367992162704, -1.0550895929336548, -0.7485055923461914, 0.877197265625, 0.2919921875, -0.39599609375
471, 3935220137, -7.2749104499816895, -1.387222170829773, 6.264328956604004, 0.06070850417017937, -1.0317819118499756, -0.8254332542419434, 0.877197265625, 0.289794921875, -0.3984375
472, 3935236804, -7.262944221496582, -1.3971716165542603, 6.27720832824707, 0.10560756176710129, -1.0593156814575195, -0.7771405577659607, 0.87646484375, 0.29150390625, -0.3955078125
473, 3935253471, -7.264575004577637, -1.372465968132019, 6.279436111450195, 0.062885582447052, -0.8184281587600708, -0.8330273032188416, 0.87548828125, 0.289306640625, -0.3974609375
474, 3935270138, -7.267928600311279, -1.379243016242981, 6.266005516052246, 0.044508472084999084, -0.8511740565299988, -1.0308728218078613, 0.875, 0.291748046875, -0.3974609375
475, 3935286805, -7.270033359527588, -1.3794857263565063, 6.292447090148926, -0.08299795538187027, -0.8931533098220825, -1.1235651969909668, 0.878173828125, 0.2919921875, -0.39599609375
476, 3935303472, -7.263919830322266, -1.38821542263031, 6.259212970733643, -0.09731545299291611, -0.9845905900001526, -1.0421040058135986, 0.8759765625, 0.291259765625, -0.39501953125
477, 3935320139, -7.261853218078613, -1.3778237104415894, 6.2852783203125, -0.0820118635892868, -0.9094685912132263, -1.044012188911438, 0.8759765625, 0.290771484375, -0.39794921875
478, 3935336806, -7.26252555847168, -1.4030225276947021, 6.293049335479736, -0.06003617122769356, -0.8570265769958496, -1.0633881092071533, 0.876708984375, 0.291259765625, -0.3955078125
479, 3935353473, -7.250765800476074, -1.3865604400634766, 6.275399208068848, -0.18679340183734894, -0.6926569938659668, -1.0923815965652466, 0.877197265625, 0.290771484375, -0.3974609375
480, 3935370140, -7.271664619445801, -1.374139428138733, 6.261531352996826, -0.20805197954177856, -0.7362626791000366, -1.1297762393951416, 0.8740234375, 0.291748046875, -0.396484375
481, 3935386807, -7.256605625152588, -1.3721164464950562, 6.268754482269287, -0.24749553203582764, -0.7059116363525391, -1.2190364599227905, 0.87646484375, 0.290771484375, -0.39599609375
482, 3935403474, -7.271519184112549, -1.36863112449646, 6.2854390144348145, -0.3145751953125, -0.6422640681266785, -1.209342122077942, 0.87646484375, 0.29150390625, -0.396484375
483, 3935420141, -7.271000862121582, -1.374459147453308, 6.2824387550354, -0.27942174673080444, -0.5728664994239807, -1.3002287149429321, 0.8759765625, 0.290283203125, -0.39501953125
484, 3935436808, -7.266082286834717, -1.3748981952667236, 6.276744842529297, -0.25064584612846375, -0.6955385208129883, -1.3229598999023438, 0.87548828125, 0.290283203125, -0.3984375
485, 3935453475, -7.261451721191406, -1.3896337747573853, 6.268876075744629, -0.302012175321579, -0.8084776401519775, -1.3216538429260254, 0.875244140625, 0.288330078125, -0.39599609375
486, 3935470142, -7.266299724578857, -1.38728666305542, 6.286121368408203, -0.33795955777168274, -0.7821478247642517, -1.3474969863891602, 0.87744140625, 0.291259765625, -0.39794921875
487, 3935486809, -7.267871379852295, -1.3777328729629517, 6.306190013885498, -0.267627090215683, -0.7695335149765015, -1.4104784727096558, 0.8759765625, 0.290283203125, -0.3994140625
488, 3935503476, -7.269034385681152, -1.3740524053573608, 6.27864933013916, -0.27888384461402893, -0.8304020762443542, -1.5001612901687622, 0.877197265625, 0.290283203125, -0.39697265625
489, 3935520143, -7.262338161468506, -1.3958141803741455, 6.253383159637451, -0.3831403851509094, -0.7055146098136902, -1.5329841375350952, 0.8759765625, 0.29150390625, -0.39697265625
490, 3935536810, -7.255122661590576, -1.399023413658142, 6.292723178863525, -0.38060471415519714, -0.6215305924415588, -1.5709806680679321, 0.87548828125, 0.290771484375, -0.3984375
491, 3935553477, -7.259756565093994, -1.3849691152572632, 6.283411502838135, -0.47079986333847046, -0.655710756778717, -1.5427168607711792, 0.877685546875, 0.291015625, -0.39697265625
492, 3935570144, -7.2495245933532715, -1.4021636247634888, 6.260812282562256, -0.312846302986145, -0.5710094571113586, -1.3905646800994873, 0.87646484375, 0.29345703125, -0.39794921875
493, 3935586811, -7.2596564292907715, -1.42929208278656, 6.269273281097412, -0.22253595292568207, -0.682924211025238, -1.400272011756897, 0.878173828125, 0.2919921875, -0.39599609375
494, 3935603478, -7.2646589279174805, -1.3870933055877686, 6.269092082977295, -0.3812578320503235, -0.6414444446563721, -1.3991448879241943, 0.875732421875, 0.287841796875, -0.3974609375
495, 3935620145, -7.265477657318115, -1.3863317966461182, 6.265904903411865, -0.46577978134155273, -0.5136627554893494, -1.547954797744751, 0.87646484375, 0.290771484375, -0.3984375
496, 3935636812, -7.264974594116211, -1.3634005784988403, 6.288138389587402, -0.7270036339759827, -0.3161631226539612, -1.6868650913238525, 0.878173828125, 0.29248046875, -0.3974609375
497, 3935653479, -7.2679901123046875, -1.3888064622879028, 6.271811008453369, -1.1371783018112183, 0.1849108785390854, -2.1485726833343506, 0.87548828125, 0.29296875, -0.398681640625
498, 3935670146, -7.2643632888793945, -1.3834012746810913, 6.290341854095459, -1.4278055429458618, 0.6575740575790405, -2.5815038681030273, 0.8779296875, 0.29345703125, -0.39794921875
499, 3935686813, -7.268686771392822, -1.400281310081482, 6.254117965698242, -1.561568021774292, 0.7251660227775574, -2.592146158218384, 0.87744140625, 0.29248046875, -0.3974609375
500, 3935703480, -7.259583950042725, -1.4353675842285156, 6.222664833068848, -1.300574541091919, 0.49460047483444214, -2.2589504718780518, 0.877197265625, 0.29296875, -0.3935546875
501, 3935720147, -7.280583381652832, -1.4208204746246338, 6.260278701782227, -1.0083719491958618, 0.3135826885700226, -2.0894200801849365, 0.87548828125, 0.29443359375, -0.39599609375
502, 3935736814, -7.277677059173584, -1.4377824068069458, 6.261175155639648, -1.063196063041687, 0.18639643490314484, -1.9638025760650635, 0.87353515625, 0.2958984375, -0.39404296875
503, 3935753481, -7.281305313110352, -1.4026883840560913, 6.242794513702393, -0.8716385364532471, 0.014644061215221882, -1.8742733001708984, 0.87744140625, 0.2958984375, -0.3935546875
504, 3935770148, -7.276447772979736, -1.4382572174072266, 6.241603374481201, -0.6157293319702148, -0.14813104271888733, -1.6928074359893799, 0.87646484375, 0.29541015625, -0.39306640625
505, 3935786815, -7.284541606903076, -1.4119566679000854, 6.274741172790527, -0.8351148366928101, -0.052634093910455704, -1.8445111513137817, 0.87744140625, 0.29638671875, -0.392822265625
506, 3935803482, -7.280350685119629, -1.4325522184371948, 6.286386489868164, -1.0438584089279175, 0.41907501220703125, -1.9996092319488525, 0.877197265625, 0.29248046875, -0.393310546875
507, 3935820149, -7.284619331359863, -1.4506608247756958, 6.246603012084961, -0.8960475325584412, 0.31256458163261414, -1.8899227380752563, 0.8779296875, 0.297119140625, -0.39306640625
508, 3935836816, -7.283448219299316, -1.4587419033050537, 6.240525722503662, -0.7000463008880615, -0.09178310632705688, -1.6354349851608276, 0.8759765625, 0.29541015625, -0.39306640625
509, 3935853483, -7.274389266967773, -1.4364603757858276, 6.215914726257324, -0.39762434363365173, -0.3322991728782654, -1.294120192527771, 0.878662109375, 0.2939453125, -0.392822265625
510, 3935870150, -7.272943019866943, -1.4223759174346924, 6.2316789627075195, -0.2480589747428894, -0.5696008205413818, -1.2221354246139526, 0.876953125, 0.29638671875, -0.391845703125
511, 3935886817, -7.287202835083008, -1.4281764030456543, 6.260890007019043, -0.29832392930984497, -0.5781683325767517, -1.2325727939605713, 0.876953125, 0.296630859375, -0.39501953125
512, 3935903484, -7.283211708068848, -1.4324222803115845, 6.232784748077393, -0.3002960681915283, -0.5889768600463867, -1.256174921989441, 0.878662109375, 0.296142578125, -0.390869140625
513, 3935920151, -7.3063812255859375, -1.43314528465271, 6.248540878295898, -0.22324030101299286, -0.6099152565002441, -1.135551929473877, 0.8759765625, 0.296630859375, -0.392578125
514, 3935936818, -7.287178039550781, -1.4376089572906494, 6.229033946990967, -0.10042739659547806, -0.7963244318962097, -1.0010851621627808, 0.87646484375, 0.2939453125, -0.39404296875
515, 3935953485, -7.2765984535217285, -1.4449368715286255, 6.227144241333008, 0.006921832449734211, -1.0337798595428467, -0.9104803204536438, 0.876953125, 0.294921875, -0.390869140625
516, 3935970152, -7.291805267333984, -1.4467209577560425, 6.2288818359375, 0.11442474275827408, -1.1654547452926636, -0.7861691117286682, 0.87841796875, 0.296142578125, -0.392822265625
517, 3935986819, -7.281383514404297, -1.4212085008621216, 6.257143020629883, 0.15993209183216095, -1.2006208896636963, -0.7300772070884705, 0.877685546875, 0.29443359375, -0.393310546875
518, 3936003486, -7.28261661529541, -1.4390507936477661, 6.251908302307129, 0.19777487218379974, -1.1616384983062744, -0.7823654413223267, 0.877685546875, 0.294921875, -0.393310546875
519, 3936020153, -7.276345252990723, -1.416833758354187, 6.217739105224609, 0.09975505620241165, -1.0902941226959229, -0.8276486992835999, 0.876953125, 0.294921875, -0.392333984375
520, 3936036820, -7.277193546295166, -1.421825885772705, 6.245537281036377, -0.05136627331376076, -1.0571258068084717, -0.9126189351081848, 0.8759765625, 0.296630859375, -0.391845703125
521, 3936053487, -7.276841163635254, -1.4131497144699097, 6.2466139793396, -0.1302405744791031, -1.0764377117156982, -0.9978963136672974, 0.87744140625, 0.29541015625, -0.39404296875
522, 3936070154, -7.2853312492370605, -1.4237340688705444, 6.257232189178467, -0.24799497425556183, -0.6497686505317688, -1.2291022539138794, 0.878173828125, 0.294921875, -0.39404296875
523, 3936086821, -7.293899059295654, -1.4099037647247314, 6.244058609008789, -0.27095672488212585, -0.5311304926872253, -1.2517950534820557, 0.878662109375, 0.294921875, -0.3935546875
524, 3936103488, -7.285220146179199, -1.4463677406311035, 6.228438377380371, -0.2000671923160553, -0.6136738657951355, -1.1680351495742798, 0.87548828125, 0.29541015625, -0.392822265625
525, 3936120155, -7.281394004821777, -1.450320839881897, 6.255053520202637, -0.07397588342428207, -0.6150826215744019, -1.1023770570755005, 0.876953125, 0.2939453125, -0.3955078125
526, 3936136822, -7.273535251617432, -1.4401620626449585, 6.267245769500732, -0.20752689242362976, -0.41385000944137573, -0.9908017516136169, 0.87646484375, 0.294921875, -0.392822265625
527, 3936153489, -7.275909423828125, -1.4370942115783691, 6.255903720855713, -0.2372056096792221, -0.3251211941242218, -0.9479836225509644, 0.87744140625, 0.29443359375, -0.39404296875
528, 3936170156, -7.278332710266113, -1.4387832880020142, 6.228869915008545, -0.09387053549289703, -0.36601826548576355, -0.6921575665473938, 0.879150390625, 0.2939453125, -0.392333984375
529, 3936186823, -7.284140586853027, -1.4400743246078491, 6.25863790512085, 0.20906363427639008, -0.7214520573616028, -0.24684874713420868, 0.87744140625, 0.294921875, -0.392822265625
530, 3936203490, -7.278728485107422, -1.428261399269104, 6.245932102203369, 0.6369558572769165, -1.0830074548721313, 0.2701563835144043, 0.8779296875, 0.29541015625, -0.3935546875
531, 3936220157, -7.279751777648926, -1.4294025897979736, 6.237572193145752, 0.9550783038139343, -1.517693281173706, 0.7474873661994934, 0.876953125, 0.29443359375, -0.39404296875
532, 3936236824, -7.297527313232422, -1.4109599590301514, 6.25530481338501, 1.0829623937606812, -1.4912097454071045, 0.916287899017334, 0.87548828125, 0.2919921875, -0.39453125
533, 3936253491, -7.285462379455566, -1.381446361541748, 6.288269519805908, 0.7620546817779541, -1.2572442293167114, 0.7159261107444763, 0.87646484375, 0.29443359375, -0.39404296875
534, 3936270158, -7.286702632904053, -1.3490978479385376, 6.25819206237793, 0.4005122184753418, -0.6442747116088867, 0.4105395972728729, 0.878662109375, 0.29296875, -0.3955078125
535, 3936286825, -7.3028411865234375, -1.383531093597412, 6.252748489379883, 0.24673354625701904, -0.5259183645248413, -0.058512210845947266, 0.878662109375, 0.289794921875, -0.39697265625
536, 3936303492, -7.31449556350708, -1.374272108078003, 6.22899866104126, 0.17827077209949493, -0.5720211863517761, -0.11119753122329712, 0.8759765625, 0.29296875, -0.39453125
537, 3936320159, -7.308516025543213, -1.3724088668823242, 6.249447345733643, 0.1921272724866867, -0.5240870714187622, -0.33840781450271606, 0.879150390625, 0.289794921875, -0.392822265625
538, 3936336826, -7.311515808105469, -1.3563586473464966, 6.267958164215088, 0.2153835892677307, -0.5447565317153931, -0.5923448801040649, 0.876708984375, 0.290283203125, -0.39501953125
539, 3936353493, -7.323293685913086, -1.3473421335220337, 6.258050441741943, 0.1346907764673233, -0.5268276333808899, -0.8624307513237, 0.876220703125, 0.289306640625, -0.3955078125
540, 3936370160, -7.322442054748535, -1.3325448036193848, 6.235747337341309, 0.35374343395233154, -1.1785428524017334, -1.1486272811889648, 0.877197265625, 0.290283203125, -0.393798828125
541, 3936386827, -7.295735836029053, -1.456761360168457, 6.245046138763428, 0.7776976227760315, -2.6777567863464355, -1.0903711318969727, 0.880615234375, 0.289794921875, -0.393798828125
542, 3936403494, -7.403492450714111, -1.2000339031219482, 6.40099573135376, 1.716185450553894, -4.049227237701416, -0.03247690573334694, 0.878173828125, 0.289794921875, -0.393798828125
543, 3936420161, -7.439807415008545, -1.594771385192871, 6.254269123077393, 1.330643653869629, -3.0344133377075195, 2.477414131164551, 0.876708984375, 0.288330078125, -0.39697265625
544, 3936436828, -7.171205043792725, -1.830479383468628, 6.032505035400391, -0.09173190593719482, -4.6689534187316895, 5.152187824249268, 0.876220703125, 0.286376953125, -0.39599609375
545, 3936453495, -6.846238136291504, -0.9617382287979126, 6.314204216003418, 1.5790808200836182, -6.569198131561279, 2.2875924110412598, 0.875732421875, 0.28564453125, -0.3984375
546, 3936470162, -6.907476425170898, -0.4667961597442627, 6.4987030029296875, -0.5201171040534973, -2.5311877727508545, -6.17818021774292, 0.876708984375, 0.28369140625, -0.39794921875
547, 3936486829, -7.025959491729736, -0.9726176857948303, 6.307079792022705, -1.5937892198562622, -0.0538635216653347, -11.31467056274414, 0.877197265625, 0.288818359375, -0.3984375
548, 3936503496, -7.121061325073242, -1.5482946634292603, 6.238008975982666, -3.2041244506835938, 2.084035634994507, -9.226862907409668, 0.87646484375, 0.289306640625, -0.39892578125
549, 3936520163, -7.314624309539795, -2.05019474029541, 6.068173408508301, -4.363508701324463, 3.4302775859832764, -4.455137729644775, 0.875, 0.2919921875, -0.39794921875
550, 3936536830, -7.310882568359375, -1.6951829195022583, 6.255302906036377, -5.101551055908203, 3.588487148284912, -1.1642125844955444, 0.875, 0.29296875, -0.3955078125
551, 3936553497, -7.358997344970703, -1.1543099880218506, 6.497487545013428, -8.657955169677734, 7.276930809020996, -3.6151576042175293, 0.877197265625, 0.29345703125, -0.3935546875
552, 3936570164, -7.299622535705566, -1.2351473569869995, 6.433143138885498, -10.770329475402832, 12.181354522705078, -7.306722164154053, 0.878662109375, 0.296142578125, -0.390869140625
553, 3936586831, -7.365433216094971, -1.364367127418518, 6.2259626388549805, -11.589151382446289, 14.898669242858887, -10.739333152770996, 0.878173828125, 0.300048828125, -0.38623046875
554, 3936603498, -7.433533668518066, -1.5939265489578247, 6.021165370941162, -11.672584533691406, 13.399297714233398, -13.46863842010498, 0.87890625, 0.308349609375, -0.38134765625
555, 3936620165, -7.54188871383667, -1.873034119606018, 5.911904335021973, -8.764302253723145, 8.474348068237305, -10.652857780456543, 0.8779296875, 0.31201171875, -0.376708984375
556, 3936636832, -7.527904510498047, -1.9923921823501587, 5.879530906677246, -2.830958843231201, 0.4642750024795532, -4.065337657928467, 0.8759765625, 0.31591796875, -0.374267578125
557, 3936653499, -7.415703296661377, -1.9381442070007324, 5.996412754058838, 3.7661304473876953, -5.844088554382324, 3.088174819946289, 0.875244140625, 0.31396484375, -0.376708984375
558, 3936670166, -7.31571102142334, -1.9293270111083984, 6.087010383605957, 6.657443046569824, -9.509411811828613, 7.14591646194458, 0.87646484375, 0.311279296875, -0.3798828125
559, 3936686833, -7.294169902801514, -2.0776515007019043, 6.017368793487549, 9.140037536621094, -12.76320743560791, 10.753536224365234, 0.876953125, 0.309326171875, -0.38427734375
560, 3936703500, -7.34959602355957, -2.0627894401550293, 6.058608055114746, 11.754918098449707, -15.72964096069336, 15.499463081359863, 0.873046875, 0.302490234375, -0.386962890625
561, 3936720167, -7.373353481292725, -1.7870992422103882, 6.193723201751709, 12.621149063110352, -17.463071823120117, 19.13381004333496, 0.87255859375, 0.29736328125, -0.39208984375
562, 3936736834, -7.3668107986450195, -1.3994559049606323, 6.275903224945068, 11.01053237915039, -16.932249069213867, 19.09052848815918, 0.87060546875, 0.292724609375, -0.39453125
563, 3936753501, -7.277213096618652, -0.652165412902832, 6.4521098136901855, 7.2875590324401855, -13.969353675842285, 14.109986305236816, 0.869140625, 0.287109375, -0.400634765625
564, 3936770168, -7.141593933105469, -0.29389649629592896, 6.6335883140563965, 0.7835182547569275, -6.888082504272461, 6.493934154510498, 0.87109375, 0.282470703125, -0.400146484375
565, 3936786835, -7.0785231590271, -0.9932645559310913, 6.388017654418945, -6.993663311004639, 3.491645574569702, 1.4198976755142212, 0.87109375, 0.283203125, -0.400634765625
566, 3936803502, -7.232548236846924, -2.2813034057617188, 5.983236789703369, -11.032920837402344, 7.213366508483887, 0.9718168377876282, 0.87255859375, 0.28369140625, -0.39697265625
567, 3936820169, -7.34068489074707, -2.7906343936920166, 5.870278358459473, -9.124759674072266, 0.9513011574745178, 8.823561668395996, 0.8720703125, 0.28466796875, -0.39453125
568, 3936836836, -7.074885845184326, -0.8920384645462036, 6.569028854370117, -5.130995750427246, -2.3622095584869385, 13.642289161682129, 0.873291015625, 0.281005859375, -0.391845703125
569, 3936853503, -7.16298770904541, 0.25659894943237305, 6.893970012664795, -6.6775665283203125, 6.873189926147461, 6.4408345222473145, 0.871826171875, 0.281982421875, -0.392822265625
570, 3936870170, -7.206979274749756, -0.21376332640647888, 6.826685905456543, -11.445708274841309, 18.535654067993164, -3.4162662029266357, 0.873779296875, 0.281494140625, -0.3857421875
571, 3936886837, -7.414905071258545, -0.638723611831665, 6.381420135498047, -14.070213317871094, 24.918895721435547, -9.077911376953125, 0.8759765625, 0.28369140625, -0.3779296875
572, 3936903504, -7.5617194175720215, -1.2360187768936157, 5.79000186920166, -12.202869415283203, 21.592784881591797, -10.602916717529297, 0.87744140625, 0.286865234375, -0.372314453125
573, 3936920171, -7.604389667510986, -1.5517915487289429, 5.510678291320801, -3.378110885620117, 5.913698196411133, -5.616468906402588, 0.8779296875, 0.290283203125, -0.369384765625
574, 3936936838, -7.546280860900879, -1.400221824645996, 5.740095138549805, 3.713106393814087, -9.276666641235352, -1.5320497751235962, 0.87841796875, 0.289794921875, -0.369873046875
575, 3936953505, -7.318686008453369, -0.8731258511543274, 6.306781768798828, 4.800675868988037, -15.663639068603516, -3.695736885070801, 0.876708984375, 0.290771484375, -0.376953125
576, 3936970172, -7.300209999084473, -0.9305797219276428, 6.530354022979736, 0.10374428331851959, -8.580424308776855, -9.188791275024414, 0.877197265625, 0.290771484375, -0.380615234375
577, 3936986839, -7.432816028594971, -1.0964055061340332, 6.326578617095947, -3.829421043395996, -2.251422166824341, -14.04816722869873, 0.875732421875, 0.29345703125, -0.380615234375
578, 3937003506, -7.4620041847229, -1.4712915420532227, 6.155214786529541, -1.93720543384552, -2.621603012084961, -15.046295166015625, 0.877197265625, 0.296142578125, -0.381103515625
579, 3937020173, -7.268163204193115, -2.155505657196045, 6.230804920196533, -0.5876197218894958, -2.552255630493164, -11.64328384399414, 0.8759765625, 0.300537109375, -0.380859375
580, 3937036840, -7.211271286010742, -1.7255512475967407, 6.368207931518555, -3.680494785308838, 5.320303916931152, -8.386394500732422, 0.87548828125, 0.3017578125, -0.379638671875
581, 3937053507, -7.310413837432861, -1.1667790412902832, 6.4104156494140625, -7.082535266876221, 12.586256980895996, -11.212601661682129, 0.87646484375, 0.30615234375, -0.378662109375
582, 3937070174, -7.387515544891357, -1.141197919845581, 6.131693363189697, -9.234895706176758, 15.566650390625, -16.258731842041016, 0.877685546875, 0.306884765625, -0.37158203125
583, 3937086841, -7.482163906097412, -1.7014025449752808, 6.015467643737793, -11.525069236755371, 15.546299934387207, -20.449031829833984, 0.87890625, 0.3134765625, -0.36865234375
584, 3937103508, -7.525999069213867, -2.0909223556518555, 6.021565914154053, -10.889054298400879, 13.409842491149902, -19.292266845703125, 0.880859375, 0.320068359375, -0.363525390625
585, 3937120175, -7.537304401397705, -2.0083086490631104, 5.808832168579102, -8.97577953338623, 10.137938499450684, -15.751155853271484, 0.8798828125, 0.322265625, -0.36083984375
586, 3937136842, -7.444284915924072, -1.9061322212219238, 5.928997039794922, -7.670907974243164, 4.7714643478393555, -13.60624885559082, 0.88232421875, 0.3251953125, -0.35986328125
587, 3937153509, -7.4534010887146, -1.8887031078338623, 5.95100736618042, -6.5907416343688965, 4.225374698638916, -12.400550842285156, 0.883544921875, 0.325439453125, -0.359375
588, 3937170176, -7.318885326385498, -2.2294442653656006, 5.806925296783447, -4.444701671600342, 1.799702525138855, -9.448029518127441, 0.884033203125, 0.326416015625, -0.357421875
589, 3937186843, -7.317359924316406, -2.2226855754852295, 5.778005599975586, -2.0204195976257324, -0.998357355594635, -5.0451130867004395, 0.884521484375, 0.326416015625, -0.35888671875
590, 3937203510, -7.337567329406738, -2.004340648651123, 5.856669902801514, 0.37130093574523926, -4.9170241355896, -2.2783780097961426, 0.887451171875, 0.325927734375, -0.359375
591, 3937220177, -7.402541637420654, -2.0332624912261963, 5.907006740570068, 0.9002031683921814, -4.356476783752441, -1.9704489707946777, 0.885009765625, 0.325927734375, -0.36083984375
592, 3937236844, -7.276690483093262, -2.228572368621826, 5.893393039703369, 1.737981915473938, -3.9836971759796143, 0.3957097828388214, 0.884033203125, 0.325439453125, -0.361083984375
593, 3937253511, -7.360892295837402, -1.7998509407043457, 6.083956718444824, 1.35999596118927, -3.324105978012085, 2.560027599334717, 0.88232421875, 0.3251953125, -0.361572265625
594, 3937270178, -7.413333892822266, -1.9401344060897827, 5.952296733856201, 0.19902350008487701, -2.429243326187134, 3.177947521209717, 0.884521484375, 0.324951171875, -0.361572265625
595, 3937286845, -7.369659900665283, -1.628519058227539, 6.075257301330566, -0.1513838768005371, -1.6434005498886108, 2.072547674179077, 0.885498046875, 0.322265625, -0.361328125
596, 3937303512, -7.3705220222473145, -1.4094595909118652, 6.079277515411377, -0.7896523475646973, -0.17189966142177582, -0.4840160310268402, 0.884521484375, 0.32470703125, -0.361328125
597, 3937320179, -7.412808418273926, -1.659474492073059, 6.147013187408447, -1.808961272239685, 2.1038079261779785, -2.912663459777832, 0.885498046875, 0.32275390625, -0.359375
598, 3937336846, -7.465535640716553, -1.9567232131958008, 5.865499973297119, -1.8367633819580078, 2.0258171558380127, -2.003053903579712, 0.883056640625, 0.32421875, -0.359375
599, 3937353513, -7.389248847961426, -1.932576060295105, 5.888186454772949, -1.1366146802902222, 1.0314233303070068, -0.026842107996344566, 0.887451171875, 0.323974609375, -0.3603515625
600, 3937370180, -7.358800411224365, -1.9695531129837036, 5.845499515533447, 0.1843665987253189, -0.2750547528266907, 1.9049124717712402, 0.887939453125, 0.325439453125, -0.36083984375
601, 3937386847, -7.3899970054626465, -1.7677841186523438, 5.910926342010498, 1.456587791442871, -1.7443017959594727, 2.3454511165618896, 0.8876953125, 0.32275390625, -0.357421875
602, 3937403514, -7.3685994148254395, -1.613069772720337, 6.095347881317139, 2.0294477939605713, -1.1116615533828735, 1.2340070009231567, 0.886962890625, 0.3212890625, -0.359375
603, 3937420181, -7.399621963500977, -1.7569888830184937, 6.018523693084717, 2.638383150100708, 0.47298330068588257, 0.6812017560005188, 0.884521484375, 0.3203125, -0.35791015625
604, 3937436848, -7.4575018882751465, -1.793472409248352, 6.003159523010254, 2.618642568588257, 1.2230064868927002, 0.446762353181839, 0.884033203125, 0.32275390625, -0.35888671875
605, 3937453515, -7.492485523223877, -1.8158009052276611, 6.0289411544799805, 1.8738957643508911, 1.6620784997940063, 0.07238789647817612, 0.885986328125, 0.31982421875, -0.3603515625
606, 3937470182, -7.463245868682861, -1.850353717803955, 5.925113677978516, 1.3832712173461914, 1.370656967163086, 0.2630615830421448, 0.88623046875, 0.3203125, -0.35693359375
607, 3937486849, -7.410486698150635, -1.721358060836792, 5.955896377563477, 1.4992328882217407, 0.2919143736362457, 0.3154140114784241, 0.88818359375, 0.31982421875, -0.3583984375
608, 3937503516, -7.442171573638916, -1.6683461666107178, 6.007598400115967, 1.4311161041259766, 1.000989317893982, -0.36603111028671265, 0.885986328125, 0.319091796875, -0.359375
609, 3937520183, -7.482131004333496, -1.7838853597640991, 5.9595046043396, 0.9472153186798096, 1.7406198978424072, -0.8135617971420288, 0.88720703125, 0.3193359375, -0.357177734375
610, 3937536850, -7.463897228240967, -1.8418718576431274, 5.976884365081787, 1.1022104024887085, 1.7099485397338867, -0.25708746910095215, 0.8857421875, 0.317626953125, -0.357421875
611, 3937553517, -7.480200290679932, -1.8220237493515015, 5.913830757141113, 1.3134255409240723, 1.199743628501892, 0.4777088165283203, 0.88623046875, 0.317626953125, -0.359375
612, 3937570184, -7.52335262298584, -1.6685994863510132, 5.960951328277588, 1.023777961730957, 0.7972977757453918, 0.11140243709087372, 0.890625, 0.317138671875, -0.35791015625
613, 3937586851, -7.476978302001953, -1.7286525964736938, 5.952054500579834, 0.7264209389686584, 1.0688626766204834, -0.5553601384162903, 0.8896484375, 0.316162109375, -0.355712890625
614, 3937603518, -7.486716270446777, -1.7450801134109497, 5.9502973556518555, 0.8364915251731873, 1.8456063270568848, -0.9562244415283203, 0.88818359375, 0.315673828125, -0.354736328125
615, 3937620185, -7.539317607879639, -1.7475149631500244, 5.9331278800964355, 0.7326641082763672, 1.7048195600509644, -1.017208456993103, 0.89013671875, 0.31787109375, -0.357666015625
616, 3937636852, -7.536677360534668, -1.6978999376296997, 5.922389507293701, -0.027597682550549507, 1.2275974750518799, -1.713668942451477, 0.88623046875, 0.318115234375, -0.352783203125
617, 3937653519, -7.509472846984863, -1.752733826637268, 5.914034843444824, -0.41071248054504395, 0.8858088254928589, -2.0486574172973633, 0.88916015625, 0.31787109375, -0.352294921875
618, 3937670186, -7.5053911209106445, -1.734658122062683, 5.923137187957764, -0.3828970193862915, 0.09274998307228088, -1.8041328191757202, 0.88818359375, 0.316650390625, -0.355712890625
619, 3937686853, -7.465965270996094, -1.7647740840911865, 5.9225969314575195, -0.022372690960764885, -0.6058428287506104, -1.4661221504211426, 0.890625, 0.317626953125, -0.354736328125
620, 3937703520, -7.476216793060303, -1.7893811464309692, 5.89326810836792, 0.34028390049934387, -0.5773870944976807, -0.8133184313774109, 0.88916015625, 0.316650390625, -0.354248046875
621, 3937720187, -7.492249488830566, -1.7887324094772339, 5.878803253173828, 1.075842261314392, -1.4292142391204834, 0.006409577559679747, 0.8876953125, 0.317626953125, -0.353759765625
622, 3937736854, -7.501023292541504, -1.7541571855545044, 5.900044918060303, 2.1606616973876953, -2.7016401290893555, 0.7609148025512695, 0.88818359375, 0.316650390625, -0.354248046875
623, 3937753521, -7.506284713745117, -1.7023320198059082, 5.916721820831299, 3.269723892211914, -4.079629898071289, 1.5659799575805664, 0.888671875, 0.317138671875, -0.356689453125
624, 3937770188, -7.496287822723389, -1.716868281364441, 5.950092315673828, 3.6514041423797607, -4.767292022705078, 1.657135248184204, 0.888916015625, 0.312744140625, -0.356689453125
625, 3937786855, -7.471198081970215, -1.7027060985565186, 5.949840068817139, 3.9624195098876953, -5.169577598571777, 1.9372103214263916, 0.888671875, 0.313232421875, -0.356201171875
626, 3937803522, -7.474139213562012, -1.7048695087432861, 5.965845584869385, 3.942519187927246, -5.31943941116333, 2.0033938884735107, 0.8876953125, 0.3115234375, -0.35888671875
627, 3937820189, -7.476667404174805, -1.6757092475891113, 6.023150444030762, 3.1160218715667725, -4.613654136657715, 1.4183225631713867, 0.890380859375, 0.3115234375, -0.35986328125
628, 3937836856, -7.460357189178467, -1.5923268795013428, 6.03231143951416, 1.9463794231414795, -2.877509832382202, 0.30194172263145447, 0.88720703125, 0.307861328125, -0.35986328125
629, 3937853523, -7.458230495452881, -1.6075390577316284, 6.046588897705078, 1.2114548683166504, -1.4660578966140747, -0.3816547691822052, 0.889404296875, 0.3095703125, -0.36328125
630, 3937870190, -7.451002597808838, -1.6571695804595947, 5.995016574859619, 0.9188747406005859, -0.9751394987106323, -0.536880612373352, 0.88818359375, 0.31005859375, -0.3642578125
631, 3937886857, -7.454715728759766, -1.69200599193573, 5.986670017242432, 0.9413372278213501, -0.9692997932434082, -0.2892954349517822, 0.888427734375, 0.307861328125, -0.3603515625
632, 3937903524, -7.460176944732666, -1.677767038345337, 5.983904838562012, 0.9982612729072571, -0.9111589789390564, 0.03733690828084946, 0.888427734375, 0.30810546875, -0.3623046875
633, 3937920191, -7.451662540435791, -1.646567940711975, 5.970407485961914, 1.2148807048797607, -1.131517767906189, 0.5254765152931213, 0.887451171875, 0.306396484375, -0.3603515625
634, 3937936858, -7.452946662902832, -1.653271198272705, 5.980652332305908, 1.4484686851501465, -1.5866940021514893, 0.7702059149742126, 0.88623046875, 0.305419921875, -0.36328125
635, 3937953525, -7.47818660736084, -1.6389110088348389, 5.980055332183838, 1.7476252317428589, -2.1905903816223145, 1.2177367210388184, 0.887939453125, 0.306396484375, -0.3642578125
636, 3937970192, -7.4702348709106445, -1.6350977420806885, 5.9850945472717285, 2.1879005432128906, -3.1687004566192627, 1.6278406381607056, 0.887939453125, 0.304931640625, -0.36376953125
637, 3937986859, -7.469767093658447, -1.63435959815979, 6.003298282623291, 2.560091733932495, -4.350636959075928, 2.1002540588378906, 0.888916015625, 0.304443359375, -0.36279296875
638, 3938003526, -7.432318210601807, -1.6260221004486084, 5.996851921081543, 2.7885830402374268, -5.181046962738037, 2.204779863357544, 0.888427734375, 0.303955078125, -0.366455078125
639, 3938020193, -7.4185590744018555, -1.5195527076721191, 6.079889297485352, 1.874062180519104, -3.837794065475464, 1.1985143423080444, 0.887939453125, 0.29931640625, -0.367919921875
640, 3938036860, -7.439974308013916, -1.4884533882141113, 6.105792045593262, 1.2540169954299927, -2.1297857761383057, 0.40576279163360596, 0.88525390625, 0.30224609375, -0.367919921875
641, 3938053527, -7.433979511260986, -1.5502378940582275, 6.071369647979736, 0.946600615978241, -1.3604696989059448, 0.04499511048197746, 0.887939453125, 0.30126953125, -0.366455078125
642, 3938070194, -7.4353837966918945, -1.5712945461273193, 6.041234016418457, 0.785010039806366, -1.0024937391281128, 0.007459698244929314, 0.888427734375, 0.30078125, -0.367919921875
643, 3938086861, -7.444430351257324, -1.56839120388031, 6.043012619018555, 0.879764199256897, -1.1992379426956177, 0.1393907070159912, 0.885986328125, 0.298095703125, -0.366455078125
644, 3938103528, -7.434959411621094, -1.546160101890564, 6.029488563537598, 1.0877777338027954, -1.8836731910705566, 0.3469688296318054, 0.887451171875, 0.2998046875, -0.369873046875
645, 3938120195, -7.426716327667236, -1.542309045791626, 6.026642799377441, 1.3324944972991943, -2.7452588081359863, 0.4732266664505005, 0.888916015625, 0.297607421875, -0.368408203125
646, 3938136862, -7.426661014556885, -1.5658810138702393, 6.015472888946533, 1.5423905849456787, -3.629115104675293, 0.7562342882156372, 0.886474609375, 0.29833984375, -0.370849609375
647, 3938153529, -7.440637588500977, -1.5860766172409058, 6.008785247802734, 2.224149227142334, -4.908200263977051, 1.4573819637298584, 0.88525390625, 0.2998046875, -0.3740234375
648, 3938170196, -7.422868728637695, -1.5375306606292725, 6.054582595825195, 2.7686753273010254, -6.432156085968018, 1.8341447114944458, 0.885986328125, 0.296142578125, -0.375
649, 3938186863, -7.398802280426025, -1.5119428634643555, 6.10839319229126, 2.831721305847168, -6.7431840896606445, 1.7965198755264282, 0.887451171875, 0.294189453125, -0.372314453125
650, 3938203530, -7.382069110870361, -1.4603818655014038, 6.137238025665283, 2.3643407821655273, -5.848430633544922, 1.326590895652771, 0.884033203125, 0.2919921875, -0.3759765625
