sep=,
DeviceTag:,A,,,,,,,,,,,,,,,,,
FirmwareVersion:,2.2.1,,,,,,,,,,,,,,,,,
AppVersion:,2023.6.1,,,,,,,,,,,,,,,,,
SyncStatus:,Synced,,,,,,,,,,,,,,,,,
OutputRate:,60Hz,,,,,,,,,,,,,,,,,
FilterProfile:,General,,,,,,,,,,,,,,,,,
Measurement Mode:,Inertial Mode - Rate quantities (with mag),,,,,,,,,,,,,,,,,
StartTime:,2023-12-07 13:06:57.285 +0200,,,,,,,,,,,,,,,,,
 2023,,,,,,,,,,,,,,,,,,,

PacketCounter,SampleTimeFine,Acc_X,Acc_Y,Acc_Z,Gyr_X,Gyr_Y,Gyr_Z,Mag_X,Mag_Y,Mag_Z
1, 2455944278, -6.795543193817139, -0.8605137467384338, 7.11624813079834, -2.150160312652588, -1.4513691663742065, -1.910489559173584, 1.1220703125, -0.414794921875, 0.05908203125
2, 2455960945, -6.817692279815674, -0.8481237888336182, 7.095515727996826, -2.1189393997192383, -1.4951282739639282, -1.896813988685608, 1.12109375, -0.413818359375, 0.056396484375
3, 2455977612, -6.824009418487549, -0.8243333101272583, 7.107395648956299, -2.1114213466644287, -1.6464226245880127, -1.796052098274231, 1.12060546875, -0.414306640625, 0.05908203125
4, 2455994279, -6.810810089111328, -0.8340434432029724, 7.122373580932617, -2.103814125061035, -1.6777853965759277, -1.8715070486068726, 1.12158203125, -0.414306640625, 0.056640625
5, 2456010946, -6.796871662139893, -0.8384692668914795, 7.10971736907959, -2.0981411933898926, -1.622820496559143, -1.8899353742599487, 1.11962890625, -0.417236328125, 0.05908203125
6, 2456027613, -6.794122219085693, -0.8574869632720947, 7.123417377471924, -2.174185037612915, -1.4807981252670288, -1.8462272882461548, 1.12353515625, -0.415771484375, 0.05810546875
7, 2456044280, -6.814157485961914, -0.8418193459510803, 7.113322734832764, -2.2025129795074463, -1.369767189025879, -1.8411688804626465, 1.11865234375, -0.415771484375, 0.05810546875
8, 2456060947, -6.811511993408203, -0.827039897441864, 7.133311748504639, -2.195815324783325, -1.3953927755355835, -1.946462869644165, 1.1220703125, -0.415283203125, 0.05615234375
9, 2456077614, -6.817811965942383, -0.8405765891075134, 7.115828037261963, -2.1891558170318604, -1.4749457836151123, -1.961510181427002, 1.12109375, -0.415283203125, 0.05859375
10, 2456094281, -6.808189392089844, -0.852048933506012, 7.125437259674072, -2.1506597995758057, -1.683279275894165, -2.035799741744995, 1.1201171875, -0.416259765625, 0.056640625
11, 2456110948, -6.812432765960693, -0.8547438383102417, 7.117819309234619, -2.07231068611145, -1.8148517608642578, -2.0407814979553223, 1.12353515625, -0.415771484375, 0.05908203125
12, 2456127615, -6.798333168029785, -0.8466748595237732, 7.118239879608154, -2.1740188598632812, -1.7745758295059204, -1.9908238649368286, 1.1201171875, -0.416748046875, 0.05712890625
13, 2456144282, -6.8035478591918945, -0.8433077335357666, 7.1257829666137695, -2.2522530555725098, -1.5428707599639893, -1.9947044849395752, 1.1201171875, -0.416748046875, 0.05712890625
14, 2456160949, -6.8216071128845215, -0.8080030083656311, 7.120718002319336, -2.410731315612793, -1.2797257900238037, -2.0858726501464844, 1.1220703125, -0.413818359375, 0.056640625
15, 2456177616, -6.812924385070801, -0.8551238179206848, 7.105341911315918, -2.446704149246216, -1.0980677604675293, -2.1660914421081543, 1.1220703125, -0.416748046875, 0.0576171875
16, 2456194283, -6.812018394470215, -0.8463135957717896, 7.109524250030518, -2.4557583332061768, -0.9987799525260925, -2.0573275089263916, 1.12060546875, -0.415283203125, 0.05712890625
17, 2456210950, -6.833355903625488, -0.8131005764007568, 7.113328456878662, -2.432143449783325, -1.1085944175720215, -2.038015127182007, 1.12060546875, -0.416259765625, 0.05859375
18, 2456227617, -6.827602386474609, -0.8245230913162231, 7.1215057373046875, -2.4566164016723633, -1.2071393728256226, -2.25791335105896, 1.12158203125, -0.4130859375, 0.0595703125
19, 2456244284, -6.8198699951171875, -0.8432589769363403, 7.112486362457275, -2.4334752559661865, -1.4517148733139038, -2.3270418643951416, 1.11962890625, -0.415771484375, 0.0595703125
20, 2456260951, -6.823221206665039, -0.8300825953483582, 7.101489543914795, -2.4656319618225098, -1.5327279567718506, -2.383031129837036, 1.11865234375, -0.416748046875, 0.05859375
21, 2456277618, -6.820298671722412, -0.8444857001304626, 7.133962631225586, -2.3852596282958984, -1.5787413120269775, -2.3582892417907715, 1.11962890625, -0.416748046875, 0.056640625
22, 2456294285, -6.819416522979736, -0.8376424908638, 7.101914882659912, -2.334559202194214, -1.6761975288391113, -2.2822580337524414, 1.12109375, -0.417724609375, 0.05810546875
23, 2456310952, -6.809372901916504, -0.8367107510566711, 7.102929592132568, -2.383364200592041, -1.6062493324279785, -2.2786338329315186, 1.12255859375, -0.416748046875, 0.0595703125
24, 2456327619, -6.820346832275391, -0.8290786147117615, 7.129430770874023, -2.501835823059082, -1.4934637546539307, -2.3497347831726074, 1.12060546875, -0.417724609375, 0.05712890625
25, 2456344286, -6.8126935958862305, -0.8533889055252075, 7.130392074584961, -2.5083413124084473, -1.5658453702926636, -2.376999616622925, 1.123046875, -0.415771484375, 0.05712890625
26, 2456360953, -6.823335647583008, -0.8481571078300476, 7.117121696472168, -2.3527700901031494, -1.5784467458724976, -2.3087289333343506, 1.1220703125, -0.415771484375, 0.0576171875
27, 2456377620, -6.813914775848389, -0.8254500031471252, 7.1308135986328125, -2.368943929672241, -1.7050373554229736, -2.341679334640503, 1.12109375, -0.416259765625, 0.055419921875
28, 2456394287, -6.812889099121094, -0.8240488767623901, 7.110809326171875, -2.3052453994750977, -1.748054027557373, -2.2788772583007812, 1.11962890625, -0.416259765625, 0.05712890625
29, 2456410954, -6.806958198547363, -0.8160192966461182, 7.112522602081299, -2.2596805095672607, -1.8326400518417358, -2.3103935718536377, 1.12158203125, -0.417236328125, 0.0576171875
30, 2456427621, -6.81942081451416, -0.8221517205238342, 7.110870838165283, -2.2214150428771973, -1.96120285987854, -2.321484088897705, 1.12109375, -0.415771484375, 0.0595703125
31, 2456444288, -6.796482086181641, -0.8669875264167786, 7.115716934204102, -2.0335843563079834, -1.974687933921814, -2.2551724910736084, 1.12109375, -0.416259765625, 0.05712890625
32, 2456460955, -6.7905659675598145, -0.8432550430297852, 7.140770435333252, -1.9899787902832031, -1.8012771606445312, -2.0385019779205322, 1.12109375, -0.415771484375, 0.05810546875
33, 2456477622, -6.806572437286377, -0.835594892501831, 7.121181964874268, -2.1724562644958496, -1.8513885736465454, -2.09540057182312, 1.12158203125, -0.418701171875, 0.05712890625
34, 2456494289, -6.81717586517334, -0.8445931077003479, 7.117096424102783, -2.214294672012329, -1.7382185459136963, -2.080941915512085, 1.12060546875, -0.416748046875, 0.05810546875
35, 2456510956, -6.796650409698486, -0.8304322957992554, 7.119669437408447, -2.2860360145568848, -1.615674614906311, -2.1941885948181152, 1.11962890625, -0.418212890625, 0.056396484375
36, 2456527623, -6.799951553344727, -0.8175804018974304, 7.10750675201416, -2.3441381454467773, -1.6923205852508545, -2.266979932785034, 1.12060546875, -0.417724609375, 0.05908203125
37, 2456544290, -6.81821346282959, -0.820295512676239, 7.121488571166992, -2.505063056945801, -1.524980068206787, -2.2936172485351562, 1.11865234375, -0.417236328125, 0.056884765625
38, 2456560957, -6.801609039306641, -0.8505174517631531, 7.1327362060546875, -2.4039406776428223, -1.5534708499908447, -2.277703046798706, 1.12158203125, -0.415283203125, 0.054931640625
39, 2456577624, -6.805670738220215, -0.8466715812683105, 7.121127128601074, -2.4442455768585205, -1.462395429611206, -2.310316562652588, 1.11962890625, -0.417236328125, 0.05712890625
40, 2456594291, -6.809063911437988, -0.8415331244468689, 7.126087188720703, -2.4002304077148438, -1.5504904985427856, -2.320497989654541, 1.12060546875, -0.417236328125, 0.05712890625
41, 2456610958, -6.803108215332031, -0.8417360782623291, 7.1144304275512695, -2.4972126483917236, -1.5699048042297363, -2.2661988735198975, 1.1201171875, -0.417724609375, 0.05908203125
42, 2456627625, -6.812275409698486, -0.8421211242675781, 7.126061916351318, -2.3503365516662598, -1.6563221216201782, -2.1983251571655273, 1.11962890625, -0.417724609375, 0.056640625
43, 2456644292, -6.80940580368042, -0.8373685479164124, 7.125883102416992, -2.3580329418182373, -1.5912144184112549, -2.13944149017334, 1.11962890625, -0.415771484375, 0.055419921875
44, 2456660959, -6.798793315887451, -0.8352699279785156, 7.131958484649658, -2.298983097076416, -1.5128140449523926, -2.1512362957000732, 1.12255859375, -0.417236328125, 0.0576171875
45, 2456677626, -6.809458255767822, -0.8406354784965515, 7.109824180603027, -2.3706729412078857, -1.52603018283844, -2.122344970703125, 1.11962890625, -0.416748046875, 0.055908203125
46, 2456694293, -6.808156967163086, -0.829286515712738, 7.107795238494873, -2.3796372413635254, -1.413424015045166, -2.1314120292663574, 1.12255859375, -0.416748046875, 0.0576171875
47, 2456710960, -6.811863899230957, -0.8280144929885864, 7.127009868621826, -2.299264907836914, -1.4601672887802124, -2.125610828399658, 1.11962890625, -0.416259765625, 0.05908203125
48, 2456727627, -6.806789398193359, -0.8308203220367432, 7.139167785644531, -2.392059564590454, -1.4439671039581299, -2.07804799079895, 1.12060546875, -0.417724609375, 0.05712890625
49, 2456744294, -6.794243812561035, -0.8378154635429382, 7.136439800262451, -2.331101417541504, -1.4488205909729004, -2.101534605026245, 1.11962890625, -0.416748046875, 0.05908203125
50, 2456760961, -6.817775726318359, -0.8235241174697876, 7.118993759155273, -2.445359468460083, -1.3528114557266235, -2.1526706218719482, 1.123046875, -0.414794921875, 0.056640625
51, 2456777628, -6.813194274902344, -0.8317936062812805, 7.133591651916504, -2.2958197593688965, -1.5131086111068726, -2.134267568588257, 1.12158203125, -0.416748046875, 0.056640625
52, 2456794295, -6.819402694702148, -0.8145965933799744, 7.111224174499512, -2.2761623859405518, -1.5010579824447632, -2.2438137531280518, 1.12109375, -0.416259765625, 0.05712890625
53, 2456810962, -6.815577983856201, -0.8483561277389526, 7.127875804901123, -2.322866916656494, -1.6291468143463135, -2.168050765991211, 1.119140625, -0.416259765625, 0.0595703125
54, 2456827629, -6.828084468841553, -0.8222295641899109, 7.118953227996826, -2.2262558937072754, -1.6615853309631348, -2.1320908069610596, 1.1201171875, -0.417724609375, 0.0576171875
55, 2456844296, -6.799643039703369, -0.8314261436462402, 7.111674785614014, -2.302441120147705, -1.5595444440841675, -2.1576650142669678, 1.123046875, -0.417236328125, 0.05712890625
56, 2456860963, -6.792858123779297, -0.8150254487991333, 7.119753360748291, -2.374117851257324, -1.4646493196487427, -2.154015302658081, 1.12109375, -0.417236328125, 0.054443359375
57, 2456877630, -6.819305419921875, -0.8210950493812561, 7.113395690917969, -2.367023229598999, -1.4793510437011719, -2.102879524230957, 1.12060546875, -0.416748046875, 0.055908203125
58, 2456894297, -6.817963123321533, -0.8247004747390747, 7.121616363525391, -2.359761953353882, -1.4862408638000488, -2.1317577362060547, 1.1220703125, -0.416259765625, 0.05615234375
59, 2456910964, -6.801766872406006, -0.837437093257904, 7.132207870483398, -2.3250181674957275, -1.435489296913147, -2.0760884284973145, 1.12158203125, -0.416259765625, 0.0576171875
60, 2456927631, -6.8137922286987305, -0.8128976821899414, 7.133233070373535, -2.3246469497680664, -1.3246502876281738, -2.087050676345825, 1.1181640625, -0.417236328125, 0.05712890625
61, 2456944298, -6.818629741668701, -0.8204041123390198, 7.125299453735352, -2.355830669403076, -1.389207363128662, -2.148393392562866, 1.1220703125, -0.415283203125, 0.0576171875
62, 2456960965, -6.811089992523193, -0.8274267911911011, 7.11093807220459, -2.2492051124572754, -1.4348362684249878, -2.0381433963775635, 1.119140625, -0.418212890625, 0.055908203125
63, 2456977632, -6.826469421386719, -0.8226579427719116, 7.1058855056762695, -2.2257180213928223, -1.532599687576294, -1.9835113286972046, 1.12060546875, -0.416748046875, 0.05712890625
64, 2456994299, -6.814897060394287, -0.8065937757492065, 7.128584384918213, -2.265955686569214, -1.6373686790466309, -2.0436630249023438, 1.12060546875, -0.417724609375, 0.05712890625
65, 2457010966, -6.818138599395752, -0.8172993063926697, 7.106207847595215, -2.258873462677002, -1.7013875246047974, -2.1085782051086426, 1.12109375, -0.418701171875, 0.056640625
66, 2457027633, -6.819873332977295, -0.831593930721283, 7.136322975158691, -2.1696133613586426, -1.6709468364715576, -2.1209492683410645, 1.12060546875, -0.416259765625, 0.05908203125
67, 2457044300, -6.812943935394287, -0.814811646938324, 7.124276638031006, -2.2788004875183105, -1.6438487768173218, -2.180511713027954, 1.12255859375, -0.417236328125, 0.0576171875
68, 2457060967, -6.806083679199219, -0.8335180878639221, 7.129302978515625, -2.2710013389587402, -1.5770893096923828, -2.147317886352539, 1.12060546875, -0.415283203125, 0.056396484375
69, 2457077634, -6.800108432769775, -0.8121065497398376, 7.1336164474487305, -2.2357709407806396, -1.5612733364105225, -2.179832696914673, 1.123046875, -0.417724609375, 0.05615234375
70, 2457094301, -6.8107523918151855, -0.8211966156959534, 7.127363204956055, -2.3189101219177246, -1.6306198835372925, -2.213616371154785, 1.12255859375, -0.418701171875, 0.05712890625
71, 2457110968, -6.822639465332031, -0.8171626329421997, 7.1329169273376465, -2.314005136489868, -1.6465892791748047, -2.2281129360198975, 1.11962890625, -0.416259765625, 0.05810546875
72, 2457127635, -6.803840637207031, -0.8287506699562073, 7.13627290725708, -2.271052360534668, -1.7608730792999268, -2.2495505809783936, 1.12060546875, -0.417724609375, 0.0576171875
73, 2457144302, -6.81275749206543, -0.8220245242118835, 7.115840911865234, -2.299687623977661, -1.7603354454040527, -2.1713294982910156, 1.12060546875, -0.416748046875, 0.0576171875
74, 2457160969, -6.8124213218688965, -0.8010852932929993, 7.146036148071289, -2.3682000637054443, -1.6751749515533447, -2.2710700035095215, 1.12353515625, -0.417236328125, 0.0576171875
75, 2457177636, -6.81152868270874, -0.828475832939148, 7.128698825836182, -2.35585618019104, -1.6039695739746094, -2.292515993118286, 1.12158203125, -0.4189453125, 0.056640625
76, 2457194303, -6.7991437911987305, -0.8168460726737976, 7.125319957733154, -2.3889732360839844, -1.6534278392791748, -2.2565557956695557, 1.12109375, -0.416748046875, 0.05712890625
77, 2457210970, -6.811110496520996, -0.8375077843666077, 7.136244773864746, -2.2867789268493652, -1.5632840394973755, -2.336057662963867, 1.1201171875, -0.418212890625, 0.056640625
78, 2457227637, -6.810828685760498, -0.8199019432067871, 7.145419120788574, -2.314197063446045, -1.6650816202163696, -2.229508638381958, 1.119140625, -0.417724609375, 0.0576171875
79, 2457244304, -6.804538249969482, -0.8194196820259094, 7.110426425933838, -2.296229600906372, -1.6604710817337036, -2.2513175010681152, 1.12109375, -0.418701171875, 0.05712890625
80, 2457260971, -6.809365272521973, -0.8194350004196167, 7.150094032287598, -2.420822858810425, -1.5383884906768799, -2.3021976947784424, 1.11865234375, -0.416259765625, 0.056884765625
81, 2457277638, -6.819644451141357, -0.8183255791664124, 7.114946365356445, -2.4093868732452393, -1.6071841716766357, -2.3622848987579346, 1.1220703125, -0.417236328125, 0.05615234375
82, 2457294305, -6.795834541320801, -0.8236169815063477, 7.129358291625977, -2.3919575214385986, -1.6082727909088135, -2.292003870010376, 1.12109375, -0.416748046875, 0.056640625
83, 2457310972, -6.807056903839111, -0.8372833728790283, 7.1197190284729, -2.4497268199920654, -1.615572452545166, -2.306628465652466, 1.12158203125, -0.418212890625, 0.056640625
84, 2457327639, -6.824925422668457, -0.8252805471420288, 7.126828193664551, -2.3991801738739014, -1.4964860677719116, -2.261063575744629, 1.12109375, -0.417236328125, 0.05810546875
85, 2457344306, -6.802552223205566, -0.8143534064292908, 7.132727146148682, -2.4318490028381348, -1.531011939048767, -2.193189859390259, 1.12060546875, -0.417724609375, 0.06005859375
86, 2457360973, -6.806811332702637, -0.8162216544151306, 7.118165493011475, -2.442286252975464, -1.4836924076080322, -2.244248867034912, 1.12109375, -0.415771484375, 0.056396484375
87, 2457377640, -6.803648948669434, -0.8209896087646484, 7.148247718811035, -2.3442540168762207, -1.4834364652633667, -2.256171703338623, 1.1220703125, -0.416259765625, 0.053955078125
88, 2457394307, -6.8138108253479, -0.8172555565834045, 7.1263957023620605, -2.3494019508361816, -1.5741053819656372, -2.289557695388794, 1.12060546875, -0.4189453125, 0.056640625
89, 2457410974, -6.7973151206970215, -0.8248376846313477, 7.113091945648193, -2.4225516319274902, -1.492529034614563, -2.3297057151794434, 1.12060546875, -0.418212890625, 0.05810546875
90, 2457427641, -6.8065104484558105, -0.822178840637207, 7.111763954162598, -2.335212469100952, -1.4884437322616577, -2.1283645629882812, 1.1181640625, -0.417236328125, 0.056396484375
91, 2457444308, -6.809809684753418, -0.8161674737930298, 7.1206231117248535, -2.3303842544555664, -1.4769434928894043, -2.250152587890625, 1.11962890625, -0.416748046875, 0.054931640625
92, 2457460975, -6.809934139251709, -0.814298689365387, 7.131458282470703, -2.453760862350464, -1.500673770904541, -2.289135217666626, 1.12109375, -0.415771484375, 0.05712890625
93, 2457477642, -6.812925338745117, -0.814071536064148, 7.130672454833984, -2.488222360610962, -1.4496147632598877, -2.2684783935546875, 1.1201171875, -0.416748046875, 0.055908203125
94, 2457494309, -6.813699245452881, -0.8229032158851624, 7.130821704864502, -2.3684189319610596, -1.5056167840957642, -2.1811389923095703, 1.12158203125, -0.416748046875, 0.05615234375
95, 2457510976, -6.80864143371582, -0.8293400406837463, 7.13841438293457, -2.29496169090271, -1.484063744544983, -2.177834987640381, 1.12109375, -0.419921875, 0.05712890625
96, 2457527643, -6.819064617156982, -0.8123545050621033, 7.144175052642822, -2.3486714363098145, -1.6084645986557007, -2.1217942237854004, 1.12109375, -0.418212890625, 0.05810546875
97, 2457544310, -6.807769298553467, -0.8241194486618042, 7.127607345581055, -2.4241268634796143, -1.523725152015686, -2.222529172897339, 1.11962890625, -0.418701171875, 0.056396484375
98, 2457560977, -6.809455394744873, -0.8199539184570312, 7.126873970031738, -2.4423248767852783, -1.4440057277679443, -2.2999184131622314, 1.12109375, -0.418212890625, 0.055908203125
99, 2457577644, -6.806534767150879, -0.817351758480072, 7.124947547912598, -2.370147943496704, -1.6044948101043701, -2.1941375732421875, 1.12109375, -0.418212890625, 0.055908203125
100, 2457594311, -6.815639972686768, -0.8263463973999023, 7.115597724914551, -2.3375813961029053, -1.6382266283035278, -2.231673002243042, 1.1201171875, -0.418212890625, 0.05615234375
101, 2457610978, -6.816497802734375, -0.82039874792099, 7.1309614181518555, -2.2582080364227295, -1.7964876890182495, -2.187964916229248, 1.12158203125, -0.418701171875, 0.05712890625
102, 2457627645, -6.805872917175293, -0.8202924728393555, 7.13839864730835, -2.2081477642059326, -1.8047733306884766, -2.1843793392181396, 1.1220703125, -0.417236328125, 0.054931640625
103, 2457644312, -6.790830612182617, -0.821457028388977, 7.114627361297607, -2.0882036685943604, -1.7988823652267456, -2.205739974975586, 1.1201171875, -0.417236328125, 0.055908203125
104, 2457660979, -6.802786350250244, -0.821386992931366, 7.135037899017334, -2.2280614376068115, -1.682574987411499, -2.1532721519470215, 1.12060546875, -0.418212890625, 0.055419921875
105, 2457677646, -6.792981147766113, -0.827163815498352, 7.136865615844727, -2.3526804447174072, -1.594377875328064, -2.1909103393554688, 1.1201171875, -0.415283203125, 0.054931640625
106, 2457694313, -6.798758506774902, -0.8207506537437439, 7.125985145568848, -2.321420192718506, -1.598783254623413, -2.250998020172119, 1.12060546875, -0.416748046875, 0.056396484375
107, 2457710980, -6.798336029052734, -0.8154672384262085, 7.130651473999023, -2.2762773036956787, -1.6646206378936768, -2.1521711349487305, 1.12109375, -0.419921875, 0.05615234375
108, 2457727647, -6.794573783874512, -0.8266280293464661, 7.1108503341674805, -2.3021979331970215, -1.7472600936889648, -2.2181622982025146, 1.11962890625, -0.417724609375, 0.05712890625
109, 2457744314, -6.796083927154541, -0.8142675757408142, 7.141520977020264, -2.362643241882324, -1.6918084621429443, -2.144883871078491, 1.1201171875, -0.417724609375, 0.055908203125
110, 2457760981, -6.802261829376221, -0.8020052313804626, 7.139187335968018, -2.2981791496276855, -1.6000829935073853, -2.168612241744995, 1.12060546875, -0.41943359375, 0.054931640625
111, 2457777648, -6.792593479156494, -0.8246678709983826, 7.148727893829346, -2.4163661003112793, -1.6310296058654785, -2.2915046215057373, 1.12353515625, -0.417236328125, 0.0576171875
112, 2457794315, -6.792323112487793, -0.8292486667633057, 7.130370616912842, -2.4567575454711914, -1.4520223140716553, -2.3108034133911133, 1.12158203125, -0.41943359375, 0.0576171875
113, 2457810982, -6.806426525115967, -0.8223852515220642, 7.142416954040527, -2.436638593673706, -1.578856348991394, -2.228330373764038, 1.11962890625, -0.416259765625, 0.055419921875
114, 2457827649, -6.813279628753662, -0.8177399039268494, 7.146277904510498, -2.447600841522217, -1.4838334321975708, -2.3160669803619385, 1.1201171875, -0.417236328125, 0.054931640625
115, 2457844316, -6.812882900238037, -0.8146092295646667, 7.129254341125488, -2.502065896987915, -1.4932715892791748, -2.296562671661377, 1.12158203125, -0.416748046875, 0.054443359375
116, 2457860983, -6.7944016456604, -0.8196926116943359, 7.147266864776611, -2.420822858810425, -1.6032013893127441, -2.321714401245117, 1.1201171875, -0.416748046875, 0.054931640625
117, 2457877650, -6.802114486694336, -0.8375019431114197, 7.138871669769287, -2.4519295692443848, -1.4884819984436035, -2.3047587871551514, 1.119140625, -0.417724609375, 0.056640625
118, 2457894317, -6.800657272338867, -0.8196255564689636, 7.139218330383301, -2.4630966186523438, -1.5358015298843384, -2.2865097522735596, 1.12158203125, -0.417236328125, 0.055908203125
119, 2457910984, -6.8031535148620605, -0.8106895685195923, 7.1244587898254395, -2.4197728633880615, -1.4529829025268555, -2.3252363204956055, 1.11962890625, -0.418701171875, 0.055908203125
120, 2457927651, -6.811213493347168, -0.8322427868843079, 7.123211860656738, -2.491180896759033, -1.4888660907745361, -2.3933017253875732, 1.1201171875, -0.418701171875, 0.054931640625
121, 2457944318, -6.805123329162598, -0.8237766027450562, 7.140698432922363, -2.4942033290863037, -1.4706941843032837, -2.3525521755218506, 1.11865234375, -0.418212890625, 0.056396484375
122, 2457960985, -6.798022747039795, -0.8230263590812683, 7.126033306121826, -2.365781307220459, -1.58721923828125, -2.3706860542297363, 1.12060546875, -0.416748046875, 0.056396484375
123, 2457977652, -6.795658111572266, -0.8236566185951233, 7.125330448150635, -2.3718769550323486, -1.6530693769454956, -2.305898666381836, 1.12109375, -0.416748046875, 0.055419921875
124, 2457994319, -6.801224708557129, -0.8436540961265564, 7.142586708068848, -2.366882562637329, -1.7110437154769897, -2.2635738849639893, 1.12109375, -0.417724609375, 0.055908203125
125, 2458010986, -6.797239303588867, -0.8195200562477112, 7.142873764038086, -2.405275821685791, -1.559685468673706, -2.2620112895965576, 1.12060546875, -0.418701171875, 0.056640625
126, 2458027653, -6.808455467224121, -0.8048004508018494, 7.136059284210205, -2.4145092964172363, -1.4879827499389648, -2.3115718364715576, 1.12109375, -0.417724609375, 0.05615234375
127, 2458044320, -6.791811943054199, -0.8207554221153259, 7.137029647827148, -2.4355759620666504, -1.5061421394348145, -2.3848116397857666, 1.119140625, -0.417236328125, 0.05712890625
128, 2458060987, -6.796303749084473, -0.8291528820991516, 7.110538482666016, -2.5231199264526367, -1.5284507274627686, -2.3802266120910645, 1.12158203125, -0.417724609375, 0.055419921875
129, 2458077654, -6.807252883911133, -0.8189679384231567, 7.140324592590332, -2.3941473960876465, -1.7111077308654785, -2.3755526542663574, 1.117919921875, -0.417236328125, 0.056396484375
130, 2458094321, -6.802680492401123, -0.8206901550292969, 7.120142936706543, -2.372645378112793, -1.6797962188720703, -2.372811794281006, 1.12158203125, -0.417236328125, 0.05615234375
131, 2458110988, -6.792236328125, -0.8245999813079834, 7.147195816040039, -2.2407784461975098, -1.664812684059143, -2.3266963958740234, 1.1220703125, -0.4189453125, 0.0576171875
132, 2458127655, -6.7976393699646, -0.8139746189117432, 7.1228532791137695, -2.461418867111206, -1.5130445957183838, -2.327310562133789, 1.119140625, -0.417724609375, 0.054931640625
133, 2458144322, -6.7946391105651855, -0.8296881318092346, 7.139759540557861, -2.463941812515259, -1.5623877048492432, -2.408900260925293, 1.12109375, -0.418701171875, 0.054931640625
134, 2458160989, -6.807516574859619, -0.8254417777061462, 7.152905464172363, -2.5361573696136475, -1.4415725469589233, -2.4593703746795654, 1.12060546875, -0.418701171875, 0.053955078125
135, 2458177656, -6.803883075714111, -0.8280041217803955, 7.147060871124268, -2.507380723953247, -1.4517019987106323, -2.3381190299987793, 1.1201171875, -0.418212890625, 0.054931640625
136, 2458194323, -6.787475109100342, -0.835415244102478, 7.11803674697876, -2.49226975440979, -1.534226417541504, -2.308549642562866, 1.12158203125, -0.418212890625, 0.05615234375
137, 2458210990, -6.80859375, -0.818640947341919, 7.131915092468262, -2.5192008018493652, -1.5093820095062256, -2.3363006114959717, 1.11865234375, -0.416259765625, 0.05712890625
138, 2458227657, -6.799762725830078, -0.8113610148429871, 7.126826286315918, -2.4485104084014893, -1.608157753944397, -2.4747631549835205, 1.12255859375, -0.416259765625, 0.054443359375
139, 2458244324, -6.8008246421813965, -0.8198701739311218, 7.146122455596924, -2.5509610176086426, -1.5648337602615356, -2.537220001220703, 1.11962890625, -0.417236328125, 0.0576171875
140, 2458260991, -6.799708366394043, -0.8272216320037842, 7.130581855773926, -2.4649791717529297, -1.6056090593338013, -2.4980709552764893, 1.12060546875, -0.417236328125, 0.052490234375
141, 2458277658, -6.792623519897461, -0.8391730189323425, 7.136571407318115, -2.4196832180023193, -1.6518783569335938, -2.3806748390197754, 1.12109375, -0.417236328125, 0.056640625
142, 2458294325, -6.790579795837402, -0.8440326452255249, 7.120989799499512, -2.335174083709717, -1.7436999082565308, -2.3430371284484863, 1.1201171875, -0.418701171875, 0.055908203125
143, 2458310992, -6.802239418029785, -0.8315209746360779, 7.1474928855896, -2.3720178604125977, -1.6773501634597778, -2.30387544631958, 1.1201171875, -0.415283203125, 0.053955078125
144, 2458327659, -6.8024067878723145, -0.8145423531532288, 7.118318557739258, -2.3740155696868896, -1.789034366607666, -2.305962562561035, 1.12109375, -0.416259765625, 0.055908203125
145, 2458344326, -6.794384479522705, -0.8304443359375, 7.126558780670166, -2.4121525287628174, -1.699466586112976, -2.2232847213745117, 1.12109375, -0.417236328125, 0.055419921875
146, 2458360993, -6.792669773101807, -0.826898455619812, 7.118540287017822, -2.365767240524292, -1.7148852348327637, -2.2826719284057617, 1.11962890625, -0.415771484375, 0.05712890625
147, 2458377660, -6.784980773925781, -0.8336392641067505, 7.129948139190674, -2.463275909423828, -1.5581101179122925, -2.325453758239746, 1.12109375, -0.415283203125, 0.053955078125
148, 2458394327, -6.793378829956055, -0.8257479071617126, 7.147026062011719, -2.3769354820251465, -1.5195502042770386, -2.2537765502929688, 1.11962890625, -0.417724609375, 0.053466796875
149, 2458410994, -6.79863977432251, -0.8250921964645386, 7.141826152801514, -2.4291601181030273, -1.5898059606552124, -2.3642570972442627, 1.11962890625, -0.416748046875, 0.054443359375
150, 2458427661, -6.797104835510254, -0.8265992999076843, 7.143620491027832, -2.476940155029297, -1.5880002975463867, -2.28041410446167, 1.12255859375, -0.416259765625, 0.0556640625
151, 2458444328, -6.793360233306885, -0.8394678235054016, 7.134803771972656, -2.449124813079834, -1.609399676322937, -2.2745871543884277, 1.117919921875, -0.415771484375, 0.056884765625
152, 2458460995, -6.802009582519531, -0.8243106603622437, 7.144863128662109, -2.454132318496704, -1.5826600790023804, -2.2788004875183105, 1.117919921875, -0.415771484375, 0.053466796875
153, 2458477662, -6.793179988861084, -0.8305771946907043, 7.146388530731201, -2.4459872245788574, -1.5392978191375732, -2.2353484630584717, 1.11962890625, -0.414794921875, 0.054443359375
154, 2458494329, -6.785053253173828, -0.8371850252151489, 7.154154300689697, -2.406351327896118, -1.5575212240219116, -2.3149142265319824, 1.12060546875, -0.415283203125, 0.054443359375
155, 2458510996, -6.790851593017578, -0.8263194561004639, 7.125748157501221, -2.4243059158325195, -1.489903450012207, -2.28745698928833, 1.1220703125, -0.417236328125, 0.054443359375
156, 2458527663, -6.798173904418945, -0.8188872337341309, 7.136251926422119, -2.364013910293579, -1.4396388530731201, -2.2694904804229736, 1.119140625, -0.417724609375, 0.055908203125
157, 2458544330, -6.800289154052734, -0.8370968699455261, 7.142754554748535, -2.4170961380004883, -1.49140202999115, -2.291350841522217, 1.12109375, -0.416748046875, 0.056640625
158, 2458560997, -6.803590774536133, -0.8324709534645081, 7.125565052032471, -2.404379367828369, -1.556522250175476, -2.259962320327759, 1.12060546875, -0.415283203125, 0.052978515625
159, 2458577664, -6.798346996307373, -0.8263612985610962, 7.138885974884033, -2.4253175258636475, -1.5771148204803467, -2.289788007736206, 1.12109375, -0.415771484375, 0.056396484375
160, 2458594331, -6.795315742492676, -0.8268728256225586, 7.128173828125, -2.329641580581665, -1.6385725736618042, -2.3386828899383545, 1.12109375, -0.419921875, 0.05615234375
161, 2458610998, -6.78849458694458, -0.8252493143081665, 7.139007568359375, -2.4132797718048096, -1.677311897277832, -2.3595571517944336, 1.12109375, -0.416748046875, 0.056640625
162, 2458627665, -6.790134906768799, -0.8273496627807617, 7.12654447555542, -2.3876800537109375, -1.6612653732299805, -2.3543195724487305, 1.12060546875, -0.418701171875, 0.055419921875
163, 2458644332, -6.799192428588867, -0.8315925002098083, 7.138862609863281, -2.367868423461914, -1.7281529903411865, -2.3555233478546143, 1.12109375, -0.416748046875, 0.05615234375
164, 2458660999, -6.790028095245361, -0.8411074280738831, 7.121321678161621, -2.5005292892456055, -1.6482285261154175, -2.31673264503479, 1.1201171875, -0.415771484375, 0.052490234375
165, 2458677666, -6.78800106048584, -0.8326273560523987, 7.161151885986328, -2.4917831420898438, -1.5685092210769653, -2.423999071121216, 1.12109375, -0.416259765625, 0.056640625
166, 2458694333, -6.793120384216309, -0.8222764134407043, 7.1493754386901855, -2.4974560737609863, -1.4893271923065186, -2.3582894802093506, 1.12109375, -0.416748046875, 0.053955078125
167, 2458711000, -6.799688339233398, -0.8321152925491333, 7.15482234954834, -2.497865915298462, -1.5931613445281982, -2.4373433589935303, 1.119140625, -0.415771484375, 0.056396484375
168, 2458727667, -6.799563407897949, -0.8460763096809387, 7.172542572021484, -2.461073160171509, -1.6652097702026367, -2.3668570518493652, 1.12158203125, -0.416259765625, 0.055419921875
169, 2458744334, -6.790006160736084, -0.8547544479370117, 7.143814563751221, -2.379201889038086, -1.5434467792510986, -2.326695680618286, 1.12060546875, -0.41943359375, 0.054443359375
170, 2458761001, -6.785683631896973, -0.8379876017570496, 7.138481140136719, -2.495483636856079, -1.5586094856262207, -2.2828469276428223, 1.12255859375, -0.416748046875, 0.052978515625
171, 2458777668, -6.80415678024292, -0.8350407481193542, 7.12745475769043, -2.442286252975464, -1.51441490650177, -2.3373634815216064, 1.12158203125, -0.415771484375, 0.055419921875
172, 2458794335, -6.787560939788818, -0.846484363079071, 7.135753154754639, -2.373849391937256, -1.5011860132217407, -2.259411573410034, 1.12060546875, -0.416748046875, 0.055419921875
173, 2458811002, -6.794772148132324, -0.8171886801719666, 7.121551513671875, -2.3486075401306152, -1.603803038597107, -2.2882769107818604, 1.12060546875, -0.418212890625, 0.054443359375
174, 2458827669, -6.802900314331055, -0.8407464027404785, 7.124876022338867, -2.4335010051727295, -1.478710651397705, -2.3923027515411377, 1.118408203125, -0.415771484375, 0.055419921875
175, 2458844336, -6.789166450500488, -0.835308849811554, 7.133689880371094, -2.3881282806396484, -1.5813794136047363, -2.3509130477905273, 1.1201171875, -0.416259765625, 0.054443359375
176, 2458861003, -6.790753364562988, -0.8346899151802063, 7.151773452758789, -2.253443956375122, -1.5867325067520142, -2.2731528282165527, 1.11962890625, -0.416259765625, 0.053466796875
177, 2458877670, -6.787503719329834, -0.8359858989715576, 7.159005165100098, -2.248180389404297, -1.636305570602417, -2.220364809036255, 1.12060546875, -0.4189453125, 0.05615234375
178, 2458894337, -6.796292781829834, -0.8132632970809937, 7.119107246398926, -2.3537940979003906, -1.4433395862579346, -2.2408933639526367, 1.12060546875, -0.418212890625, 0.053955078125
179, 2458911004, -6.785915851593018, -0.8394210338592529, 7.136199474334717, -2.368880271911621, -1.507691740989685, -2.2761752605438232, 1.12060546875, -0.416748046875, 0.054443359375
180, 2458927671, -6.789260387420654, -0.8304445147514343, 7.135528087615967, -2.393327474594116, -1.5881412029266357, -2.3256077766418457, 1.1201171875, -0.418701171875, 0.056640625
181, 2458944338, -6.787408351898193, -0.8304542303085327, 7.140332221984863, -2.4043922424316406, -1.5621826648712158, -2.1992599964141846, 1.12158203125, -0.417724609375, 0.05615234375
182, 2458961005, -6.781946182250977, -0.844971239566803, 7.1464715003967285, -2.454676389694214, -1.5886348485946655, -2.2547683715820312, 1.12060546875, -0.415283203125, 0.052490234375
183, 2458977672, -6.78132438659668, -0.8202984929084778, 7.143402576446533, -2.405224561691284, -1.5646671056747437, -2.279146194458008, 1.12109375, -0.415283203125, 0.054931640625
184, 2458994339, -6.80484676361084, -0.8380650281906128, 7.146330833435059, -2.4184792041778564, -1.576000452041626, -2.303209066390991, 1.1201171875, -0.417724609375, 0.056396484375
185, 2459011006, -6.781010627746582, -0.8409476280212402, 7.1495842933654785, -2.423896551132202, -1.5635913610458374, -2.351130962371826, 1.12255859375, -0.415771484375, 0.055419921875
186, 2459027673, -6.793752193450928, -0.8367493748664856, 7.161194324493408, -2.331012010574341, -1.5951974391937256, -2.2065982818603516, 1.1201171875, -0.416259765625, 0.056640625
187, 2459044340, -6.789993762969971, -0.8487352728843689, 7.135305404663086, -2.434666633605957, -1.6106035709381104, -2.1634409427642822, 1.12158203125, -0.414794921875, 0.055908203125
188, 2459061007, -6.795680046081543, -0.8245071172714233, 7.138730525970459, -2.3072047233581543, -1.6614445447921753, -2.19518780708313, 1.11962890625, -0.415771484375, 0.052978515625
189, 2459077674, -6.783052444458008, -0.8368834853172302, 7.158126354217529, -2.3119049072265625, -1.628698706626892, -2.2182390689849854, 1.12109375, -0.415283203125, 0.055908203125
190, 2459094341, -6.795111179351807, -0.8320976495742798, 7.145573616027832, -2.397425651550293, -1.566857099533081, -2.1830859184265137, 1.119140625, -0.416748046875, 0.054931640625
191, 2459111008, -6.783594131469727, -0.8254910111427307, 7.146615028381348, -2.3340470790863037, -1.5533461570739746, -2.2561075687408447, 1.12060546875, -0.417724609375, 0.054443359375
192, 2459127675, -6.786508083343506, -0.8297734260559082, 7.159714221954346, -2.365665912628174, -1.5948644876480103, -2.2310070991516113, 1.12109375, -0.416748046875, 0.054443359375
193, 2459144342, -6.783233165740967, -0.8393145799636841, 7.140263080596924, -2.328540325164795, -1.6250873804092407, -2.3032479286193848, 1.1201171875, -0.417724609375, 0.055419921875
194, 2459161009, -6.796988487243652, -0.8359379768371582, 7.1480889320373535, -2.4098989963531494, -1.5431907176971436, -2.1610589027404785, 1.12060546875, -0.415771484375, 0.053955078125
195, 2459177676, -6.793333530426025, -0.8256131410598755, 7.139620780944824, -2.3665623664855957, -1.542076587677002, -2.207123041152954, 1.1201171875, -0.416748046875, 0.053466796875
196, 2459194343, -6.786367893218994, -0.830573558807373, 7.151523590087891, -2.365025520324707, -1.5560100078582764, -2.2983555793762207, 1.1220703125, -0.417236328125, 0.053466796875
197, 2459211010, -6.783370494842529, -0.8344984650611877, 7.158487319946289, -2.459446907043457, -1.486087441444397, -2.3164896965026855, 1.1201171875, -0.417236328125, 0.054443359375
198, 2459227677, -6.782907485961914, -0.8262150287628174, 7.148705005645752, -2.479309558868408, -1.4914660453796387, -2.2074432373046875, 1.1201171875, -0.414794921875, 0.052490234375
199, 2459244344, -6.791252136230469, -0.841130793094635, 7.1351470947265625, -2.412498712539673, -1.5288605690002441, -2.289788246154785, 1.119140625, -0.416748046875, 0.055908203125
200, 2459261011, -6.790563583374023, -0.8357475399971008, 7.155920505523682, -2.4167635440826416, -1.5458674430847168, -2.3007888793945312, 1.11962890625, -0.415771484375, 0.055419921875
201, 2459277678, -6.794427394866943, -0.8427307605743408, 7.146515369415283, -2.3524110317230225, -1.5145173072814941, -2.197646379470825, 1.12060546875, -0.418212890625, 0.053955078125
202, 2459294345, -6.788610935211182, -0.8177960515022278, 7.135197639465332, -2.388282060623169, -1.6086952686309814, -2.259040355682373, 1.119140625, -0.414306640625, 0.053955078125
203, 2459311012, -6.778865814208984, -0.8344464898109436, 7.139834880828857, -2.353038787841797, -1.6094893217086792, -2.202448844909668, 1.119140625, -0.416748046875, 0.056396484375
204, 2459327679, -6.800487995147705, -0.8310021758079529, 7.151508331298828, -2.415930986404419, -1.6002048254013062, -2.2794151306152344, 1.12060546875, -0.415771484375, 0.055908203125
205, 2459344346, -6.7943501472473145, -0.8416345715522766, 7.144886493682861, -2.41056489944458, -1.5345978736877441, -2.2049334049224854, 1.12060546875, -0.415283203125, 0.053955078125
206, 2459361013, -6.796505451202393, -0.8291424512863159, 7.1502156257629395, -2.421360492706299, -1.4943857192993164, -2.2212231159210205, 1.1181640625, -0.417236328125, 0.05224609375
207, 2459377680, -6.794143199920654, -0.8296483755111694, 7.138243198394775, -2.38865327835083, -1.4196479320526123, -2.3369667530059814, 1.12109375, -0.417236328125, 0.052978515625
208, 2459394347, -6.790183067321777, -0.8285490870475769, 7.143620014190674, -2.4109747409820557, -1.5107779502868652, -2.3001744747161865, 1.12060546875, -0.418212890625, 0.053466796875
209, 2459411014, -6.788989067077637, -0.8240756392478943, 7.152791976928711, -2.462225914001465, -1.5146199464797974, -2.3862459659576416, 1.11865234375, -0.418212890625, 0.054443359375
210, 2459427681, -6.791261196136475, -0.8531121015548706, 7.127449035644531, -2.385694742202759, -1.6852643489837646, -2.3192169666290283, 1.119140625, -0.416748046875, 0.055908203125
211, 2459444348, -6.779925346374512, -0.8235360980033875, 7.1652140617370605, -2.3812382221221924, -1.6227052211761475, -2.2805161476135254, 1.119140625, -0.417236328125, 0.052978515625
212, 2459461015, -6.782001495361328, -0.8226060271263123, 7.15661096572876, -2.422090530395508, -1.6652097702026367, -2.3399250507354736, 1.117919921875, -0.416748046875, 0.05126953125
213, 2459477682, -6.785545349121094, -0.8120976090431213, 7.152645587921143, -2.4711005687713623, -1.5763976573944092, -2.423896074295044, 1.119140625, -0.414794921875, 0.052490234375
214, 2459494349, -6.7707977294921875, -0.8230764865875244, 7.164817810058594, -2.5046274662017822, -1.3077714443206787, -2.496994733810425, 1.11962890625, -0.415283203125, 0.053955078125
215, 2459511016, -6.791244983673096, -0.8531221747398376, 7.148442268371582, -2.5506153106689453, -1.3239716291427612, -2.493114709854126, 1.11962890625, -0.415771484375, 0.053466796875
216, 2459527683, -6.797901630401611, -0.8110451698303223, 7.147037982940674, -2.6437559127807617, -1.4067649841308594, -2.452134609222412, 1.11865234375, -0.415283203125, 0.054443359375
217, 2459544350, -6.79689359664917, -0.8416557908058167, 7.14055871963501, -2.5114917755126953, -1.4268450736999512, -2.3979251384735107, 1.11962890625, -0.416259765625, 0.052490234375
218, 2459561017, -6.7970499992370605, -0.8253355622291565, 7.122563362121582, -2.439873456954956, -1.5600528717041016, -2.283299446105957, 1.1181640625, -0.416748046875, 0.054931640625
219, 2459577684, -6.800209045410156, -0.8294775485992432, 7.1468424797058105, -2.509929656982422, -1.5532184839248657, -2.4219117164611816, 1.12060546875, -0.416748046875, 0.052978515625
220, 2459594351, -6.782445907592773, -0.8489527702331543, 7.141663074493408, -2.4840986728668213, -1.5889606475830078, -2.2985475063323975, 1.119140625, -0.415283203125, 0.053466796875
221, 2459611018, -6.788168430328369, -0.8485392332077026, 7.157084941864014, -2.4660160541534424, -1.4882770776748657, -2.4002554416656494, 1.11962890625, -0.417724609375, 0.056640625
222, 2459627685, -6.785772800445557, -0.8336343765258789, 7.146671295166016, -2.4214630126953125, -1.5136210918426514, -2.245055675506592, 1.11962890625, -0.415771484375, 0.055908203125
223, 2459644352, -6.788043975830078, -0.8438897132873535, 7.15182638168335, -2.4092204570770264, -1.5137746334075928, -2.2049591541290283, 1.1201171875, -0.414306640625, 0.053466796875
224, 2459661019, -6.786360263824463, -0.8348227739334106, 7.1580915451049805, -2.3658323287963867, -1.5423712730407715, -2.200758457183838, 1.117919921875, -0.415771484375, 0.053466796875
225, 2459677686, -6.784817218780518, -0.8357652425765991, 7.160398483276367, -2.3302433490753174, -1.515964388847351, -2.1914737224578857, 1.1220703125, -0.415283203125, 0.054931640625
226, 2459694353, -6.787777423858643, -0.8337423205375671, 7.150264739990234, -2.3545501232147217, -1.508716106414795, -2.2063934803009033, 1.12109375, -0.416259765625, 0.05615234375
227, 2459711020, -6.789814472198486, -0.824123203754425, 7.1446919441223145, -2.304182529449463, -1.4699896574020386, -2.168447732925415, 1.11865234375, -0.417724609375, 0.055908203125
228, 2459727687, -6.797015190124512, -0.8253540396690369, 7.15403938293457, -2.372709035873413, -1.5398097038269043, -2.138071298599243, 1.12060546875, -0.416748046875, 0.053466796875
229, 2459744354, -6.795870304107666, -0.8441811203956604, 7.168025016784668, -2.3923285007476807, -1.534354329109192, -2.1912429332733154, 1.119140625, -0.415283203125, 0.054443359375
230, 2459761021, -6.784501552581787, -0.8420229554176331, 7.156816482543945, -2.413651466369629, -1.5469943284988403, -2.2071361541748047, 1.1201171875, -0.415283203125, 0.055419921875
231, 2459777688, -6.79293966293335, -0.8305286765098572, 7.1392107009887695, -2.3427553176879883, -1.5431010723114014, -2.215754747390747, 1.11962890625, -0.415283203125, 0.052490234375
232, 2459794355, -6.777868747711182, -0.836219072341919, 7.148016452789307, -2.321458101272583, -1.5374916791915894, -2.16304349899292, 1.119140625, -0.415283203125, 0.054931640625
233, 2459811022, -6.7654571533203125, -0.8293188214302063, 7.13318395614624, -2.344099521636963, -1.5268625020980835, -2.1632869243621826, 1.12060546875, -0.416748046875, 0.055419921875
234, 2459827689, -6.789336681365967, -0.8419921398162842, 7.131006717681885, -2.332740545272827, -1.4572343826293945, -2.142732858657837, 1.119140625, -0.417236328125, 0.053955078125
235, 2459844356, -6.7969136238098145, -0.821552038192749, 7.149020195007324, -2.381673812866211, -1.4074692726135254, -2.1440775394439697, 1.119140625, -0.415771484375, 0.053466796875
236, 2459861023, -6.7886857986450195, -0.8332621455192566, 7.167916774749756, -2.363142967224121, -1.4998540878295898, -2.1550140380859375, 1.12060546875, -0.416748046875, 0.053955078125
237, 2459877690, -6.797309875488281, -0.8353379964828491, 7.135853290557861, -2.2789154052734375, -1.5234817266464233, -2.111293315887451, 1.12060546875, -0.415771484375, 0.053955078125
238, 2459894357, -6.792351245880127, -0.8415940403938293, 7.139802932739258, -2.2728323936462402, -1.5029786825180054, -2.084207773208618, 1.119140625, -0.415283203125, 0.056396484375
239, 2459911024, -6.77997350692749, -0.8211163282394409, 7.15438175201416, -2.2370645999908447, -1.5706218481063843, -2.102687120437622, 1.1220703125, -0.414794921875, 0.054443359375
240, 2459927691, -6.793245792388916, -0.8312253952026367, 7.149880886077881, -2.354806423187256, -1.5309735536575317, -2.2085702419281006, 1.1201171875, -0.416259765625, 0.053466796875
241, 2459944358, -6.786559581756592, -0.8296456933021545, 7.158668518066406, -2.4263038635253906, -1.4079430103302002, -2.1784753799438477, 1.119140625, -0.416748046875, 0.054443359375
242, 2459961025, -6.790255069732666, -0.8259658217430115, 7.154546737670898, -2.443861246109009, -1.3495203256607056, -2.1892964839935303, 1.119140625, -0.416748046875, 0.054443359375
243, 2459977692, -6.781186103820801, -0.8192412853240967, 7.149387836456299, -2.3973746299743652, -1.491350769996643, -2.207929849624634, 1.11962890625, -0.414794921875, 0.052490234375
244, 2459994359, -6.782499313354492, -0.8201810717582703, 7.1490068435668945, -2.37894606590271, -1.4840896129608154, -2.1558849811553955, 1.11962890625, -0.416259765625, 0.054931640625
245, 2460011026, -6.790444850921631, -0.8179430961608887, 7.127195358276367, -2.4036366939544678, -1.5133520364761353, -2.266749620437622, 1.12109375, -0.416748046875, 0.054443359375
246, 2460027693, -6.774080276489258, -0.834987998008728, 7.1632208824157715, -2.273549795150757, -1.406303882598877, -2.2323389053344727, 1.1201171875, -0.417724609375, 0.054931640625
247, 2460044360, -6.7823710441589355, -0.8282358646392822, 7.149378776550293, -2.3224704265594482, -1.5864250659942627, -2.180934190750122, 1.119140625, -0.416748046875, 0.053466796875
248, 2460061027, -6.797705173492432, -0.8247191309928894, 7.148242473602295, -2.3367743492126465, -1.5070511102676392, -2.227229118347168, 1.12109375, -0.416259765625, 0.053466796875
249, 2460077694, -6.7747578620910645, -0.8222825527191162, 7.147852420806885, -2.4138691425323486, -1.4788388013839722, -2.1685376167297363, 1.119140625, -0.415771484375, 0.053955078125
250, 2460094361, -6.794053077697754, -0.8321779370307922, 7.149650573730469, -2.385733127593994, -1.4175732135772705, -2.224616527557373, 1.12109375, -0.417236328125, 0.054443359375
251, 2460111028, -6.806308746337891, -0.8325756788253784, 7.1365275382995605, -2.268606424331665, -1.4799914360046387, -2.13598370552063, 1.117919921875, -0.415771484375, 0.055419921875
252, 2460127695, -6.786283016204834, -0.8267973065376282, 7.147798538208008, -2.3201518058776855, -1.5444585084915161, -2.079904794692993, 1.12060546875, -0.416259765625, 0.055908203125
253, 2460144362, -6.798606872558594, -0.8165801167488098, 7.139523029327393, -2.271590232849121, -1.5177444219589233, -2.1765029430389404, 1.12060546875, -0.416748046875, 0.055419921875
254, 2460161029, -6.789565563201904, -0.8232727646827698, 7.133559703826904, -2.238914966583252, -1.6045136451721191, -2.143551826477051, 1.119140625, -0.417236328125, 0.052978515625
255, 2460177696, -6.791784286499023, -0.8228746056556702, 7.1459431648254395, -2.276418447494507, -1.709801435470581, -2.1546170711517334, 1.1201171875, -0.416748046875, 0.053466796875
256, 2460194363, -6.79054069519043, -0.8169600367546082, 7.154685020446777, -2.351156234741211, -1.615572452545166, -2.192857027053833, 1.1201171875, -0.417724609375, 0.053466796875
257, 2460211030, -6.780220985412598, -0.8272593021392822, 7.132829189300537, -2.3229310512542725, -1.5862970352172852, -2.1453840732574463, 1.11962890625, -0.417236328125, 0.054443359375
258, 2460227697, -6.785305023193359, -0.8242632150650024, 7.151791095733643, -2.321957588195801, -1.5324461460113525, -2.1611099243164062, 1.12060546875, -0.418701171875, 0.05615234375
259, 2460244364, -6.780837535858154, -0.8221041560173035, 7.167835235595703, -2.3496577739715576, -1.4429810047149658, -2.089599370956421, 1.1201171875, -0.417724609375, 0.053955078125
260, 2460261031, -6.780419826507568, -0.8284178376197815, 7.155902862548828, -2.2888662815093994, -1.5206516981124878, -2.196545362472534, 1.11962890625, -0.416748046875, 0.054443359375
261, 2460277698, -6.796350002288818, -0.8119170069694519, 7.166676998138428, -2.454349994659424, -1.471001386642456, -2.1825990676879883, 1.11962890625, -0.417236328125, 0.053955078125
262, 2460294365, -6.779184818267822, -0.8380633592605591, 7.137873649597168, -2.420515537261963, -1.5260686874389648, -2.2431602478027344, 1.12060546875, -0.418701171875, 0.055419921875
263, 2460311032, -6.779202938079834, -0.8332805633544922, 7.15015172958374, -2.4329631328582764, -1.4051384925842285, -2.2758164405822754, 1.1201171875, -0.417724609375, 0.056396484375
264, 2460327699, -6.773177623748779, -0.8228199481964111, 7.146488189697266, -2.4605865478515625, -1.3471896648406982, -2.288546085357666, 1.12109375, -0.415283203125, 0.054931640625
265, 2460344366, -6.792079925537109, -0.8364095687866211, 7.138641357421875, -2.4828057289123535, -1.3377001285552979, -2.3194992542266846, 1.1220703125, -0.417236328125, 0.053955078125
266, 2460361033, -6.786940574645996, -0.8395501971244812, 7.14481258392334, -2.5006191730499268, -1.4524450302124023, -2.237551212310791, 1.1201171875, -0.418212890625, 0.053466796875
267, 2460377700, -6.798483371734619, -0.832392156124115, 7.1411051750183105, -2.44336199760437, -1.3917813301086426, -2.2421998977661133, 1.12158203125, -0.415771484375, 0.052978515625
268, 2460394367, -6.78732967376709, -0.8343551158905029, 7.141452789306641, -2.530163526535034, -1.453840970993042, -2.270463466644287, 1.12109375, -0.416259765625, 0.054931640625
269, 2460411034, -6.7878217697143555, -0.8223890662193298, 7.151649475097656, -2.505690813064575, -1.463740348815918, -2.3321006298065186, 1.12060546875, -0.416748046875, 0.053466796875
270, 2460427701, -6.78544807434082, -0.8233592510223389, 7.156551837921143, -2.4244086742401123, -1.3869917392730713, -2.3404500484466553, 1.11865234375, -0.416259765625, 0.055908203125
271, 2460444368, -6.798787593841553, -0.8269028067588806, 7.126204013824463, -2.502963066101074, -1.4179704189300537, -2.369097948074341, 1.1201171875, -0.418701171875, 0.0576171875
272, 2460461035, -6.792864799499512, -0.8298323750495911, 7.127886772155762, -2.441133975982666, -1.5100480318069458, -2.3209335803985596, 1.117919921875, -0.417724609375, 0.054931640625
273, 2460477702, -6.8041510581970215, -0.8290531039237976, 7.143217086791992, -2.5242087841033936, -1.666733741760254, -2.3369412422180176, 1.11962890625, -0.417236328125, 0.053466796875
274, 2460494369, -6.786832332611084, -0.8132022023200989, 7.138028144836426, -2.370378255844116, -1.5642060041427612, -2.2980356216430664, 1.1201171875, -0.414794921875, 0.054443359375
275, 2460511036, -6.8018574714660645, -0.8103475570678711, 7.164883136749268, -2.353999614715576, -1.5570217370986938, -2.2396256923675537, 1.117919921875, -0.416748046875, 0.055419921875
276, 2460527703, -6.790266990661621, -0.840236485004425, 7.162674427032471, -2.418159246444702, -1.5278358459472656, -2.295154094696045, 1.11962890625, -0.4189453125, 0.054443359375
277, 2460544370, -6.802333831787109, -0.8301976919174194, 7.150969982147217, -2.4375734329223633, -1.455275297164917, -2.305476188659668, 1.1181640625, -0.417236328125, 0.056396484375
278, 2460561037, -6.796603202819824, -0.835161030292511, 7.17255163192749, -2.43497371673584, -1.418341875076294, -2.291184425354004, 1.12060546875, -0.415771484375, 0.054443359375
279, 2460577704, -6.787302017211914, -0.8169870376586914, 7.1455817222595215, -2.5405750274658203, -1.4961787462234497, -2.218456745147705, 1.1220703125, -0.415771484375, 0.052490234375
280, 2460594371, -6.786314964294434, -0.8222379088401794, 7.139517784118652, -2.423243284225464, -1.6010499000549316, -2.2534565925598145, 1.119140625, -0.416748046875, 0.054443359375
281, 2460611038, -6.801333904266357, -0.8308506608009338, 7.125302314758301, -2.500478744506836, -1.6396995782852173, -2.383838415145874, 1.119140625, -0.415771484375, 0.054443359375
282, 2460627705, -6.789342403411865, -0.8364051580429077, 7.170413017272949, -2.421616792678833, -1.5999358892440796, -2.274138927459717, 1.12109375, -0.416259765625, 0.055419921875
283, 2460644372, -6.790203094482422, -0.8205441236495972, 7.132317066192627, -2.3745150566101074, -1.6281481981277466, -2.3180134296417236, 1.11962890625, -0.417236328125, 0.053955078125
284, 2460661039, -6.784907341003418, -0.8325741291046143, 7.132185459136963, -2.376807451248169, -1.5738108158111572, -2.3593649864196777, 1.1201171875, -0.417724609375, 0.053955078125
285, 2460677706, -6.785623073577881, -0.8266164064407349, 7.137076377868652, -2.3333170413970947, -1.5643341541290283, -2.3507847785949707, 1.119140625, -0.415283203125, 0.05126953125
286, 2460694373, -6.785848140716553, -0.8261169195175171, 7.1449408531188965, -2.418632984161377, -1.5075891017913818, -2.3837099075317383, 1.117919921875, -0.416748046875, 0.054443359375
287, 2460711040, -6.792637348175049, -0.8230745792388916, 7.134993076324463, -2.3646411895751953, -1.4689651727676392, -2.306346893310547, 1.12060546875, -0.417724609375, 0.054931640625
288, 2460727707, -6.806762218475342, -0.8379141688346863, 7.165291786193848, -2.3791637420654297, -1.5101503133773804, -2.2439544200897217, 1.117919921875, -0.417724609375, 0.054443359375
289, 2460744374, -6.805150508880615, -0.8201798796653748, 7.1458821296691895, -2.4065821170806885, -1.4463618993759155, -2.296818971633911, 1.12060546875, -0.417236328125, 0.056640625
290, 2460761041, -6.7916388511657715, -0.8173530101776123, 7.136295318603516, -2.533648729324341, -1.501070499420166, -2.4547791481018066, 1.119140625, -0.416748046875, 0.054931640625
291, 2460777708, -6.795549392700195, -0.835674524307251, 7.153537750244141, -2.6450109481811523, -1.3546044826507568, -2.540037155151367, 1.118896484375, -0.414794921875, 0.053466796875
292, 2460794375, -6.7760090827941895, -0.8521879315376282, 7.136608123779297, -2.6919591426849365, -1.4050617218017578, -2.4446046352386475, 1.11865234375, -0.417236328125, 0.053955078125
293, 2460811042, -6.792821407318115, -0.8361209630966187, 7.149533271789551, -2.642155170440674, -1.4035760164260864, -2.428506851196289, 1.1201171875, -0.415771484375, 0.054443359375
294, 2460827709, -6.795685768127441, -0.8254950046539307, 7.140984058380127, -2.5772011280059814, -1.3888744115829468, -2.421475887298584, 1.1201171875, -0.416748046875, 0.054931640625
295, 2460844376, -6.793730735778809, -0.8389356136322021, 7.145501613616943, -2.5649452209472656, -1.41197669506073, -2.37085223197937, 1.119140625, -0.416748046875, 0.056396484375
296, 2460861043, -6.794498920440674, -0.8315219283103943, 7.139676094055176, -2.560258150100708, -1.4651105403900146, -2.396324396133423, 1.12060546875, -0.416259765625, 0.054931640625
297, 2460877710, -6.7905049324035645, -0.8427585363388062, 7.127326965332031, -2.5335443019866943, -1.3676670789718628, -2.463839292526245, 1.1201171875, -0.416259765625, 0.052978515625
298, 2460894377, -6.781707286834717, -0.8444617986679077, 7.145925521850586, -2.4915006160736084, -1.508805513381958, -2.3817760944366455, 1.11865234375, -0.417236328125, 0.054443359375
299, 2460911044, -6.777961730957031, -0.83253413438797, 7.164658069610596, -2.522966146469116, -1.40169358253479, -2.321599245071411, 1.117919921875, -0.413818359375, 0.057861328125
300, 2460927711, -6.779259204864502, -0.8316925764083862, 7.142370700836182, -2.5002734661102295, -1.4134881496429443, -2.309817314147949, 1.119140625, -0.415771484375, 0.055908203125
301, 2460944378, -6.783552646636963, -0.8373731374740601, 7.116937160491943, -2.4683985710144043, -1.5387214422225952, -2.3217403888702393, 1.12109375, -0.416259765625, 0.054931640625
302, 2460961045, -6.777996063232422, -0.8374065160751343, 7.130301475524902, -2.4438483715057373, -1.5459953546524048, -2.3059751987457275, 1.1201171875, -0.417236328125, 0.053466796875
303, 2460977712, -6.782151222229004, -0.8308494091033936, 7.135723114013672, -2.4049429893493652, -1.4004000425338745, -2.290057420730591, 1.11962890625, -0.415283203125, 0.055419921875
304, 2460994379, -6.791031837463379, -0.8292208909988403, 7.146383285522461, -2.488337516784668, -1.4123739004135132, -2.210580825805664, 1.117919921875, -0.413330078125, 0.056396484375
305, 2461011046, -6.796478748321533, -0.8318535685539246, 7.153475284576416, -2.555468797683716, -1.4255645275115967, -2.395350933074951, 1.11962890625, -0.417724609375, 0.054931640625
306, 2461027713, -6.7847771644592285, -0.8436095714569092, 7.136406421661377, -2.467860460281372, -1.3145334720611572, -2.3920340538024902, 1.12109375, -0.414794921875, 0.053466796875
307, 2461044380, -6.78642463684082, -0.8370208144187927, 7.1404218673706055, -2.5624611377716064, -1.3073874711990356, -2.322303533554077, 1.1201171875, -0.415283203125, 0.055419921875
308, 2461061047, -6.795849800109863, -0.8254898190498352, 7.147817611694336, -2.4944210052490234, -1.348995327949524, -2.3134031295776367, 1.11962890625, -0.416259765625, 0.056396484375
309, 2461077714, -6.778862953186035, -0.8428640365600586, 7.142759323120117, -2.4162890911102295, -1.4249111413955688, -2.2605769634246826, 1.117919921875, -0.417724609375, 0.053466796875
310, 2461094381, -6.781936168670654, -0.8432541489601135, 7.146644115447998, -2.3569445610046387, -1.40212881565094, -2.2340164184570312, 1.119140625, -0.415283203125, 0.053466796875
311, 2461111048, -6.792238712310791, -0.8413917422294617, 7.156641960144043, -2.484086036682129, -1.3536055088043213, -2.2990214824676514, 1.1201171875, -0.415283203125, 0.054931640625
312, 2461127715, -6.801449298858643, -0.8479027152061462, 7.155856609344482, -2.516716957092285, -1.3307334184646606, -2.3099584579467773, 1.1201171875, -0.414306640625, 0.054931640625
313, 2461144382, -6.788671016693115, -0.8322418332099915, 7.137563228607178, -2.495227575302124, -1.3861720561981201, -2.2566964626312256, 1.12060546875, -0.414794921875, 0.055908203125
314, 2461161049, -6.799064636230469, -0.8363488912582397, 7.151479721069336, -2.440877676010132, -1.3703819513320923, -2.317936897277832, 1.12158203125, -0.416748046875, 0.055419921875
315, 2461177716, -6.796871185302734, -0.8463908433914185, 7.138064861297607, -2.3398609161376953, -1.3797433376312256, -2.211451530456543, 1.119140625, -0.417236328125, 0.054443359375
316, 2461194383, -6.794829368591309, -0.8414926528930664, 7.130391597747803, -2.2709243297576904, -1.5067055225372314, -2.2162539958953857, 1.11962890625, -0.414794921875, 0.053955078125
317, 2461211050, -6.799276351928711, -0.8319355845451355, 7.150944709777832, -2.389895439147949, -1.5699944496154785, -2.2308661937713623, 1.1201171875, -0.416259765625, 0.055908203125
318, 2461227717, -6.802989482879639, -0.8356773853302002, 7.154654502868652, -2.2806572914123535, -1.5174243450164795, -2.2377431392669678, 1.11865234375, -0.417236328125, 0.056884765625
319, 2461244384, -6.803959846496582, -0.8388569355010986, 7.174227714538574, -2.341935396194458, -1.6340389251708984, -2.2231180667877197, 1.1201171875, -0.415283203125, 0.055908203125
320, 2461261051, -6.797496795654297, -0.8378412127494812, 7.131773948669434, -2.2544808387756348, -1.5415387153625488, -2.1442182064056396, 1.12060546875, -0.415771484375, 0.053955078125
321, 2461277718, -6.79738712310791, -0.8338133096694946, 7.167790412902832, -2.416916608810425, -1.3281720876693726, -2.224360466003418, 1.119140625, -0.415283203125, 0.054443359375
322, 2461294385, -6.803983688354492, -0.8279308080673218, 7.142430782318115, -2.2356302738189697, -1.3029179573059082, -2.176848888397217, 1.1201171875, -0.414306640625, 0.056396484375
323, 2461311052, -6.796696186065674, -0.8244892358779907, 7.127460479736328, -2.33872127532959, -1.4110292196273804, -2.2220423221588135, 1.12060546875, -0.416259765625, 0.055419921875
324, 2461327719, -6.802515506744385, -0.8405161499977112, 7.137086391448975, -2.293617010116577, -1.5618623495101929, -2.162262439727783, 1.12158203125, -0.414794921875, 0.055419921875
325, 2461344386, -6.789163589477539, -0.8347414135932922, 7.14995002746582, -2.1823172569274902, -1.6326814889907837, -2.037067413330078, 1.119140625, -0.415771484375, 0.054931640625
326, 2461361053, -6.804327487945557, -0.8465431332588196, 7.13836145401001, -2.097362518310547, -1.6528420448303223, -2.0577034950256348, 1.12109375, -0.41357421875, 0.055908203125
327, 2461377720, -6.78826904296875, -0.8265159130096436, 7.153366565704346, -2.264802932739258, -1.596964716911316, -2.117581367492676, 1.12060546875, -0.417724609375, 0.054931640625
328, 2461394387, -6.799625396728516, -0.8296860456466675, 7.137416362762451, -2.3553056716918945, -1.6359344720840454, -2.1366114616394043, 1.12255859375, -0.417724609375, 0.054931640625
329, 2461411054, -6.805826187133789, -0.8206138610839844, 7.1299028396606445, -2.3121225833892822, -1.5859897136688232, -2.2200961112976074, 1.119140625, -0.416748046875, 0.055908203125
330, 2461427721, -6.791769027709961, -0.8342163562774658, 7.16169548034668, -2.3184101581573486, -1.5929818153381348, -2.1271984577178955, 1.1201171875, -0.416748046875, 0.056640625
331, 2461444388, -6.793145179748535, -0.8403545618057251, 7.152000904083252, -2.3164637088775635, -1.5802395343780518, -2.110383987426758, 1.12255859375, -0.415283203125, 0.055419921875
332, 2461461055, -6.79046630859375, -0.8374311923980713, 7.140644550323486, -2.362413167953491, -1.6269700527191162, -2.1854166984558105, 1.1201171875, -0.415283203125, 0.055419921875
333, 2461477722, -6.780059814453125, -0.831779956817627, 7.171736240386963, -2.350054979324341, -1.6883893013000488, -2.136176109313965, 1.11962890625, -0.414794921875, 0.054443359375
334, 2461494389, -6.789029121398926, -0.8341483473777771, 7.161134243011475, -2.4415948390960693, -1.5694438219070435, -2.228945255279541, 1.1201171875, -0.417236328125, 0.055908203125
335, 2461511056, -6.806978225708008, -0.8414682745933533, 7.13076639175415, -2.354985237121582, -1.5321388244628906, -2.277237892150879, 1.12060546875, -0.418212890625, 0.054931640625
336, 2461527723, -6.794054985046387, -0.8339398503303528, 7.162421703338623, -2.4252665042877197, -1.485754370689392, -2.25231671333313, 1.11962890625, -0.417724609375, 0.054443359375
337, 2461544390, -6.784794807434082, -0.8225260376930237, 7.126850128173828, -2.4186458587646484, -1.4204418659210205, -2.254519462585449, 1.11962890625, -0.417724609375, 0.055419921875
338, 2461561057, -6.797069549560547, -0.8397766947746277, 7.161355972290039, -2.38454270362854, -1.505130410194397, -2.2350666522979736, 1.119140625, -0.415283203125, 0.054931640625
339, 2461577724, -6.812224388122559, -0.8417661786079407, 7.137360095977783, -2.410244941711426, -1.5120586156845093, -2.298663377761841, 1.1201171875, -0.416259765625, 0.053955078125
340, 2461594391, -6.799766540527344, -0.831927478313446, 7.141561508178711, -2.398859977722168, -1.614663004875183, -2.3168222904205322, 1.12158203125, -0.416748046875, 0.055419921875
341, 2461611058, -6.798314571380615, -0.8356611132621765, 7.153017520904541, -2.340808391571045, -1.6395199298858643, -2.2338755130767822, 1.11962890625, -0.416259765625, 0.05712890625
342, 2461627725, -6.796898365020752, -0.8310298919677734, 7.144965171813965, -2.3712620735168457, -1.5603896379470825, -2.2830004692077637, 1.11962890625, -0.416748046875, 0.05712890625
343, 2461644392, -6.791841983795166, -0.8392345905303955, 7.144129753112793, -2.459984540939331, -1.5010963678359985, -2.386181354522705, 1.11962890625, -0.414794921875, 0.054443359375
344, 2461661059, -6.797347545623779, -0.8447951674461365, 7.1324262619018555, -2.496520757675171, -1.4427120685577393, -2.3566372394561768, 1.12060546875, -0.416748046875, 0.055908203125
345, 2461677726, -6.781337261199951, -0.8257627487182617, 7.154799938201904, -2.4832794666290283, -1.3383532762527466, -2.246631145477295, 1.12060546875, -0.414794921875, 0.054931640625
346, 2461694393, -6.797280311584473, -0.8389666080474854, 7.139817714691162, -2.4890296459198, -1.391550898551941, -2.253443717956543, 1.12060546875, -0.416259765625, 0.054931640625
347, 2461711060, -6.796754360198975, -0.8368677496910095, 7.15106725692749, -2.3889477252960205, -1.4378840923309326, -2.2099146842956543, 1.11865234375, -0.418212890625, 0.05712890625
348, 2461727727, -6.790946006774902, -0.821702241897583, 7.154755115509033, -2.431439161300659, -1.4313656091690063, -2.309535503387451, 1.12255859375, -0.416748046875, 0.055419921875
349, 2461744394, -6.7874908447265625, -0.8398346304893494, 7.140659332275391, -2.4370481967926025, -1.3470102548599243, -2.1921651363372803, 1.12060546875, -0.415283203125, 0.054931640625
350, 2461761061, -6.790726184844971, -0.8453286290168762, 7.1260175704956055, -2.375859498977661, -1.4220298528671265, -2.2882001399993896, 1.1201171875, -0.416259765625, 0.055908203125
351, 2461777728, -6.800615310668945, -0.8367164731025696, 7.149612903594971, -2.3479416370391846, -1.394662618637085, -2.219352960586548, 1.1220703125, -0.417724609375, 0.052490234375
352, 2461794395, -6.784010887145996, -0.8321935534477234, 7.149451732635498, -2.318896770477295, -1.4550317525863647, -2.1580874919891357, 1.12060546875, -0.414794921875, 0.055419921875
353, 2461811062, -6.799110412597656, -0.8370972871780396, 7.154869079589844, -2.4122297763824463, -1.4493972063064575, -2.2118618488311768, 1.1201171875, -0.417724609375, 0.056396484375
354, 2461827729, -6.796539783477783, -0.8349249362945557, 7.145009994506836, -2.4297361373901367, -1.535904049873352, -2.24429988861084, 1.1201171875, -0.415771484375, 0.056640625
355, 2461844396, -6.789738655090332, -0.8452292084693909, 7.156154155731201, -2.3744254112243652, -1.5097278356552124, -2.2619473934173584, 1.12109375, -0.416259765625, 0.052490234375
356, 2461861063, -6.798910140991211, -0.8331666588783264, 7.135612964630127, -2.2430579662323, -1.5568938255310059, -2.2859206199645996, 1.1201171875, -0.414794921875, 0.056396484375
357, 2461877730, -6.7892022132873535, -0.8375670909881592, 7.145773410797119, -2.3757317066192627, -1.4962042570114136, -2.171316623687744, 1.1201171875, -0.414306640625, 0.054931640625
358, 2461894397, -6.797379016876221, -0.8420426845550537, 7.125046730041504, -2.3579564094543457, -1.4299955368041992, -2.1500966548919678, 1.1220703125, -0.416259765625, 0.05712890625
359, 2461911064, -6.793697357177734, -0.8441700339317322, 7.1414408683776855, -2.413177251815796, -1.4444795846939087, -2.187196731567383, 1.117919921875, -0.415771484375, 0.055908203125
360, 2461927731, -6.805408477783203, -0.8471790552139282, 7.115434646606445, -2.322636127471924, -1.419980764389038, -2.18253493309021, 1.1220703125, -0.415771484375, 0.05712890625
361, 2461944398, -6.792886734008789, -0.8279486298561096, 7.144192695617676, -2.3523342609405518, -1.3929466009140015, -2.209287405014038, 1.119140625, -0.417236328125, 0.054931640625
362, 2461961065, -6.802875995635986, -0.8445993661880493, 7.134049892425537, -2.3729255199432373, -1.4887257814407349, -2.21974515914917, 1.12109375, -0.417236328125, 0.05712890625
363, 2461977732, -6.804379463195801, -0.8159151077270508, 7.144613742828369, -2.3670997619628906, -1.4733831882476807, -2.1623265743255615, 1.1201171875, -0.415771484375, 0.054931640625
364, 2461994399, -6.800457954406738, -0.8180432319641113, 7.151541233062744, -2.4850852489471436, -1.3635047674179077, -2.136687994003296, 1.11962890625, -0.417724609375, 0.055908203125
365, 2462011066, -6.793030261993408, -0.8465259075164795, 7.153131484985352, -2.4149317741394043, -1.3601112365722656, -2.174851417541504, 1.1220703125, -0.417236328125, 0.055419921875
366, 2462027733, -6.792980194091797, -0.8488844037055969, 7.144746780395508, -2.3222649097442627, -1.3784241676330566, -2.1388652324676514, 1.1220703125, -0.416259765625, 0.055908203125
367, 2462044400, -6.801064968109131, -0.8238202929496765, 7.132645606994629, -2.474186658859253, -1.454660415649414, -2.220787286758423, 1.12109375, -0.417724609375, 0.054443359375
368, 2462061067, -6.7972612380981445, -0.843957245349884, 7.1416707038879395, -2.4012930393218994, -1.4633303880691528, -2.2024364471435547, 1.1201171875, -0.415771484375, 0.055419921875
369, 2462077734, -6.794224262237549, -0.8485977053642273, 7.138324737548828, -2.3976047039031982, -1.4611660242080688, -2.2206592559814453, 1.11962890625, -0.415283203125, 0.055419921875
370, 2462094401, -6.803442001342773, -0.8240976929664612, 7.1326751708984375, -2.4095661640167236, -1.5288476943969727, -2.2252697944641113, 1.1201171875, -0.417724609375, 0.056640625
371, 2462111068, -6.802890300750732, -0.8270711302757263, 7.139710903167725, -2.3869247436523438, -1.6019208431243896, -2.181715726852417, 1.11962890625, -0.417236328125, 0.0576171875
372, 2462127735, -6.800467014312744, -0.819486677646637, 7.13301420211792, -2.4032013416290283, -1.700516939163208, -2.1709580421447754, 1.12060546875, -0.414794921875, 0.0576171875
373, 2462144402, -6.796011447906494, -0.834169864654541, 7.147312164306641, -2.3667163848876953, -1.642606496810913, -2.2207107543945312, 1.11962890625, -0.415771484375, 0.055419921875
374, 2462161069, -6.797407150268555, -0.8302158713340759, 7.164452075958252, -2.3825571537017822, -1.632758378982544, -2.2586302757263184, 1.12255859375, -0.416748046875, 0.053955078125
375, 2462177736, -6.805452823638916, -0.8290615677833557, 7.1395368576049805, -2.382096290588379, -1.7130542993545532, -2.326017379760742, 1.119140625, -0.415283203125, 0.053955078125
376, 2462194403, -6.787304401397705, -0.8265294432640076, 7.143667221069336, -2.472048282623291, -1.5764105319976807, -2.3046436309814453, 1.12109375, -0.418701171875, 0.054931640625
377, 2462211070, -6.7907915115356445, -0.8325641751289368, 7.142873287200928, -2.5431361198425293, -1.5410778522491455, -2.353743076324463, 1.1220703125, -0.417724609375, 0.0556640625
378, 2462227737, -6.807912826538086, -0.8300282955169678, 7.143881797790527, -2.582080364227295, -1.4332739114761353, -2.367496967315674, 1.12109375, -0.417724609375, 0.055908203125
379, 2462244404, -6.7891459465026855, -0.8130518198013306, 7.164499282836914, -2.5753698348999023, -1.321051836013794, -2.3993594646453857, 1.1201171875, -0.415283203125, 0.056396484375
380, 2462261071, -6.797736644744873, -0.8271474838256836, 7.140421390533447, -2.5997402667999268, -1.285911202430725, -2.406287670135498, 1.12060546875, -0.416748046875, 0.055908203125
381, 2462277738, -6.795384883880615, -0.8497400879859924, 7.1295671463012695, -2.650236129760742, -1.4064321517944336, -2.5223007202148438, 1.11962890625, -0.415771484375, 0.055908203125
382, 2462294405, -6.797430992126465, -0.8607800602912903, 7.15180778503418, -2.4676554203033447, -1.405855417251587, -2.3372483253479004, 1.12109375, -0.415771484375, 0.0576171875
383, 2462311072, -6.810197353363037, -0.8229233026504517, 7.139649391174316, -2.5070862770080566, -1.4801324605941772, -2.3609530925750732, 1.12158203125, -0.416259765625, 0.055419921875
384, 2462327739, -6.817724704742432, -0.8395260572433472, 7.137986660003662, -2.512106418609619, -1.3793079853057861, -2.4296464920043945, 1.12109375, -0.415771484375, 0.055419921875
385, 2462344406, -6.802331924438477, -0.8385819792747498, 7.133984088897705, -2.593733787536621, -1.375030517578125, -2.404007911682129, 1.11865234375, -0.416748046875, 0.055908203125
386, 2462361073, -6.809938907623291, -0.827144980430603, 7.1490397453308105, -2.7302117347717285, -1.2307161092758179, -2.620525360107422, 1.11962890625, -0.416259765625, 0.056396484375
387, 2462377740, -6.806914329528809, -0.8286246657371521, 7.14449405670166, -2.901329755783081, -1.056626319885254, -2.709810733795166, 1.12158203125, -0.413818359375, 0.054931640625
388, 2462394407, -6.805961608886719, -0.8300954103469849, 7.130835056304932, -2.8433425426483154, -1.2605801820755005, -2.706404209136963, 1.1220703125, -0.414306640625, 0.055419921875
389, 2462411074, -6.787513256072998, -0.8538376688957214, 7.136172294616699, -2.799622058868408, -1.2119547128677368, -2.6606476306915283, 1.1201171875, -0.416748046875, 0.056396484375
390, 2462427741, -6.802286624908447, -0.8360350131988525, 7.170905113220215, -2.8750510215759277, -1.1583982706069946, -2.7354233264923096, 1.12158203125, -0.414306640625, 0.055908203125
391, 2462444408, -6.810801982879639, -0.8358893990516663, 7.156204700469971, -2.954604148864746, -1.1776974201202393, -2.7291738986968994, 1.12255859375, -0.414306640625, 0.055419921875
392, 2462461075, -6.801359176635742, -0.8748766183853149, 7.1372785568237305, -2.7124366760253906, -1.345691442489624, -2.6366357803344727, 1.12109375, -0.414794921875, 0.053955078125
393, 2462477742, -6.791693210601807, -0.8541027307510376, 7.1300458908081055, -2.6731979846954346, -1.3837263584136963, -2.6408748626708984, 1.119140625, -0.415771484375, 0.056884765625
394, 2462494409, -6.802454948425293, -0.8376597762107849, 7.14401912689209, -2.962761640548706, -0.9960266351699829, -2.7687582969665527, 1.1220703125, -0.415283203125, 0.055908203125
395, 2462511076, -6.800500392913818, -0.8682301640510559, 7.1347222328186035, -3.0488462448120117, -0.9508971571922302, -2.8568274974823, 1.12158203125, -0.414306640625, 0.0576171875
396, 2462527743, -6.792523384094238, -0.8754259347915649, 7.122162342071533, -2.9106788635253906, -1.0067073106765747, -2.61749005317688, 1.12060546875, -0.414794921875, 0.054931640625
397, 2462544410, -6.807741165161133, -0.8652193546295166, 7.1382551193237305, -2.700551986694336, -1.1104388236999512, -2.5319950580596924, 1.12158203125, -0.413818359375, 0.05859375
398, 2462561077, -6.807232856750488, -0.8593184947967529, 7.124250888824463, -2.674381971359253, -1.217516303062439, -2.4481711387634277, 1.12060546875, -0.41357421875, 0.055908203125
399, 2462577744, -6.827484607696533, -0.8754032850265503, 7.131731033325195, -2.4827284812927246, -1.3088728189468384, -2.3003530502319336, 1.1201171875, -0.41259765625, 0.055419921875
400, 2462594411, -6.8138017654418945, -0.8514001965522766, 7.118066310882568, -2.4782721996307373, -1.2344425916671753, -2.277045965194702, 1.123046875, -0.414306640625, 0.05712890625
401, 2462611078, -6.803988933563232, -0.8474023938179016, 7.156466007232666, -2.5215063095092773, -1.2734251022338867, -2.2456064224243164, 1.12158203125, -0.41357421875, 0.0576171875
402, 2462627745, -6.805116653442383, -0.8609314560890198, 7.139149188995361, -2.508059501647949, -1.2621299028396606, -2.3781392574310303, 1.11962890625, -0.41357421875, 0.055908203125
403, 2462644412, -6.80761194229126, -0.86742103099823, 7.12153959274292, -2.457231044769287, -1.287768006324768, -2.229252576828003, 1.118896484375, -0.41357421875, 0.056884765625
404, 2462661079, -6.806466579437256, -0.8674588799476624, 7.128176212310791, -2.3931479454040527, -1.2789957523345947, -2.203767776489258, 1.1220703125, -0.41357421875, 0.056396484375
405, 2462677746, -6.805929183959961, -0.8548453450202942, 7.1206817626953125, -2.5080084800720215, -1.1118088960647583, -2.161660671234131, 1.12060546875, -0.413818359375, 0.055908203125
406, 2462694413, -6.8059587478637695, -0.8637152910232544, 7.145824432373047, -2.4146883487701416, -0.9916980266571045, -2.1639914512634277, 1.1220703125, -0.41259765625, 0.056396484375
407, 2462711080, -6.81732177734375, -0.8588576912879944, 7.148342609405518, -2.5932600498199463, -0.7443819046020508, -2.082005023956299, 1.1201171875, -0.41259765625, 0.0595703125
408, 2462727747, -6.80894136428833, -0.8450659513473511, 7.1472859382629395, -2.6709048748016357, -0.3684130311012268, -2.176887273788452, 1.11962890625, -0.4130859375, 0.05908203125
409, 2462744414, -6.8122782707214355, -0.872937798500061, 7.130545616149902, -2.684070348739624, -0.048600099980831146, -2.05981183052063, 1.12158203125, -0.41357421875, 0.05859375
410, 2462761081, -6.810271263122559, -0.8901565074920654, 7.096142292022705, -2.478938102722168, -0.20725798606872559, -1.9047907590866089, 1.12060546875, -0.4130859375, 0.05712890625
411, 2462777748, -6.816588401794434, -0.8767589330673218, 7.0968499183654785, -2.259693145751953, -0.5399157404899597, -1.6029835939407349, 1.1220703125, -0.414306640625, 0.05859375
412, 2462794415, -6.816304683685303, -0.8827884197235107, 7.101131439208984, -1.9462707042694092, -0.6717571020126343, -1.2940175533294678, 1.1220703125, -0.415283203125, 0.05859375
413, 2462811082, -6.8156890869140625, -0.9130039215087891, 7.136058330535889, -1.5694307088851929, -0.7230080366134644, -0.6998797059059143, 1.12255859375, -0.414794921875, 0.0595703125
414, 2462827749, -6.826715469360352, -0.8382135033607483, 7.1049628257751465, -1.4876625537872314, -0.49536240100860596, -0.37733909487724304, 1.12353515625, -0.414794921875, 0.060302734375
415, 2462844416, -6.809393405914307, -0.7800803184509277, 7.145199298858643, -1.5619009733200073, -0.01100065466016531, -0.3797723352909088, 1.123046875, -0.415771484375, 0.05908203125
416, 2462861083, -6.823113441467285, -0.8256099224090576, 7.129237174987793, -1.7655088901519775, 0.7031005620956421, -0.43066471815109253, 1.1220703125, -0.416259765625, 0.061767578125
417, 2462877750, -6.845011234283447, -0.8353705406188965, 7.1099162101745605, -1.9829224348068237, 0.9093469381332397, -0.6686579585075378, 1.123291015625, -0.418701171875, 0.061279296875
418, 2462894417, -6.861175060272217, -0.8563067317008972, 7.104752540588379, -2.4229228496551514, 0.9629926681518555, -0.8754804134368896, 1.12353515625, -0.415771484375, 0.061279296875
419, 2462911084, -6.854179859161377, -0.8032274842262268, 7.103784084320068, -2.5958471298217773, 1.1454448699951172, -1.0682801008224487, 1.124755859375, -0.417724609375, 0.059814453125
420, 2462927751, -6.855026721954346, -0.8383800387382507, 7.096071720123291, -2.665847063064575, 1.4518879652023315, -1.0951734781265259, 1.124267578125, -0.417724609375, 0.062744140625
421, 2462944418, -6.864736557006836, -0.8294563889503479, 7.034939765930176, -2.8533060550689697, 1.474247932434082, -1.5499910116195679, 1.12255859375, -0.419189453125, 0.063720703125
422, 2462961085, -6.874439716339111, -0.8485510349273682, 7.051163673400879, -2.858876943588257, 0.914930522441864, -1.7206740379333496, 1.124267578125, -0.417236328125, 0.063232421875
423, 2462977752, -6.878323078155518, -0.8712660670280457, 7.068007469177246, -2.6324474811553955, 0.2091340720653534, -1.9822052717208862, 1.124267578125, -0.418212890625, 0.0654296875
424, 2462994419, -6.868932247161865, -0.8720917105674744, 7.042517185211182, -2.5814015865325928, -0.7745151519775391, -2.0569815635681152, 1.127685546875, -0.418701171875, 0.0634765625
425, 2463011086, -6.848979473114014, -0.9226735830307007, 7.022896766662598, -2.1721105575561523, -1.939316749572754, -1.630158543586731, 1.125732421875, -0.419189453125, 0.06396484375
426, 2463027753, -6.895761489868164, -0.8401134014129639, 7.052885055541992, -1.9254220724105835, -3.0458109378814697, -1.496537208557129, 1.125244140625, -0.419189453125, 0.06787109375
427, 2463044420, -6.883734703063965, -0.7999262809753418, 7.0500569343566895, -1.9107202291488647, -4.755805015563965, -1.9718835353851318, 1.125244140625, -0.418701171875, 0.0654296875
428, 2463061087, -6.8610358238220215, -0.872240424156189, 7.062777042388916, -1.5093053579330444, -6.681610584259033, -2.0412681102752686, 1.125244140625, -0.41943359375, 0.064453125
429, 2463077754, -6.88662576675415, -0.851405143737793, 7.025203704833984, -0.9311243891716003, -8.615998268127441, -2.108719825744629, 1.122802734375, -0.419921875, 0.0595703125
430, 2463094421, -6.858006954193115, -0.7295498251914978, 7.0103936195373535, 0.3337016701698303, -13.265503883361816, -2.0661139488220215, 1.123779296875, -0.42041015625, 0.05810546875
431, 2463111088, -6.703895568847656, -0.44350093603134155, 7.085597515106201, 0.9165964722633362, -18.403696060180664, -4.204457759857178, 1.1201171875, -0.41943359375, 0.055908203125
432, 2463127755, -6.628817558288574, -0.36455678939819336, 7.2905378341674805, -0.3590392470359802, -17.6317138671875, -5.951335430145264, 1.115478515625, -0.419921875, 0.0498046875
433, 2463144422, -6.568826198577881, -0.4082131087779999, 7.349323272705078, -3.3114612102508545, -11.63801383972168, -7.220661640167236, 1.114501953125, -0.41943359375, 0.048583984375
434, 2463161089, -6.6909708976745605, -1.182772159576416, 7.342216491699219, -5.38300895690918, -4.395690441131592, -6.943911552429199, 1.114501953125, -0.415771484375, 0.045166015625
435, 2463177756, -6.812748432159424, -1.3860421180725098, 7.185230255126953, -3.18892240524292, -0.6697978377342224, -2.33152437210083, 1.113525390625, -0.417236328125, 0.046142578125
436, 2463194423, -6.779254913330078, -1.1083647012710571, 7.213789463043213, -1.6007040739059448, 0.43177247047424316, 0.5562117695808411, 1.116455078125, -0.416748046875, 0.045654296875
437, 2463211090, -6.754343032836914, -0.5383093357086182, 7.256419658660889, -2.582618236541748, 0.8511548638343811, -0.7460211515426636, 1.114990234375, -0.416259765625, 0.048583984375
438, 2463227757, -6.768177032470703, -0.7124685645103455, 7.267848968505859, -5.820768356323242, 2.835780620574951, -3.157392978668213, 1.11376953125, -0.413818359375, 0.05029296875
439, 2463244424, -6.780817985534668, -0.919870913028717, 7.08408784866333, -7.965128421783447, 3.916111946105957, -3.3632426261901855, 1.114501953125, -0.412109375, 0.0537109375
440, 2463261091, -6.733524799346924, -1.0501091480255127, 7.048621654510498, -8.21779727935791, 2.908764362335205, -3.3043718338012695, 1.11376953125, -0.40966796875, 0.0546875
441, 2463277758, -6.6898956298828125, -0.8693670034408569, 7.178991794586182, -7.897524356842041, 2.7542176246643066, -3.2814998626708984, 1.115234375, -0.405517578125, 0.055908203125
442, 2463294425, -6.692779064178467, -0.9534682035446167, 7.239516735076904, -9.02450942993164, 4.978924751281738, -4.453242778778076, 1.115234375, -0.404052734375, 0.057861328125
443, 2463311092, -6.764383792877197, -1.2284568548202515, 7.117199420928955, -8.711470603942871, 6.457648754119873, -3.708322763442993, 1.11572265625, -0.403076171875, 0.059326171875
444, 2463327759, -6.769429683685303, -1.2878717184066772, 7.066688060760498, -6.935755252838135, 7.211905479431152, -1.013110637664795, 1.116943359375, -0.404052734375, 0.06201171875
445, 2463344426, -6.751964569091797, -1.330654263496399, 7.136702060699463, -4.683706760406494, 8.587677955627441, 2.67577862739563, 1.118408203125, -0.40087890625, 0.065185546875
446, 2463361093, -6.860433578491211, -1.663399338722229, 6.986955165863037, -2.2748827934265137, 10.740365982055664, 7.383703708648682, 1.118408203125, -0.404052734375, 0.068603515625
447, 2463377760, -6.996154308319092, -1.5186915397644043, 7.018372058868408, -0.23573949933052063, 11.180009841918945, 11.742080688476562, 1.120849609375, -0.405517578125, 0.0712890625
448, 2463394427, -7.087936878204346, -1.1479265689849854, 6.968094825744629, -0.2248157113790512, 10.025007247924805, 14.347282409667969, 1.12255859375, -0.4111328125, 0.074951171875
449, 2463411094, -7.097054958343506, 0.11219531297683716, 7.049457550048828, 0.03754183650016785, 2.3675687313079834, 11.801396369934082, 1.12158203125, -0.414794921875, 0.076171875
450, 2463427761, -6.951104164123535, -0.14640463888645172, 7.1761016845703125, -2.4589476585388184, 1.1821095943450928, 5.914607048034668, 1.12158203125, -0.417236328125, 0.07958984375
451, 2463444428, -6.893813133239746, -0.3456670045852661, 7.140429973602295, -4.60422945022583, 4.227076053619385, 2.4126334190368652, 1.123779296875, -0.417724609375, 0.080322265625
452, 2463461095, -6.7797627449035645, -0.8955450654029846, 7.05149507522583, -4.9224934577941895, 8.25808048248291, 2.720946788787842, 1.124755859375, -0.418701171875, 0.083984375
453, 2463477762, -6.93980073928833, -0.4633123576641083, 6.963650703430176, -4.1173834800720215, 10.036320686340332, 4.566918849945068, 1.126953125, -0.419677734375, 0.0849609375
454, 2463494429, -7.156167507171631, 0.24108894169330597, 6.88067626953125, -5.839684963226318, 9.826244354248047, 0.3678048849105835, 1.1279296875, -0.42041015625, 0.090576171875
455, 2463511096, -7.098957538604736, 0.09692820906639099, 6.752316474914551, -6.234724521636963, 7.418524742126465, -7.424280643463135, 1.12939453125, -0.4208984375, 0.0947265625
456, 2463527763, -6.978176116943359, -1.1039013862609863, 6.489090442657471, -0.7414108514785767, 2.459043264389038, -5.267008304595947, 1.1318359375, -0.418212890625, 0.095458984375
457, 2463544430, -7.142915725708008, -1.3055883646011353, 6.435890197753906, 8.367371559143066, -8.37343692779541, 3.4193549156188965, 1.12841796875, -0.42138671875, 0.09228515625
458, 2463561097, -7.3169426918029785, -0.6849287152290344, 6.643446445465088, 14.285781860351562, -21.02560806274414, 8.153817176818848, 1.1259765625, -0.426025390625, 0.087646484375
459, 2463577764, -7.22821044921875, 0.002177746966481209, 7.246642589569092, 12.981287002563477, -29.485408782958984, 3.1122169494628906, 1.123291015625, -0.429443359375, 0.078857421875
460, 2463594431, -6.875382900238037, -0.02213778905570507, 7.458683967590332, 3.5163450241088867, -26.207839965820312, -8.174032211303711, 1.121826171875, -0.429931640625, 0.072021484375
461, 2463611098, -6.660464286804199, -0.30819112062454224, 7.439924716949463, -5.224461555480957, -15.634033203125, -15.148618698120117, 1.11865234375, -0.424560546875, 0.06591796875
462, 2463627765, -6.63124418258667, -0.887071430683136, 7.445313930511475, -9.25211238861084, -4.751904010772705, -15.267569541931152, 1.11865234375, -0.421875, 0.06640625
463, 2463644432, -6.68241548538208, -0.4814322590827942, 7.433945178985596, -10.5962553024292, 4.07846212387085, -13.548633575439453, 1.1181640625, -0.418701171875, 0.065185546875
464, 2463661099, -6.8374924659729, -0.6152583956718445, 7.129516124725342, -12.143332481384277, 8.667511940002441, -14.858194351196289, 1.123046875, -0.415771484375, 0.0654296875
465, 2463677766, -6.975331783294678, -1.1931254863739014, 6.761881351470947, -13.06926155090332, 8.206598281860352, -16.03008270263672, 1.1220703125, -0.412109375, 0.0693359375
466, 2463694433, -7.004226207733154, -1.8458799123764038, 6.649893760681152, -10.261787414550781, 2.6975507736206055, -12.812211990356445, 1.12255859375, -0.408447265625, 0.06884765625
467, 2463711100, -6.956849098205566, -1.4032745361328125, 6.8845720291137695, -5.592201232910156, -1.367206335067749, -6.351541519165039, 1.123046875, -0.406005859375, 0.072021484375
468, 2463727767, -6.959415912628174, -0.8321716785430908, 7.057117462158203, -5.192142963409424, -1.8633496761322021, -5.565512657165527, 1.123046875, -0.404541015625, 0.07177734375
469, 2463744434, -6.992698669433594, -0.736352801322937, 6.9673357009887695, -5.078183174133301, -4.360686302185059, -7.1568756103515625, 1.123046875, -0.404541015625, 0.072021484375
470, 2463761101, -6.867649078369141, -1.2033323049545288, 6.956130504608154, -3.985067844390869, -7.110996723175049, -6.755633354187012, 1.1220703125, -0.405029296875, 0.068359375
471, 2463777768, -6.83316707611084, -1.4844155311584473, 7.042187690734863, -1.3969682455062866, -6.695930004119873, -2.848273754119873, 1.123046875, -0.404541015625, 0.0673828125
472, 2463794435, -6.849103927612305, -1.3918956518173218, 7.1243205070495605, 1.4549998044967651, -5.624266624450684, 1.7472790479660034, 1.123046875, -0.407470703125, 0.06689453125
473, 2463811102, -6.994748592376709, -1.6021537780761719, 6.941646575927734, 5.304449558258057, -6.976619720458984, 5.589903354644775, 1.12158203125, -0.4111328125, 0.065673828125
474, 2463827769, -6.957539081573486, -1.2160792350769043, 6.974282741546631, 9.686534881591797, -13.465662002563477, 7.798556327819824, 1.119140625, -0.414794921875, 0.062744140625
475, 2463844436, -6.844654560089111, -0.8161628246307373, 7.033351421356201, 11.503138542175293, -18.456684112548828, 8.282502174377441, 1.12109375, -0.419921875, 0.05810546875
476, 2463861103, -6.815034866333008, -0.8793982267379761, 7.1312575340271, 10.97410774230957, -18.75545883178711, 8.47272777557373, 1.1171875, -0.424560546875, 0.053466796875
477, 2463877770, -6.740134239196777, -0.32484233379364014, 7.275510311126709, 9.194621086120605, -17.181564331054688, 8.089714050292969, 1.113525390625, -0.427490234375, 0.0498046875
478, 2463894437, -6.642241477966309, 0.036964405328035355, 7.408445835113525, 4.9863152503967285, -12.565726280212402, 4.290648460388184, 1.111572265625, -0.431640625, 0.047607421875
479, 2463911104, -6.585358619689941, -0.07796592265367508, 7.422882556915283, 0.5984472632408142, -6.326632499694824, 0.8054874539375305, 1.11474609375, -0.431640625, 0.045654296875
480, 2463927771, -6.616845607757568, -0.34046685695648193, 7.335888385772705, -2.2325947284698486, -1.160780429840088, -1.5846449136734009, 1.112060546875, -0.431640625, 0.046142578125
481, 2463944438, -6.6660003662109375, -0.5942342877388, 7.2160420417785645, -3.710780382156372, 1.115669846534729, -2.9304771423339844, 1.115234375, -0.43212890625, 0.045654296875
482, 2463961105, -6.665297031402588, -0.7289849519729614, 7.1701765060424805, -3.3254761695861816, 0.7920343279838562, -2.6821749210357666, 1.11328125, -0.43310546875, 0.046142578125
483, 2463977772, -6.6585693359375, -0.7820452451705933, 7.164934158325195, -2.1708428859710693, -0.2454080879688263, -1.723427414894104, 1.11474609375, -0.43359375, 0.043212890625
484, 2463994439, -6.722396373748779, -0.8040174841880798, 7.158486366271973, -1.2831194400787354, -1.853834629058838, -1.0130975246429443, 1.1142578125, -0.43408203125, 0.046142578125
485, 2464011106, -6.697970867156982, -0.6571080684661865, 7.190941333770752, -1.1658899784088135, -2.82043194770813, -1.0065534114837646, 1.11572265625, -0.43310546875, 0.04638671875
486, 2464027773, -6.669060707092285, -0.602707028388977, 7.221187591552734, -1.5637704133987427, -2.5974862575531006, -1.6363697052001953, 1.1123046875, -0.434326171875, 0.0478515625
487, 2464044440, -6.671365261077881, -0.6712652444839478, 7.271092414855957, -1.7933757305145264, -1.9277656078338623, -2.151197910308838, 1.11572265625, -0.434326171875, 0.044189453125
488, 2464061107, -6.7082695960998535, -0.6418271660804749, 7.237650394439697, -2.015886068344116, -1.724861741065979, -2.3953254222869873, 1.115234375, -0.434326171875, 0.044677734375
489, 2464077774, -6.692539691925049, -0.6926284432411194, 7.247285842895508, -1.9929882287979126, -1.4725637435913086, -2.303093910217285, 1.11279296875, -0.435302734375, 0.046142578125
490, 2464094441, -6.679909706115723, -0.7055113315582275, 7.270302772521973, -2.2614989280700684, -0.9511916637420654, -2.0037200450897217, 1.11376953125, -0.434326171875, 0.04638671875
491, 2464111108, -6.689189910888672, -0.6553529500961304, 7.277210235595703, -2.520840644836426, -0.5438472628593445, -1.7279225587844849, 1.1123046875, -0.434326171875, 0.045654296875
492, 2464127775, -6.723005771636963, -0.6532854437828064, 7.222118377685547, -2.653385877609253, -0.7020696401596069, -1.6214503049850464, 1.1142578125, -0.434814453125, 0.0458984375
493, 2464144442, -6.71929931640625, -0.6102781891822815, 7.215438365936279, -2.393583297729492, -1.2890870571136475, -1.7344022989273071, 1.1162109375, -0.434326171875, 0.0458984375
494, 2464161109, -6.702841758728027, -0.6623473763465881, 7.191558837890625, -2.289416790008545, -1.571415901184082, -2.012389659881592, 1.115234375, -0.434326171875, 0.045654296875
495, 2464177776, -6.700245380401611, -0.6058630347251892, 7.248328685760498, -1.8449723720550537, -1.533483624458313, -2.169318914413452, 1.1162109375, -0.434814453125, 0.04541015625
496, 2464194443, -6.669033050537109, -0.509779155254364, 7.243875503540039, -1.8265695571899414, -0.9307781457901001, -2.8193562030792236, 1.1142578125, -0.434326171875, 0.045166015625
497, 2464211110, -6.684587478637695, -0.530474066734314, 7.231987953186035, -2.007023811340332, 0.4154187738895416, -3.526036024093628, 1.11572265625, -0.434814453125, 0.04541015625
498, 2464227777, -6.739983558654785, -0.6008917689323425, 7.245155334472656, -1.9766089916229248, 1.0268452167510986, -3.9668309688568115, 1.1142578125, -0.43310546875, 0.043701171875
499, 2464244444, -6.7612128257751465, -0.812090277671814, 7.234439373016357, -1.8799468278884888, 0.09738590568304062, -3.4608654975891113, 1.11767578125, -0.434326171875, 0.0458984375
500, 2464261111, -6.719363689422607, -0.7828618288040161, 7.226930141448975, -1.6952917575836182, -0.8059547543525696, -2.6150054931640625, 1.115234375, -0.43310546875, 0.0458984375
501, 2464277778, -6.7081475257873535, -0.5509129762649536, 7.230504512786865, -1.9204658269882202, -0.4137219488620758, -2.4283788204193115, 1.11572265625, -0.43212890625, 0.045654296875
502, 2464294445, -6.734325885772705, -0.5496132969856262, 7.2455525398254395, -2.585435390472412, 0.4789638817310333, -3.3324296474456787, 1.11474609375, -0.43310546875, 0.0478515625
503, 2464311112, -6.778992652893066, -0.6776323318481445, 7.209089756011963, -2.958190441131592, 0.6405032277107239, -3.6258111000061035, 1.1162109375, -0.43359375, 0.046875
504, 2464327779, -6.766301155090332, -0.7458194494247437, 7.201385021209717, -2.773740291595459, -0.12901116907596588, -3.506148338317871, 1.1162109375, -0.43310546875, 0.0498046875
505, 2464344446, -6.730319023132324, -0.7749941349029541, 7.1930413246154785, -2.417872905731201, -0.904867947101593, -3.2306559085845947, 1.11767578125, -0.43310546875, 0.04638671875
506, 2464361113, -6.740969657897949, -0.7051807045936584, 7.209715843200684, -2.3582639694213867, -0.8453472256660461, -3.124877691268921, 1.1162109375, -0.43212890625, 0.04833984375
507, 2464377780, -6.706087589263916, -0.6108913421630859, 7.21296501159668, -2.9792439937591553, -0.017134899273514748, -3.6106865406036377, 1.1162109375, -0.43115234375, 0.04736328125
508, 2464394447, -6.707274436950684, -0.4770340025424957, 7.260650157928467, -5.199366092681885, 2.6024489402770996, -5.369165420532227, 1.115234375, -0.43115234375, 0.0478515625
509, 2464411114, -6.753191947937012, -0.5616416335105896, 7.2499189376831055, -7.564215183258057, 5.561781406402588, -7.320459365844727, 1.1171875, -0.428955078125, 0.051513671875
510, 2464427781, -6.801395416259766, -0.7018740773200989, 7.177579402923584, -8.767821311950684, 6.509517192840576, -8.346774101257324, 1.115234375, -0.427001953125, 0.052001953125
511, 2464444448, -6.806867599487305, -0.7795325517654419, 7.1502299308776855, -8.807701110839844, 5.949135780334473, -8.408743858337402, 1.1201171875, -0.424072265625, 0.05517578125
512, 2464461115, -6.85145902633667, -0.8366856575012207, 7.102269172668457, -8.395271301269531, 5.040947914123535, -8.049704551696777, 1.12158203125, -0.42138671875, 0.0556640625
513, 2464477782, -6.832912445068359, -0.8711504936218262, 7.12565803527832, -7.931577682495117, 4.383634567260742, -7.459522724151611, 1.12158203125, -0.4189453125, 0.056640625
514, 2464494449, -6.8402581214904785, -0.8622030019760132, 7.097574234008789, -7.042342662811279, 3.6684634685516357, -6.744248390197754, 1.12060546875, -0.4189453125, 0.0595703125
515, 2464511116, -6.854792594909668, -0.9021422863006592, 7.0729451179504395, -6.249948978424072, 2.6763291358947754, -5.941354274749756, 1.123291015625, -0.419189453125, 0.059814453125
516, 2464527783, -6.853052139282227, -0.876356303691864, 7.087607383728027, -5.326725482940674, 1.5236166715621948, -5.178274154663086, 1.123779296875, -0.416748046875, 0.060791015625
517, 2464544450, -6.869095325469971, -0.899185836315155, 7.035942554473877, -4.573315143585205, 0.6495957970619202, -4.500228404998779, 1.1220703125, -0.414794921875, 0.061767578125
518, 2464561117, -6.843470573425293, -0.8729367852210999, 7.0617356300354, -3.919780731201172, -0.175856813788414, -3.8161768913269043, 1.1240234375, -0.4140625, 0.061279296875
519, 2464577784, -6.849196910858154, -0.9036060571670532, 7.053614139556885, -3.263916492462158, -0.8665290474891663, -3.2581024169921875, 1.1240234375, -0.4140625, 0.062255859375
520, 2464594451, -6.848613739013672, -0.9009364247322083, 7.057272911071777, -2.4776062965393066, -1.48750901222229, -2.6801645755767822, 1.12451171875, -0.4130859375, 0.062255859375
521, 2464611118, -6.8241095542907715, -0.903925359249115, 7.076297283172607, -2.1061325073242188, -1.8283370733261108, -2.2579901218414307, 1.123046875, -0.4130859375, 0.061767578125
522, 2464627785, -6.837944030761719, -0.8770772814750671, 7.081141471862793, -1.554114580154419, -1.9058667421340942, -1.636216163635254, 1.125732421875, -0.414306640625, 0.061279296875
523, 2464644452, -6.8734235763549805, -0.8660222887992859, 7.083770275115967, -1.2706332206726074, -2.1471383571624756, -1.3946754932403564, 1.124267578125, -0.414794921875, 0.062255859375
524, 2464661119, -6.853090286254883, -0.8743790984153748, 7.061148166656494, -0.7194352746009827, -2.795485496520996, -0.8886966705322266, 1.125244140625, -0.414306640625, 0.060302734375
525, 2464677786, -6.84624719619751, -0.8788917064666748, 7.055266857147217, -0.203685000538826, -3.4223687648773193, -0.5110373497009277, 1.12255859375, -0.415771484375, 0.06005859375
526, 2464694453, -6.836121082305908, -0.871993362903595, 7.080542087554932, 0.22834360599517822, -4.238325595855713, -0.24994151294231415, 1.12353515625, -0.416259765625, 0.06005859375
527, 2464711120, -6.834224700927734, -0.8377749919891357, 7.088797092437744, 0.45934462547302246, -4.543539524078369, 0.022404713556170464, 1.1220703125, -0.415283203125, 0.05908203125
528, 2464727787, -6.840907573699951, -0.8357279896736145, 7.112342834472656, 0.4466022849082947, -4.58531379699707, -0.04933006316423416, 1.12060546875, -0.416259765625, 0.0595703125
529, 2464744454, -6.834634780883789, -0.8033152222633362, 7.1419782638549805, 0.21873889863491058, -4.514508247375488, -0.2518240809440613, 1.12109375, -0.42041015625, 0.05810546875
530, 2464761121, -6.826431751251221, -0.7757195830345154, 7.119376182556152, 0.06909666210412979, -4.3907470703125, -0.3097856044769287, 1.12255859375, -0.419921875, 0.056640625
531, 2464777788, -6.814852714538574, -0.7950609922409058, 7.124904155731201, 0.19317740201950073, -4.485756874084473, -0.2520673871040344, 1.12109375, -0.41943359375, 0.055419921875
532, 2464794455, -6.814513206481934, -0.8169776201248169, 7.134165287017822, 0.15450222790241241, -4.521179676055908, -0.09894188493490219, 1.119140625, -0.4208984375, 0.055419921875
533, 2464811122, -6.816134929656982, -0.809812605381012, 7.1463775634765625, -0.20204579830169678, -4.6614990234375, -0.2560117542743683, 1.11962890625, -0.4208984375, 0.055908203125
534, 2464827789, -6.8154120445251465, -0.762704610824585, 7.168227195739746, -0.771236777305603, -4.301960468292236, -0.7170788645744324, 1.1181640625, -0.42333984375, 0.054931640625
535, 2464844456, -6.795009136199951, -0.7347130179405212, 7.170797348022461, -1.4255900382995605, -3.879389524459839, -1.1271508932113647, 1.1201171875, -0.425048828125, 0.053466796875
536, 2464861123, -6.7679619789123535, -0.7303402423858643, 7.150139331817627, -2.048234701156616, -3.2631092071533203, -1.6683601140975952, 1.11962890625, -0.42333984375, 0.052978515625
537, 2464877790, -6.774867534637451, -0.7050368785858154, 7.163339138031006, -2.476862907409668, -2.5902633666992188, -2.085641860961914, 1.11865234375, -0.423828125, 0.051513671875
538, 2464894457, -6.779423713684082, -0.6496366858482361, 7.182328701019287, -2.876434564590454, -1.86068594455719, -2.634765863418579, 1.120849609375, -0.425048828125, 0.052001953125
539, 2464911124, -6.79926872253418, -0.7181328535079956, 7.154926300048828, -3.2696664333343506, -1.269762396812439, -3.2599973678588867, 1.119140625, -0.421875, 0.052001953125
540, 2464927791, -6.794967174530029, -0.7672368288040161, 7.162729740142822, -3.0269734859466553, -1.5719412565231323, -3.165666341781616, 1.11962890625, -0.423828125, 0.053466796875
541, 2464944458, -6.776526927947998, -0.8370025753974915, 7.1256022453308105, -2.418461799621582, -2.242526054382324, -2.5329949855804443, 1.11865234375, -0.424560546875, 0.052490234375
542, 2464961125, -6.762509822845459, -0.8569813370704651, 7.133201599121094, -1.8459585905075073, -2.825106620788574, -1.7126444578170776, 1.11962890625, -0.4228515625, 0.054931640625
543, 2464977792, -6.764462947845459, -0.7616537809371948, 7.184896945953369, -1.6168529987335205, -2.924816846847534, -1.5776911973953247, 1.11865234375, -0.424560546875, 0.052490234375
544, 2464994459, -6.7504425048828125, -0.7528350353240967, 7.174062728881836, -1.7346200942993164, -2.561321258544922, -1.6404165029525757, 1.119140625, -0.424560546875, 0.05078125
545, 2465011126, -6.75795841217041, -0.718234658241272, 7.165722846984863, -2.081838369369507, -2.0535876750946045, -1.9243844747543335, 1.11962890625, -0.425048828125, 0.052001953125
546, 2465027793, -6.759012699127197, -0.748801589012146, 7.163478851318359, -2.4718048572540283, -1.804056167602539, -2.2276391983032227, 1.11962890625, -0.423828125, 0.051513671875
547, 2465044460, -6.769217014312744, -0.7485124468803406, 7.161118507385254, -2.466054677963257, -1.61530339717865, -2.3082807064056396, 1.11865234375, -0.425048828125, 0.052978515625
548, 2465061127, -6.780170917510986, -0.7764270305633545, 7.174575328826904, -2.3828775882720947, -1.6859688758850098, -2.3301796913146973, 1.1201171875, -0.425048828125, 0.04931640625
549, 2465077794, -6.775854110717773, -0.7880022525787354, 7.162078380584717, -2.3465075492858887, -1.8528354167938232, -2.125444173812866, 1.1181640625, -0.423828125, 0.0498046875
550, 2465094461, -6.770678997039795, -0.773521900177002, 7.167381763458252, -2.1809089183807373, -2.1285181045532227, -1.8788195848464966, 1.1181640625, -0.42138671875, 0.052001953125
551, 2465111128, -6.755746841430664, -0.7790456414222717, 7.185568809509277, -2.0059351921081543, -2.3540120124816895, -1.6988005638122559, 1.119140625, -0.424072265625, 0.052001953125
552, 2465127795, -6.760903835296631, -0.7407536506652832, 7.177774906158447, -2.0484139919281006, -2.092647075653076, -1.6580252647399902, 1.11865234375, -0.425537109375, 0.0498046875
553, 2465144462, -6.754103183746338, -0.7651181817054749, 7.181066989898682, -2.000159740447998, -2.010929822921753, -1.651634931564331, 1.11865234375, -0.424072265625, 0.051513671875
554, 2465161129, -6.745436668395996, -0.763549268245697, 7.164483070373535, -1.9372036457061768, -2.181074857711792, -1.5555616617202759, 1.119140625, -0.42333984375, 0.052978515625
555, 2465177796, -6.754241466522217, -0.7252981066703796, 7.196036338806152, -1.9670552015304565, -2.2113876342773438, -1.5627715587615967, 1.11865234375, -0.423828125, 0.048828125
556, 2465194463, -6.766839981079102, -0.7246401309967041, 7.180437088012695, -1.9472694396972656, -2.1295933723449707, -1.6166480779647827, 1.11865234375, -0.425537109375, 0.05078125
557, 2465211130, -6.764838695526123, -0.7338352203369141, 7.176494598388672, -1.9260109663009644, -2.1385834217071533, -1.6226924657821655, 1.1201171875, -0.425048828125, 0.050537109375
558, 2465227797, -6.776368141174316, -0.7399752736091614, 7.167169094085693, -2.0426766872406006, -2.274932384490967, -1.7029370069503784, 1.11767578125, -0.425048828125, 0.05029296875
559, 2465244464, -6.758430004119873, -0.7231286764144897, 7.195248126983643, -1.9871360063552856, -2.305232524871826, -1.8726600408554077, 1.11962890625, -0.426025390625, 0.05029296875
560, 2465261131, -6.7511444091796875, -0.7290107011795044, 7.19542121887207, -2.0479273796081543, -2.274061918258667, -1.9886599779129028, 1.11572265625, -0.426025390625, 0.04931640625
561, 2465277798, -6.756850719451904, -0.7247570753097534, 7.19195032119751, -2.1267635822296143, -2.2203776836395264, -2.1620707511901855, 1.11865234375, -0.426025390625, 0.048828125
562, 2465294465, -6.760773181915283, -0.6881768107414246, 7.217062473297119, -2.257977247238159, -2.0667529106140137, -2.2568376064300537, 1.11572265625, -0.425537109375, 0.05029296875
563, 2465311132, -6.764796733856201, -0.6731961369514465, 7.252270221710205, -2.415674924850464, -1.5625542402267456, -2.807856321334839, 1.1181640625, -0.425537109375, 0.0498046875
564, 2465327799, -6.762765407562256, -0.7251613736152649, 7.205877780914307, -2.4226157665252686, -1.2995885610580444, -2.9984021186828613, 1.11865234375, -0.426025390625, 0.04931640625
565, 2465344466, -6.77168083190918, -0.7542111277580261, 7.194128513336182, -2.1145715713500977, -1.9778510332107544, -2.8723232746124268, 1.11865234375, -0.426025390625, 0.04931640625
566, 2465361133, -6.762168884277344, -0.7579558491706848, 7.178112506866455, -2.296344518661499, -2.268657684326172, -2.78659725189209, 1.1171875, -0.426025390625, 0.048828125
567, 2465377800, -6.75371789932251, -0.7001063227653503, 7.219363689422607, -2.5465166568756104, -1.8061177730560303, -2.654000759124756, 1.121826171875, -0.425048828125, 0.04833984375
568, 2465394467, -6.740954875946045, -0.7682503461837769, 7.196699619293213, -3.0946671962738037, -1.5011346340179443, -2.605349063873291, 1.119140625, -0.426025390625, 0.04833984375
569, 2465411134, -6.743704319000244, -0.7572959661483765, 7.167924404144287, -2.971815824508667, -1.6044178009033203, -2.5369889736175537, 1.1181640625, -0.424072265625, 0.04833984375
570, 2465427801, -6.734859943389893, -0.7689666748046875, 7.161742687225342, -2.5952577590942383, -1.9706666469573975, -2.5124263763427734, 1.119140625, -0.423828125, 0.04736328125
571, 2465444468, -6.73335599899292, -0.78145831823349, 7.18183708190918, -2.2826554775238037, -2.0129024982452393, -2.3860666751861572, 1.119140625, -0.425048828125, 0.0498046875
572, 2465461135, -6.718811511993408, -0.7725600004196167, 7.179738521575928, -2.015745162963867, -2.0668296813964844, -2.1333587169647217, 1.11669921875, -0.425048828125, 0.0478515625
573, 2465477802, -6.7194342613220215, -0.7585186958312988, 7.193065643310547, -1.9814754724502563, -2.0498228073120117, -2.0287435054779053, 1.1181640625, -0.424560546875, 0.04736328125
574, 2465494469, -6.732502460479736, -0.7512102127075195, 7.184350967407227, -1.9238593578338623, -2.0381176471710205, -2.0723745822906494, 1.1171875, -0.426025390625, 0.0478515625
575, 2465511136, -6.7417826652526855, -0.7637795209884644, 7.194037437438965, -1.7621279954910278, -2.162787437438965, -1.8543338775634766, 1.11865234375, -0.426025390625, 0.04833984375
576, 2465527803, -6.731861591339111, -0.758581817150116, 7.200394153594971, -1.7640105485916138, -2.228970766067505, -1.81839919090271, 1.1181640625, -0.427001953125, 0.04833984375
577, 2465544470, -6.717048645019531, -0.7496662139892578, 7.2223968505859375, -1.777235507965088, -2.1604552268981934, -1.8621108531951904, 1.11865234375, -0.424560546875, 0.0498046875
578, 2465561137, -6.752158164978027, -0.7224150896072388, 7.188604354858398, -1.8552943468093872, -2.042151927947998, -1.964378833770752, 1.1171875, -0.426513671875, 0.046875
579, 2465577804, -6.750527381896973, -0.7196853160858154, 7.206521511077881, -2.1299519538879395, -1.8112660646438599, -2.1858134269714355, 1.11767578125, -0.426513671875, 0.04638671875
580, 2465594471, -6.745857238769531, -0.7390998601913452, 7.186469078063965, -2.2984840869903564, -1.6920775175094604, -2.325876474380493, 1.11669921875, -0.426513671875, 0.046142578125
581, 2465611138, -6.736912727355957, -0.7460779547691345, 7.1967339515686035, -2.309612512588501, -1.8190780878067017, -2.2557618618011475, 1.11767578125, -0.427001953125, 0.046875
582, 2465627805, -6.734490394592285, -0.7373834252357483, 7.2030863761901855, -2.2513818740844727, -1.9002447128295898, -2.239548921585083, 1.11669921875, -0.426025390625, 0.0478515625
583, 2465644472, -6.736971378326416, -0.7347610592842102, 7.21879243850708, -2.4333345890045166, -1.7500646114349365, -2.2672746181488037, 1.1181640625, -0.425048828125, 0.04638671875
584, 2465661139, -6.732059001922607, -0.745741069316864, 7.207585334777832, -2.4632375240325928, -1.8611854314804077, -2.281451463699341, 1.1181640625, -0.425537109375, 0.04736328125
585, 2465677806, -6.7313337326049805, -0.7290387749671936, 7.219515800476074, -2.4627766609191895, -1.8312315940856934, -2.382199287414551, 1.11669921875, -0.426025390625, 0.04736328125
586, 2465694473, -6.72623348236084, -0.719688355922699, 7.212113380432129, -2.6248409748077393, -1.7037442922592163, -2.423269033432007, 1.11669921875, -0.426513671875, 0.046875
587, 2465711140, -6.731758117675781, -0.7219744920730591, 7.208384037017822, -2.809508800506592, -1.5309737920761108, -2.4607791900634766, 1.1181640625, -0.424072265625, 0.0478515625
588, 2465727807, -6.716034889221191, -0.7407779097557068, 7.201985836029053, -2.7302756309509277, -1.599538803100586, -2.534261703491211, 1.11572265625, -0.425537109375, 0.048828125
589, 2465744474, -6.720993518829346, -0.7207351922988892, 7.1946892738342285, -2.9243297576904297, -1.3888485431671143, -2.6446776390075684, 1.11669921875, -0.424072265625, 0.046875
590, 2465761141, -6.7179670333862305, -0.7290343046188354, 7.2015204429626465, -3.1055781841278076, -1.0263265371322632, -2.845916748046875, 1.11767578125, -0.428466796875, 0.04736328125
591, 2465777808, -6.705084323883057, -0.7144538760185242, 7.213350772857666, -3.1977455615997314, -0.9176518321037292, -2.908053159713745, 1.115234375, -0.425537109375, 0.046630859375
592, 2465794475, -6.703164100646973, -0.7382206320762634, 7.20705509185791, -3.083820104598999, -0.546549379825592, -2.802183151245117, 1.11767578125, -0.425048828125, 0.048828125
593, 2465811142, -6.7255330085754395, -0.7353638410568237, 7.20488977432251, -2.8225839138031006, -0.2150314599275589, -2.7094779014587402, 1.1171875, -0.424560546875, 0.0478515625
594, 2465827809, -6.7348527908325195, -0.8066251277923584, 7.188944339752197, -2.5456464290618896, -0.602641224861145, -2.460573673248291, 1.1181640625, -0.424072265625, 0.04833984375
595, 2465844476, -6.754536151885986, -0.8358518481254578, 7.17218542098999, -2.1306183338165283, -1.1862523555755615, -1.8572155237197876, 1.1181640625, -0.423828125, 0.046875
596, 2465861143, -6.752225399017334, -0.7818784713745117, 7.20692253112793, -1.882686972618103, -1.5371332168579102, -1.4233872890472412, 1.11767578125, -0.42333984375, 0.046630859375
597, 2465877810, -6.759253025054932, -0.7284872531890869, 7.197187900543213, -1.8592513799667358, -1.6956759691238403, -1.4878288507461548, 1.115478515625, -0.424072265625, 0.047119140625
598, 2465894477, -6.7530837059021, -0.7261424660682678, 7.200207233428955, -1.9959977865219116, -1.6518398523330688, -1.6751731634140015, 1.11669921875, -0.424560546875, 0.046875
599, 2465911144, -6.76362943649292, -0.7223040461540222, 7.204817771911621, -2.1576523780822754, -1.7000943422317505, -1.9318252801895142, 1.1171875, -0.425048828125, 0.0478515625
600, 2465927811, -6.738800525665283, -0.7293758988380432, 7.202214241027832, -2.2900185585021973, -1.7056392431259155, -2.0755765438079834, 1.11767578125, -0.426513671875, 0.048828125
601, 2465944478, -6.745391368865967, -0.7391318082809448, 7.19590425491333, -2.3603639602661133, -1.6729702949523926, -2.159470796585083, 1.1181640625, -0.425537109375, 0.046875
602, 2465961145, -6.743435382843018, -0.748173713684082, 7.195896625518799, -2.4092330932617188, -1.5686497688293457, -2.1633384227752686, 1.1171875, -0.424560546875, 0.048828125
603, 2465977812, -6.758963584899902, -0.7249857187271118, 7.1900315284729, -2.5020663738250732, -1.4301620721817017, -2.271833658218384, 1.1171875, -0.424072265625, 0.046142578125
604, 2465994479, -6.746978282928467, -0.7404523491859436, 7.186851501464844, -2.6009953022003174, -1.5463539361953735, -2.295525550842285, 1.119140625, -0.426513671875, 0.04638671875
605, 2466011146, -6.748575687408447, -0.7390310168266296, 7.1926164627075195, -2.458179235458374, -1.6892473697662354, -2.347890853881836, 1.1162109375, -0.425537109375, 0.04736328125
606, 2466027813, -6.744114398956299, -0.749614953994751, 7.194394111633301, -2.389857053756714, -1.6048792600631714, -2.3083064556121826, 1.11669921875, -0.425048828125, 0.04833984375
607, 2466044480, -6.733730316162109, -0.7223259210586548, 7.209404945373535, -2.421386241912842, -1.5251595973968506, -2.23769211769104, 1.1181640625, -0.426513671875, 0.04638671875
608, 2466061147, -6.739902019500732, -0.7261630296707153, 7.203973770141602, -2.5116326808929443, -1.4587713479995728, -2.3128013610839844, 1.1181640625, -0.425537109375, 0.04833984375
609, 2466077814, -6.743305206298828, -0.7235367894172668, 7.214837551116943, -2.6671533584594727, -1.2817621231079102, -2.4623031616210938, 1.11767578125, -0.425048828125, 0.04833984375
610, 2466094481, -6.7267632484436035, -0.7456737160682678, 7.212879657745361, -2.583066463470459, -1.3041731119155884, -2.468244791030884, 1.11767578125, -0.425537109375, 0.04736328125
611, 2466111148, -6.742574691772461, -0.7704735994338989, 7.205026149749756, -2.5078165531158447, -1.4135777950286865, -2.4184410572052, 1.1181640625, -0.425537109375, 0.04833984375
612, 2466127815, -6.74459171295166, -0.7523176670074463, 7.193533420562744, -2.3903310298919678, -1.5433189868927002, -2.2860875129699707, 1.1181640625, -0.426513671875, 0.05029296875
613, 2466144482, -6.740932464599609, -0.7361735105514526, 7.2118330001831055, -2.4184749126434326, -1.6179596185684204, -2.359351634979248, 1.11767578125, -0.424072265625, 0.0478515625
614, 2466161149, -6.73046875, -0.7198706865310669, 7.198853969573975, -2.4319002628326416, -1.538644552230835, -2.348313093185425, 1.11865234375, -0.426025390625, 0.0478515625
615, 2466177816, -6.734090805053711, -0.7513614296913147, 7.18997859954834, -2.509800910949707, -1.4817200899124146, -2.3364157676696777, 1.1171875, -0.424072265625, 0.0478515625
616, 2466194483, -6.733210563659668, -0.7503255605697632, 7.177844524383545, -2.5075089931488037, -1.4989192485809326, -2.3617470264434814, 1.1181640625, -0.425048828125, 0.0478515625
617, 2466211150, -6.721907138824463, -0.7693060636520386, 7.1904401779174805, -2.4133057594299316, -1.5704299211502075, -2.351104974746704, 1.11767578125, -0.425048828125, 0.04736328125
618, 2466227817, -6.713922500610352, -0.7720784544944763, 7.191354274749756, -2.3003790378570557, -1.4575930833816528, -2.122037887573242, 1.1181640625, -0.424072265625, 0.05078125
619, 2466244484, -6.722533702850342, -0.7397516369819641, 7.192059516906738, -2.3172576427459717, -1.369421362876892, -2.0647804737091064, 1.1162109375, -0.424072265625, 0.04736328125
620, 2466261151, -6.744159698486328, -0.7526881098747253, 7.170820236206055, -2.332869052886963, -1.3874784708023071, -2.02158522605896, 1.11767578125, -0.426513671875, 0.0478515625
621, 2466277818, -6.736617088317871, -0.7286837100982666, 7.1956048011779785, -2.236961841583252, -1.4354124069213867, -1.995139479637146, 1.11767578125, -0.423828125, 0.046630859375
622, 2466294485, -6.728233814239502, -0.770403265953064, 7.1802802085876465, -2.219980478286743, -1.4118744134902954, -1.934130072593689, 1.11669921875, -0.426513671875, 0.048828125
623, 2466311152, -6.73972225189209, -0.7204214930534363, 7.2108283042907715, -2.2671592235565186, -1.1336052417755127, -1.9836395978927612, 1.11669921875, -0.423828125, 0.0498046875
624, 2466327819, -6.749730587005615, -0.6979159712791443, 7.214337348937988, -2.4615471363067627, -0.9078548550605774, -2.146369695663452, 1.11669921875, -0.424072265625, 0.0478515625
625, 2466344486, -6.742902755737305, -0.7542919516563416, 7.191406726837158, -2.5742170810699463, -0.8651713132858276, -2.241187810897827, 1.1181640625, -0.425048828125, 0.04833984375
626, 2466361153, -6.757221221923828, -0.7299159169197083, 7.216344833374023, -2.688321828842163, -0.7783827781677246, -2.3589937686920166, 1.1171875, -0.425048828125, 0.0478515625
627, 2466377820, -6.763020992279053, -0.7290575504302979, 7.20196533203125, -2.6924967765808105, -0.8225390911102295, -2.503295660018921, 1.1171875, -0.425537109375, 0.04833984375
628, 2466394487, -6.758614540100098, -0.7325744032859802, 7.1870341300964355, -2.6545517444610596, -1.1743807792663574, -2.4991211891174316, 1.11669921875, -0.423828125, 0.0478515625
629, 2466411154, -6.757815837860107, -0.727264940738678, 7.192527770996094, -2.607347011566162, -1.2487471103668213, -2.4157767295837402, 1.11669921875, -0.424072265625, 0.046630859375
630, 2466427821, -6.754660129547119, -0.762476921081543, 7.188345432281494, -2.5482077598571777, -1.5512205362319946, -2.4184792041778564, 1.1171875, -0.425048828125, 0.0498046875
631, 2466444488, -6.752943992614746, -0.7553722262382507, 7.195603847503662, -2.341654062271118, -1.6608684062957764, -2.2750608921051025, 1.11767578125, -0.423828125, 0.0478515625
632, 2466461155, -6.736710548400879, -0.7466952800750732, 7.1916728019714355, -2.323059320449829, -1.7491426467895508, -2.311584949493408, 1.1171875, -0.424560546875, 0.048828125
633, 2466477822, -6.740020275115967, -0.75331050157547, 7.200352668762207, -2.279043674468994, -1.593058705329895, -2.2476553916931152, 1.11572265625, -0.426513671875, 0.0498046875
634, 2466494489, -6.739842414855957, -0.7415736317634583, 7.1925764083862305, -2.293553113937378, -1.6541194915771484, -2.325313091278076, 1.11962890625, -0.424072265625, 0.04833984375
635, 2466511156, -6.744377613067627, -0.7606860995292664, 7.1912102699279785, -2.2877774238586426, -1.5643595457077026, -2.218149423599243, 1.1181640625, -0.423828125, 0.04931640625
636, 2466527823, -6.753214359283447, -0.7505382299423218, 7.206490993499756, -2.395235776901245, -1.5763721466064453, -2.2316088676452637, 1.11767578125, -0.427001953125, 0.0498046875
637, 2466544490, -6.754734992980957, -0.7297829985618591, 7.207074165344238, -2.3644490242004395, -1.518115758895874, -2.332535743713379, 1.1181640625, -0.425048828125, 0.048828125
638, 2466561157, -6.749685287475586, -0.7504425048828125, 7.193336009979248, -2.315067768096924, -1.5841071605682373, -2.2704250812530518, 1.1181640625, -0.425537109375, 0.046875
639, 2466577824, -6.76010799407959, -0.7486871480941772, 7.186371803283691, -2.359595537185669, -1.5361217260360718, -2.219494104385376, 1.1171875, -0.4228515625, 0.046630859375
640, 2466594491, -6.744144916534424, -0.7360153198242188, 7.2179999351501465, -2.2996747493743896, -1.5189099311828613, -2.2365009784698486, 1.11767578125, -0.424072265625, 0.0498046875
641, 2466611158, -6.730325222015381, -0.7532396912574768, 7.207327365875244, -2.2785825729370117, -1.3962889909744263, -2.180229663848877, 1.11767578125, -0.427490234375, 0.04736328125
642, 2466627825, -6.745245456695557, -0.7776139974594116, 7.179136276245117, -2.1750943660736084, -1.512417197227478, -2.096886157989502, 1.11767578125, -0.426513671875, 0.0498046875
643, 2466644492, -6.746893405914307, -0.7580234408378601, 7.182859420776367, -2.1283257007598877, -1.6952022314071655, -1.9694116115570068, 1.1171875, -0.4228515625, 0.0498046875
644, 2466661159, -6.735439777374268, -0.722690761089325, 7.212539196014404, -2.176848888397217, -1.7478363513946533, -2.0381181240081787, 1.1171875, -0.425048828125, 0.046630859375
645, 2466677826, -6.748580455780029, -0.7593008279800415, 7.198296546936035, -2.144371747970581, -1.688043236732483, -2.0604519844055176, 1.11767578125, -0.427490234375, 0.048828125
646, 2466694493, -6.733639240264893, -0.7543618679046631, 7.186469078063965, -2.2305073738098145, -1.6681934595108032, -1.998597264289856, 1.1181640625, -0.427490234375, 0.0478515625
647, 2466711160, -6.743420124053955, -0.7641960978507996, 7.191075801849365, -2.075794219970703, -1.8088330030441284, -1.8743501901626587, 1.1162109375, -0.427001953125, 0.0498046875
648, 2466727827, -6.75889253616333, -0.7253669500350952, 7.210334300994873, -1.9713454246520996, -1.8693428039550781, -1.7337876558303833, 1.11669921875, -0.425537109375, 0.0478515625
649, 2466744494, -6.748128414154053, -0.719694197177887, 7.185434818267822, -2.088078022003174, -1.8579237461090088, -1.8745964765548706, 1.1171875, -0.425537109375, 0.04736328125
650, 2466761161, -6.7392258644104, -0.7315628528594971, 7.199867248535156, -2.1333327293395996, -1.7585934400558472, -1.9369090795516968, 1.11865234375, -0.427001953125, 0.04638671875
651, 2466777828, -6.758540153503418, -0.7412827610969543, 7.199324607849121, -2.1940479278564453, -1.583786964416504, -2.026258945465088, 1.11767578125, -0.426513671875, 0.045166015625
