sep=,
DeviceTag:,B,,,,,,,,,,,,,,,,,
FirmwareVersion:,2.2.1,,,,,,,,,,,,,,,,,
AppVersion:,2023.6.1,,,,,,,,,,,,,,,,,
SyncStatus:,Synced,,,,,,,,,,,,,,,,,
OutputRate:,60Hz,,,,,,,,,,,,,,,,,
FilterProfile:,General,,,,,,,,,,,,,,,,,
Measurement Mode:,Inertial Mode - Rate quantities (with mag),,,,,,,,,,,,,,,,,
StartTime:,2023-12-07 13:06:57.284 +0200,,,,,,,,,,,,,,,,,
 2023,,,,,,,,,,,,,,,,,,,

PacketCounter,SampleTimeFine,Acc_X,Acc_Y,Acc_Z,Gyr_X,Gyr_Y,Gyr_Z,Mag_X,Mag_Y,Mag_Z
1, 2455960945, -6.337242126464844, 1.9316498041152954, 7.031591415405273, 0.21205393970012665, -0.49706563353538513, -0.9079572558403015, 0.603271484375, 0.177978515625, -0.698486328125
2, 2455977612, -6.340720176696777, 1.9353511333465576, 7.063318252563477, 0.11622403562068939, -0.6391264796257019, -1.0890134572982788, 0.604248046875, 0.1796875, -0.698486328125
3, 2455994279, -6.336726665496826, 1.9225460290908813, 7.0479044914245605, 0.07649872452020645, -0.4385918378829956, -1.0815986394882202, 0.6064453125, 0.17822265625, -0.699462890625
4, 2456010946, -6.35806131362915, 1.9073998928070068, 7.034329891204834, 0.27447208762168884, -0.38947951793670654, -0.8612910509109497, 0.604736328125, 0.17822265625, -0.697265625
5, 2456027613, -6.34597110748291, 1.9553799629211426, 7.04229211807251, 0.32874536514282227, -0.29055047035217285, -0.8183001279830933, 0.607421875, 0.17822265625, -0.698974609375
6, 2456044280, -6.337808132171631, 1.926372766494751, 7.050090312957764, 0.35799509286880493, -0.3755461871623993, -0.8759158253669739, 0.604736328125, 0.177490234375, -0.698974609375
7, 2456060947, -6.353387355804443, 1.9275602102279663, 7.031188011169434, 0.4093869626522064, -0.41250529885292053, -0.8763896822929382, 0.60693359375, 0.176513671875, -0.698974609375
8, 2456077614, -6.336177349090576, 1.9662199020385742, 7.042333602905273, 0.26823538541793823, -0.5837518572807312, -0.9149496555328369, 0.6064453125, 0.17822265625, -0.699951171875
9, 2456094281, -6.349908351898193, 1.956534504890442, 7.038249969482422, 0.04973345994949341, -0.7684193849563599, -1.0736972093582153, 0.604248046875, 0.17822265625, -0.698486328125
10, 2456110948, -6.337366104125977, 1.9576935768127441, 7.060936450958252, -0.16837787628173828, -0.9650992155075073, -1.2554705142974854, 0.604736328125, 0.177490234375, -0.700439453125
11, 2456127615, -6.337954998016357, 1.9387191534042358, 7.043570041656494, -0.26240211725234985, -0.8711519241333008, -1.3710222244262695, 0.60498046875, 0.176513671875, -0.697265625
12, 2456144282, -6.351015090942383, 1.943009376525879, 7.068454742431641, -0.19710254669189453, -0.7894986867904663, -1.3855574131011963, 0.605224609375, 0.1787109375, -0.698974609375
13, 2456160949, -6.344526290893555, 1.9419548511505127, 7.049834728240967, -0.20324958860874176, -0.6766107082366943, -1.3705356121063232, 0.604248046875, 0.176025390625, -0.698486328125
14, 2456177616, -6.340117931365967, 1.951590657234192, 7.032514572143555, -0.16567574441432953, -0.6801708340644836, -1.4502038955688477, 0.604736328125, 0.177001953125, -0.699951171875
15, 2456194283, -6.345186233520508, 1.95453941822052, 7.042242050170898, -0.3966895341873169, -0.7550880312919617, -1.4352589845657349, 0.604736328125, 0.176025390625, -0.699951171875
16, 2456210950, -6.344052314758301, 1.9522480964660645, 7.045892238616943, -0.30288299918174744, -0.7356736660003662, -1.5400917530059814, 0.605224609375, 0.1787109375, -0.69775390625
17, 2456227617, -6.352917671203613, 1.9292343854904175, 7.037433624267578, -0.3397396504878998, -0.7092156410217285, -1.467543601989746, 0.60546875, 0.177001953125, -0.6982421875
18, 2456244284, -6.353363037109375, 1.9378656148910522, 7.055617809295654, -0.2811121940612793, -0.9135793447494507, -1.472115397453308, 0.603759765625, 0.177490234375, -0.699462890625
19, 2456260951, -6.354949951171875, 1.9183491468429565, 7.049197673797607, -0.34440118074417114, -1.0786277055740356, -1.377323031425476, 0.60595703125, 0.177490234375, -0.698486328125
20, 2456277618, -6.344765663146973, 1.9315481185913086, 7.023202896118164, -0.2535656988620758, -1.0471622943878174, -1.2539849281311035, 0.605224609375, 0.177490234375, -0.699951171875
21, 2456294285, -6.324676513671875, 1.9277992248535156, 7.061671257019043, -0.14498068392276764, -1.0365972518920898, -1.1971632242202759, 0.60595703125, 0.176025390625, -0.699462890625
22, 2456310952, -6.3432464599609375, 1.9310011863708496, 7.031035423278809, -0.2125597894191742, -1.002160906791687, -1.2273861169815063, 0.604248046875, 0.17919921875, -0.698486328125
23, 2456327619, -6.333587169647217, 1.9476274251937866, 7.039160251617432, -0.19151897728443146, -0.9793912768363953, -1.2505145072937012, 0.604736328125, 0.177978515625, -0.699951171875
24, 2456344286, -6.337809085845947, 1.9303607940673828, 7.002955913543701, -0.16723811626434326, -0.9597205519676208, -1.2482603788375854, 0.604248046875, 0.17822265625, -0.69775390625
25, 2456360953, -6.343721389770508, 1.924023151397705, 7.050416469573975, -0.15276694297790527, -1.0630422830581665, -1.2215335369110107, 0.604736328125, 0.177490234375, -0.699462890625
26, 2456377620, -6.34625244140625, 1.9357714653015137, 7.043778419494629, -0.2221645563840866, -1.1591410636901855, -1.183537244796753, 0.605224609375, 0.177490234375, -0.699951171875
27, 2456394287, -6.342594146728516, 1.9393837451934814, 7.047296524047852, -0.13490208983421326, -1.1703723669052124, -1.0707261562347412, 0.605224609375, 0.177490234375, -0.697998046875
28, 2456410954, -6.347316741943359, 1.935577392578125, 7.046555995941162, -0.10622867941856384, -1.2612589597702026, -1.0633368492126465, 0.606201171875, 0.1796875, -0.698974609375
29, 2456427621, -6.347569465637207, 1.941135048866272, 7.046816349029541, -0.021373797208070755, -1.161484718322754, -0.9469015002250671, 0.604736328125, 0.17822265625, -0.698486328125
30, 2456444288, -6.337989330291748, 1.9421842098236084, 7.04586935043335, 0.01420864462852478, -1.1686817407608032, -1.0210375785827637, 0.604248046875, 0.177490234375, -0.700927734375
31, 2456460955, -6.319847106933594, 1.960684895515442, 7.052248954772949, -0.05022650212049484, -1.05402672290802, -1.0160942077636719, 0.6064453125, 0.177490234375, -0.699951171875
32, 2456477622, -6.315695762634277, 1.9593414068222046, 7.060450077056885, -0.11478331685066223, -0.8859304785728455, -1.1309159994125366, 0.602783203125, 0.178466796875, -0.700439453125
33, 2456494289, -6.3324432373046875, 1.9509832859039307, 7.043209552764893, -0.025740765035152435, -0.9311112761497498, -1.2633336782455444, 0.60693359375, 0.177001953125, -0.700439453125
34, 2456510956, -6.331972599029541, 1.9589468240737915, 7.0201945304870605, -0.1140405461192131, -0.983566164970398, -1.307438611984253, 0.603759765625, 0.177978515625, -0.697998046875
35, 2456527623, -6.328503608703613, 1.939428687095642, 7.044925689697266, -0.12571994960308075, -0.9036673307418823, -1.3024954795837402, 0.604736328125, 0.177978515625, -0.698486328125
36, 2456544290, -6.338380336761475, 1.9437925815582275, 7.042500972747803, -0.18936750292778015, -0.8744815587997437, -1.3424768447875977, 0.606201171875, 0.17822265625, -0.700439453125
37, 2456560957, -6.327974319458008, 1.9432008266448975, 7.034806728363037, -0.2217675745487213, -0.9135794043540955, -1.3626213073730469, 0.604248046875, 0.177490234375, -0.69775390625
38, 2456577624, -6.34012508392334, 1.9410432577133179, 7.030802249908447, -0.23607228696346283, -0.9190606474876404, -1.3867484331130981, 0.603759765625, 0.175537109375, -0.699951171875
39, 2456594291, -6.3351640701293945, 1.951200008392334, 7.066587448120117, -0.1106724813580513, -0.8898876905441284, -1.2665481567382812, 0.602783203125, 0.178466796875, -0.698974609375
40, 2456610958, -6.3314208984375, 1.9402306079864502, 7.063904762268066, -0.13252012431621552, -0.6992522478103638, -1.377502202987671, 0.60498046875, 0.176513671875, -0.698974609375
41, 2456627625, -6.329941749572754, 1.942341685295105, 7.049189567565918, -0.15415002405643463, -0.7289630174636841, -1.2842719554901123, 0.605224609375, 0.177734375, -0.698486328125
42, 2456644292, -6.321470260620117, 1.9507137537002563, 7.034674167633057, -0.07535255700349808, -0.7393361926078796, -1.2648447751998901, 0.604248046875, 0.177001953125, -0.697998046875
43, 2456660959, -6.322125434875488, 1.9379432201385498, 7.041607856750488, -0.10584449023008347, -0.6062783002853394, -1.3851220607757568, 0.60498046875, 0.176513671875, -0.698486328125
44, 2456677626, -6.346161842346191, 1.9474833011627197, 7.0269036293029785, -0.16648255288600922, -0.5579342246055603, -1.3463956117630005, 0.602294921875, 0.178466796875, -0.698974609375
45, 2456694293, -6.341248035430908, 1.9454585313796997, 7.054823875427246, -0.045987602323293686, -0.5200658440589905, -1.283939003944397, 0.604248046875, 0.177978515625, -0.700927734375
46, 2456710960, -6.329041957855225, 1.9456888437271118, 7.050353050231934, -0.04064735770225525, -0.5184266567230225, -1.3260207176208496, 0.603271484375, 0.177978515625, -0.697998046875
47, 2456727627, -6.329840660095215, 1.936466097831726, 7.053908348083496, 0.05356255918741226, -0.5151609778404236, -1.1850228309631348, 0.603271484375, 0.178466796875, -0.699462890625
48, 2456744294, -6.339622497558594, 1.9220736026763916, 7.042374134063721, 0.1734427809715271, -0.5183369517326355, -1.0330625772476196, 0.604736328125, 0.175537109375, -0.699951171875
49, 2456760961, -6.3417277336120605, 1.9551225900650024, 7.045750617980957, 0.16999788582324982, -0.4857063889503479, -0.9976145625114441, 0.6044921875, 0.175537109375, -0.698974609375
50, 2456777628, -6.338613510131836, 1.9761298894882202, 7.039523124694824, 0.04041043668985367, -0.6413676142692566, -1.121785044670105, 0.6044921875, 0.176513671875, -0.69677734375
51, 2456794295, -6.334595680236816, 1.9481316804885864, 7.047303676605225, -0.09661109745502472, -0.7276824116706848, -1.2162829637527466, 0.604248046875, 0.177490234375, -0.698974609375
52, 2456810962, -6.340639114379883, 1.9482367038726807, 7.03117036819458, -0.0353967510163784, -0.7565735578536987, -1.2217128276824951, 0.604248046875, 0.17822265625, -0.697998046875
53, 2456827629, -6.327256679534912, 1.9473317861557007, 7.055315017700195, -0.13275063037872314, -0.7479932904243469, -1.2063069343566895, 0.605712890625, 0.17822265625, -0.700439453125
54, 2456844296, -6.343742370605469, 1.945755958557129, 7.046237945556641, -0.06962812691926956, -0.6385118365287781, -1.1559524536132812, 0.603759765625, 0.175537109375, -0.699951171875
55, 2456860963, -6.325723648071289, 1.9548457860946655, 7.074400901794434, 0.04777408391237259, -0.6240662336349487, -1.1827175617218018, 0.601806640625, 0.175537109375, -0.699462890625
56, 2456877630, -6.353899955749512, 1.9455848932266235, 7.045570373535156, 0.23709675669670105, -0.41048192977905273, -0.9640876054763794, 0.604736328125, 0.176513671875, -0.700439453125
57, 2456894297, -6.327981472015381, 1.9720087051391602, 7.024672031402588, 0.1517104059457779, -0.4108789265155792, -1.0876432657241821, 0.60546875, 0.176025390625, -0.69775390625
58, 2456910964, -6.327285289764404, 1.974569320678711, 7.0462236404418945, -0.05081559717655182, -0.6386911273002625, -1.2308824062347412, 0.60546875, 0.177001953125, -0.698974609375
59, 2456927631, -6.328886985778809, 1.9392904043197632, 7.050241947174072, -0.10467911511659622, -0.5329746603965759, -1.408711314201355, 0.60546875, 0.176025390625, -0.698974609375
60, 2456944298, -6.3417277336120605, 1.9582639932632446, 7.017007827758789, -0.04349036142230034, -0.459210067987442, -1.3040705919265747, 0.605224609375, 0.17822265625, -0.699951171875
61, 2456960965, -6.338674068450928, 1.9637796878814697, 7.050320148468018, 0.007920727133750916, -0.44733864068984985, -1.226477026939392, 0.60546875, 0.176513671875, -0.699951171875
62, 2456977632, -6.340264797210693, 1.9631564617156982, 7.032600402832031, -0.11660181730985641, -0.6309816837310791, -1.343642234802246, 0.603759765625, 0.175048828125, -0.6982421875
63, 2456994299, -6.345675945281982, 1.9663714170455933, 7.047843933105469, -0.18256732821464539, -0.6126558780670166, -1.408570408821106, 0.60546875, 0.177490234375, -0.698486328125
64, 2457010966, -6.355161666870117, 1.9468079805374146, 7.040877819061279, -0.2101137936115265, -0.7105988264083862, -1.337367296218872, 0.603759765625, 0.177490234375, -0.697998046875
65, 2457027633, -6.353784084320068, 1.9499859809875488, 7.03647518157959, -0.14778529107570648, -0.7027228474617004, -1.3451918363571167, 0.603759765625, 0.176513671875, -0.69775390625
66, 2457044300, -6.343067169189453, 1.9478963613510132, 7.058498382568359, -0.1818629950284958, -0.8163536190986633, -1.2649215459823608, 0.6044921875, 0.174560546875, -0.699951171875
67, 2457060967, -6.333460807800293, 1.9601752758026123, 7.040530681610107, -0.3214905858039856, -0.8540170788764954, -1.2486575841903687, 0.601806640625, 0.176025390625, -0.700927734375
68, 2457077634, -6.340689659118652, 1.9609172344207764, 7.041780471801758, -0.14507034420967102, -0.8743280172348022, -1.3253676891326904, 0.60498046875, 0.176513671875, -0.697265625
69, 2457094301, -6.345500469207764, 1.9564927816390991, 7.01811408996582, -0.22841407358646393, -0.8116024732589722, -1.3844945430755615, 0.604736328125, 0.177001953125, -0.6982421875
70, 2457110968, -6.354465007781982, 1.9516079425811768, 7.035562515258789, -0.22906717658042908, -0.8138819336891174, -1.2681999206542969, 0.60693359375, 0.177734375, -0.698974609375
71, 2457127635, -6.347126483917236, 1.9540563821792603, 7.0175557136535645, -0.22041009366512299, -0.9079061150550842, -1.3668729066848755, 0.60693359375, 0.176513671875, -0.69677734375
72, 2457144302, -6.336916446685791, 1.9537012577056885, 7.0501298904418945, -0.28842461109161377, -1.0401829481124878, -1.345678448677063, 0.60400390625, 0.175048828125, -0.6982421875
73, 2457160969, -6.33237361907959, 1.9629746675491333, 7.044200420379639, -0.24891704320907593, -1.0000991821289062, -1.400425672531128, 0.60546875, 0.174560546875, -0.69873046875
74, 2457177636, -6.331882476806641, 1.9609415531158447, 7.047304630279541, -0.26994505524635315, -0.9535096883773804, -1.4743950366973877, 0.60498046875, 0.175537109375, -0.698974609375
75, 2457194303, -6.345495223999023, 1.9555230140686035, 7.039571285247803, -0.29043522477149963, -0.9524467587471008, -1.5035040378570557, 0.60498046875, 0.175537109375, -0.698486328125
76, 2457210970, -6.340524673461914, 1.9575376510620117, 7.057624340057373, -0.352072149515152, -0.9872286319732666, -1.4710142612457275, 0.605224609375, 0.177490234375, -0.697998046875
77, 2457227637, -6.339633464813232, 1.9442001581192017, 7.052034854888916, -0.30767256021499634, -0.8353966474533081, -1.476789951324463, 0.604736328125, 0.176513671875, -0.700439453125
78, 2457244304, -6.343269348144531, 1.9449374675750732, 7.043128490447998, -0.19874173402786255, -0.8362545371055603, -1.3099230527877808, 0.604736328125, 0.176513671875, -0.698486328125
79, 2457260971, -6.341875076293945, 1.9462546110153198, 7.064678192138672, -0.15204979479312897, -0.8211431503295898, -1.263909935951233, 0.603759765625, 0.17822265625, -0.698486328125
80, 2457277638, -6.343861103057861, 1.950305700302124, 7.033195972442627, -0.20079074800014496, -0.8521472811698914, -1.2306902408599854, 0.60546875, 0.176513671875, -0.699462890625
81, 2457294305, -6.340699672698975, 1.9508494138717651, 7.046642780303955, -0.18934188783168793, -0.8302997350692749, -1.3066704273223877, 0.6064453125, 0.177001953125, -0.699951171875
82, 2457310972, -6.341185092926025, 1.964845895767212, 7.021702766418457, -0.217682346701622, -0.8934863209724426, -1.2178839445114136, 0.602783203125, 0.177490234375, -0.699462890625
83, 2457327639, -6.337131977081299, 1.9420050382614136, 7.038477897644043, -0.1031167209148407, -0.8114743232727051, -1.1789525747299194, 0.605224609375, 0.176513671875, -0.699462890625
84, 2457344306, -6.335564136505127, 1.9500482082366943, 7.037149906158447, -0.18477003276348114, -0.7931869626045227, -1.204283595085144, 0.603759765625, 0.177490234375, -0.698974609375
85, 2457360973, -6.34250545501709, 1.9593851566314697, 7.047671318054199, -0.18190139532089233, -0.8500086069107056, -1.2275398969650269, 0.60595703125, 0.176025390625, -0.699951171875
86, 2457377640, -6.341139793395996, 1.94143545627594, 7.052547931671143, -0.09170626848936081, -0.7727864980697632, -1.1752643585205078, 0.60546875, 0.175537109375, -0.701416015625
87, 2457394307, -6.342668533325195, 1.9530127048492432, 7.034185409545898, -0.08348459750413895, -0.6163567900657654, -1.08108651638031, 0.60498046875, 0.176025390625, -0.699462890625
88, 2457410974, -6.331184387207031, 1.9734653234481812, 7.042226314544678, 0.10065151005983353, -0.6102610230445862, -1.1128334999084473, 0.604248046875, 0.177001953125, -0.698486328125
89, 2457427641, -6.333534240722656, 1.9709911346435547, 7.0112786293029785, 0.03918102756142616, -0.6961787939071655, -1.1139603853225708, 0.6044921875, 0.175048828125, -0.698974609375
90, 2457444308, -6.315260887145996, 1.956535816192627, 7.052109718322754, -0.059011660516262054, -0.7621315717697144, -1.269864797592163, 0.60400390625, 0.175048828125, -0.69775390625
91, 2457460975, -6.33987283706665, 1.9464308023452759, 7.0519232749938965, -0.18056955933570862, -0.8502008318901062, -1.2900092601776123, 0.604736328125, 0.177001953125, -0.69775390625
92, 2457477642, -6.349899768829346, 1.9421921968460083, 7.047008991241455, -0.021719569340348244, -0.7472761869430542, -1.2008130550384521, 0.60595703125, 0.174560546875, -0.701416015625
93, 2457494309, -6.337242603302002, 1.9611237049102783, 7.0444655418396, -0.06459523737430573, -0.7910610437393188, -1.1512012481689453, 0.602294921875, 0.174560546875, -0.698486328125
94, 2457510976, -6.3378472328186035, 1.968587040901184, 7.024436950683594, -0.09827592223882675, -0.7919574975967407, -1.14027738571167, 0.603759765625, 0.177490234375, -0.69775390625
95, 2457527643, -6.346832752227783, 1.9670909643173218, 7.052441596984863, -0.02365332841873169, -0.7057963609695435, -1.2049880027770996, 0.603271484375, 0.175537109375, -0.700927734375
96, 2457544310, -6.332695484161377, 1.9548923969268799, 7.034971237182617, -0.026995787397027016, -0.5714961886405945, -1.142685055732727, 0.603271484375, 0.175048828125, -0.69775390625
97, 2457560977, -6.338567733764648, 1.958984613418579, 7.053476810455322, 0.001696841442026198, -0.5644015073776245, -1.141109824180603, 0.603271484375, 0.175048828125, -0.69775390625
98, 2457577644, -6.351545810699463, 1.9624110460281372, 7.017816543579102, -0.150141641497612, -0.936285138130188, -1.2458529472351074, 0.6044921875, 0.1728515625, -0.69873046875
99, 2457594311, -6.345987319946289, 1.963570475578308, 7.031480312347412, -0.17205330729484558, -1.015774130821228, -1.262770175933838, 0.60546875, 0.175537109375, -0.698974609375
100, 2457610978, -6.350062370300293, 1.9591178894042969, 7.058426380157471, -0.2613263726234436, -1.05115807056427, -1.230101227760315, 0.60595703125, 0.176513671875, -0.699462890625
101, 2457627645, -6.352410793304443, 1.9355581998825073, 7.040823936462402, -0.20034253597259521, -1.0530917644500732, -1.0728775262832642, 0.60546875, 0.175537109375, -0.6982421875
102, 2457644312, -6.337316989898682, 1.9594576358795166, 7.043614864349365, -0.19780685007572174, -1.0252249240875244, -1.070649266242981, 0.60546875, 0.175048828125, -0.700439453125
103, 2457660979, -6.353274822235107, 1.9618035554885864, 7.046106815338135, -0.12755124270915985, -1.0566776990890503, -0.980198085308075, 0.603271484375, 0.175537109375, -0.702392578125
104, 2457677646, -6.332193851470947, 1.991902470588684, 7.039683818817139, -0.11769036203622818, -1.0562421083450317, -1.0291054248809814, 0.60546875, 0.176025390625, -0.698974609375
105, 2457694313, -6.340477466583252, 1.964467167854309, 7.048365592956543, -0.16429267823696136, -1.0473802089691162, -1.0527589321136475, 0.6064453125, 0.174072265625, -0.697265625
106, 2457710980, -6.325037479400635, 1.958713412284851, 7.0303874015808105, -0.245830699801445, -1.1264851093292236, -1.162880539894104, 0.60400390625, 0.175537109375, -0.6982421875
107, 2457727647, -6.339957237243652, 1.9733370542526245, 7.042815208435059, -0.3236420750617981, -1.1661717891693115, -1.1579244136810303, 0.60546875, 0.176025390625, -0.700927734375
108, 2457744314, -6.330348491668701, 1.9828208684921265, 7.027120590209961, -0.183182030916214, -1.144400954246521, -1.1579627990722656, 0.60693359375, 0.175537109375, -0.701416015625
109, 2457760981, -6.326478004455566, 1.9657996892929077, 7.058787822723389, -0.17706060409545898, -1.0143526792526245, -1.1956136226654053, 0.6044921875, 0.173583984375, -0.700439453125
110, 2457777648, -6.345157623291016, 1.961944580078125, 7.065611839294434, -0.22149862349033356, -0.94508296251297, -1.1706795692443848, 0.60498046875, 0.176025390625, -0.6982421875
111, 2457794315, -6.3275933265686035, 1.9703974723815918, 7.051558971405029, -0.18384793400764465, -0.9670202136039734, -1.3268146514892578, 0.60595703125, 0.175048828125, -0.701904296875
112, 2457810982, -6.334760665893555, 1.9552626609802246, 7.064124584197998, -0.39510148763656616, -1.0310392379760742, -1.4020904302597046, 0.60595703125, 0.174560546875, -0.699462890625
113, 2457827649, -6.321262836456299, 1.956466555595398, 7.060005187988281, -0.3021402359008789, -0.9512044787406921, -1.4085960388183594, 0.60400390625, 0.175537109375, -0.697265625
114, 2457844316, -6.337423324584961, 1.967474341392517, 7.026978969573975, -0.2687668800354004, -0.959541380405426, -1.3352668285369873, 0.60498046875, 0.174072265625, -0.701416015625
115, 2457860983, -6.325539588928223, 1.9500541687011719, 7.035750865936279, -0.20170001685619354, -0.8382652997970581, -1.298102855682373, 0.602294921875, 0.177001953125, -0.699462890625
116, 2457877650, -6.32871675491333, 1.9631617069244385, 7.012874126434326, -0.10120857506990433, -0.7420768141746521, -1.1954087018966675, 0.603271484375, 0.175537109375, -0.699951171875
117, 2457894317, -6.330026149749756, 1.967439889907837, 7.033980846405029, -0.05633513256907463, -0.7829418778419495, -1.1610749959945679, 0.603759765625, 0.175537109375, -0.69775390625
118, 2457910984, -6.333706855773926, 1.9875577688217163, 7.036137104034424, -0.17364130914211273, -0.7394387125968933, -1.1834988594055176, 0.603271484375, 0.174560546875, -0.699462890625
119, 2457927651, -6.322429180145264, 1.9793779850006104, 7.047378063201904, -0.16978658735752106, -0.7396947741508484, -1.2842463254928589, 0.60546875, 0.176025390625, -0.699462890625
120, 2457944318, -6.329623222351074, 1.9637675285339355, 7.037360668182373, -0.13164928555488586, -0.7613247632980347, -1.2946324348449707, 0.604736328125, 0.175048828125, -0.701416015625
121, 2457960985, -6.336606979370117, 1.963943362236023, 7.040807723999023, -0.10756052285432816, -0.887697696685791, -1.253255009651184, 0.60546875, 0.174072265625, -0.699951171875
122, 2457977652, -6.325551986694336, 1.9749059677124023, 7.053073883056641, -0.18679340183734894, -0.9063822031021118, -1.3525811433792114, 0.604736328125, 0.175048828125, -0.701904296875
123, 2457994319, -6.324337482452393, 1.9519425630569458, 7.050827503204346, -0.1340184360742569, -0.8953559398651123, -1.328479528427124, 0.6044921875, 0.175048828125, -0.697265625
124, 2458010986, -6.341317653656006, 1.9626266956329346, 7.051720142364502, -0.15727479755878448, -0.8417869210243225, -1.2165262699127197, 0.60498046875, 0.174072265625, -0.69677734375
125, 2458027653, -6.333500385284424, 1.9633698463439941, 7.044234275817871, -0.06199553236365318, -0.799526035785675, -1.201837420463562, 0.60498046875, 0.175048828125, -0.699951171875
126, 2458044320, -6.334191799163818, 1.9575855731964111, 7.056772232055664, -0.1614752560853958, -0.8845473527908325, -1.264319658279419, 0.60595703125, 0.174560546875, -0.702392578125
127, 2458060987, -6.332921981811523, 1.9619114398956299, 7.021352291107178, -0.2541548013687134, -0.9743326902389526, -1.269173264503479, 0.60498046875, 0.175048828125, -0.699951171875
128, 2458077654, -6.325002193450928, 1.9781607389450073, 7.034506797790527, -0.1859481930732727, -0.9101088643074036, -1.311139702796936, 0.604248046875, 0.175537109375, -0.702880859375
129, 2458094321, -6.3249359130859375, 1.9789901971817017, 7.054805755615234, -0.2563319206237793, -1.0356111526489258, -1.2850276231765747, 0.602783203125, 0.176513671875, -0.699951171875
130, 2458110988, -6.324163913726807, 1.959517240524292, 7.054081916809082, -0.24568982422351837, -1.04917311668396, -1.4029356241226196, 0.60546875, 0.175537109375, -0.698974609375
131, 2458127655, -6.312379360198975, 1.9798978567123413, 7.037060737609863, -0.2989642322063446, -0.9606043100357056, -1.390193223953247, 0.604248046875, 0.176025390625, -0.700927734375
132, 2458144322, -6.323554515838623, 1.959169864654541, 7.046507358551025, -0.18765145540237427, -0.84596186876297, -1.437628149986267, 0.604248046875, 0.177001953125, -0.701904296875
133, 2458160989, -6.325695037841797, 1.9728167057037354, 7.048861980438232, -0.22149862349033356, -0.704144299030304, -1.368114948272705, 0.604248046875, 0.175537109375, -0.700439453125
134, 2458177656, -6.327116966247559, 1.9711319208145142, 7.053884506225586, -0.24843037128448486, -0.6262944936752319, -1.515119194984436, 0.603271484375, 0.176513671875, -0.698486328125
135, 2458194323, -6.340825080871582, 1.9710663557052612, 7.024409770965576, -0.40398916602134705, -0.816161572933197, -1.541064977645874, 0.603515625, 0.173583984375, -0.6982421875
136, 2458210990, -6.319011688232422, 1.959869146347046, 7.064064979553223, -0.43419933319091797, -0.8375096917152405, -1.5384397506713867, 0.603271484375, 0.176513671875, -0.700927734375
137, 2458227657, -6.334372520446777, 1.976940393447876, 7.053440570831299, -0.4476715326309204, -0.8772732615470886, -1.5578539371490479, 0.600830078125, 0.175048828125, -0.698974609375
138, 2458244324, -6.331845760345459, 1.957568883895874, 7.054001331329346, -0.38233357667922974, -0.9048711657524109, -1.4806959629058838, 0.604248046875, 0.176513671875, -0.700439453125
139, 2458260991, -6.321998119354248, 1.953322172164917, 7.063331127166748, -0.30677610635757446, -0.8716771006584167, -1.4159597158432007, 0.602783203125, 0.175048828125, -0.698486328125
140, 2458277658, -6.317947864532471, 1.9798959493637085, 7.083836078643799, -0.2996942102909088, -0.8295825719833374, -1.3476635217666626, 0.603271484375, 0.175048828125, -0.699462890625
141, 2458294325, -6.323060512542725, 1.954630970954895, 7.0292510986328125, -0.2983367145061493, -0.9040386080741882, -1.3548734188079834, 0.604248046875, 0.176025390625, -0.699462890625
142, 2458310992, -6.321278095245361, 1.9397181272506714, 7.031923294067383, -0.3394322991371155, -0.8854950070381165, -1.3346136808395386, 0.603271484375, 0.173583984375, -0.700927734375
143, 2458327659, -6.331836223602295, 1.9605882167816162, 7.068658351898193, -0.2341897189617157, -0.8922311663627625, -1.3704713582992554, 0.603271484375, 0.175537109375, -0.700439453125
144, 2458344326, -6.333807468414307, 1.963483452796936, 7.0706400871276855, -0.3248714804649353, -0.8514942526817322, -1.4410730600357056, 0.602294921875, 0.175537109375, -0.698486328125
145, 2458360993, -6.315725326538086, 1.9584871530532837, 7.041451454162598, -0.2771550416946411, -0.921250581741333, -1.407584547996521, 0.602783203125, 0.174560546875, -0.700927734375
146, 2458377660, -6.306406021118164, 1.9415699243545532, 7.063657283782959, -0.2442939132452011, -0.7795481085777283, -1.3882722854614258, 0.6064453125, 0.174560546875, -0.6982421875
147, 2458394327, -6.324558258056641, 1.9618396759033203, 7.064900875091553, -0.2223438322544098, -0.851827085018158, -1.3392623662948608, 0.604736328125, 0.174560546875, -0.702392578125
148, 2458410994, -6.322255611419678, 1.9610859155654907, 7.043984413146973, -0.2735564410686493, -0.8354863524436951, -1.436795711517334, 0.60693359375, 0.175048828125, -0.699462890625
149, 2458427661, -6.315861225128174, 1.9589710235595703, 7.049927234649658, -0.2931373715400696, -0.9012340903282166, -1.3504936695098877, 0.603759765625, 0.176513671875, -0.697998046875
150, 2458444328, -6.3233771324157715, 1.9624288082122803, 7.051754951477051, -0.27391499280929565, -0.8211175203323364, -1.4342727661132812, 0.602294921875, 0.177490234375, -0.700439453125
151, 2458460995, -6.313479900360107, 1.9416534900665283, 7.0658392906188965, -0.21317452192306519, -0.7336502075195312, -1.3464468717575073, 0.6064453125, 0.176025390625, -0.698974609375
152, 2458477662, -6.324626922607422, 1.9522727727890015, 7.03402853012085, -0.18573050200939178, -0.6575420498847961, -1.3005872964859009, 0.604736328125, 0.175537109375, -0.701416015625
153, 2458494329, -6.313871383666992, 1.9563347101211548, 7.046938896179199, -0.18852227926254272, -0.7040035128593445, -1.343514084815979, 0.603759765625, 0.177490234375, -0.699462890625
154, 2458510996, -6.317743301391602, 1.9449702501296997, 7.0473761558532715, -0.2780002951622009, -0.8028685450553894, -1.3933053016662598, 0.6044921875, 0.174560546875, -0.69775390625
155, 2458527663, -6.320118427276611, 1.9544613361358643, 7.069648265838623, -0.22034603357315063, -0.8567191362380981, -1.4320443868637085, 0.602783203125, 0.177490234375, -0.698486328125
156, 2458544330, -6.316245079040527, 1.9629985094070435, 7.052522659301758, -0.2539115250110626, -0.7876033186912537, -1.4226703643798828, 0.604248046875, 0.176025390625, -0.700927734375
157, 2458560997, -6.316905975341797, 1.96143639087677, 7.047403335571289, -0.27792343497276306, -0.8089003562927246, -1.4736908674240112, 0.603759765625, 0.176513671875, -0.700927734375
158, 2458577664, -6.33429479598999, 1.9558134078979492, 7.06026029586792, -0.35707950592041016, -0.9127215147018433, -1.477583885192871, 0.60546875, 0.175537109375, -0.698974609375
159, 2458594331, -6.320314407348633, 1.9517565965652466, 7.027868747711182, -0.3784404397010803, -1.001725435256958, -1.4943472146987915, 0.6064453125, 0.176025390625, -0.700439453125
160, 2458610998, -6.3092474937438965, 1.9529054164886475, 7.055882453918457, -0.4808015525341034, -1.1691172122955322, -1.5073970556259155, 0.604736328125, 0.177001953125, -0.699951171875
161, 2458627665, -6.327113628387451, 1.9581100940704346, 7.060675144195557, -0.4110453724861145, -1.0357006788253784, -1.5000971555709839, 0.602783203125, 0.177001953125, -0.698974609375
162, 2458644332, -6.317358016967773, 1.9507869482040405, 7.044095516204834, -0.3524179458618164, -0.9567880630493164, -1.4563254117965698, 0.603271484375, 0.177001953125, -0.700927734375
163, 2458660999, -6.324367046356201, 1.9355937242507935, 7.088388442993164, -0.4647808372974396, -0.9262832403182983, -1.5489919185638428, 0.604248046875, 0.175048828125, -0.700439453125
164, 2458677666, -6.321072578430176, 1.9535024166107178, 7.057387351989746, -0.5026748776435852, -1.0038129091262817, -1.5674843788146973, 0.603271484375, 0.176513671875, -0.698974609375
165, 2458694333, -6.3350419998168945, 1.962520956993103, 7.047975540161133, -0.5276856422424316, -1.0481356382369995, -1.6071456670761108, 0.604736328125, 0.176513671875, -0.699462890625
166, 2458711000, -6.325153350830078, 1.9274331331253052, 7.036758899688721, -0.6090059876441956, -1.0947891473770142, -1.6287370920181274, 0.605224609375, 0.176513671875, -0.701416015625
167, 2458727667, -6.319960117340088, 1.9566608667373657, 7.03112268447876, -0.49073928594589233, -1.071238398551941, -1.6071072816848755, 0.604248046875, 0.177001953125, -0.698486328125
168, 2458744334, -6.316537380218506, 1.9104467630386353, 7.0738091468811035, -0.46187376976013184, -1.0132510662078857, -1.4971007108688354, 0.604736328125, 0.177490234375, -0.699462890625
169, 2458761001, -6.311610221862793, 1.936948299407959, 7.0506696701049805, -0.3424034118652344, -0.8423377275466919, -1.4964860677719116, 0.604248046875, 0.177490234375, -0.701416015625
170, 2458777668, -6.312784194946289, 1.9470301866531372, 7.057963848114014, -0.2995917499065399, -0.8318237066268921, -1.453149437904358, 0.605224609375, 0.177001953125, -0.700439453125
171, 2458794335, -6.3132452964782715, 1.9522371292114258, 7.069159507751465, -0.2659110426902771, -0.9148855805397034, -1.4498580694198608, 0.604736328125, 0.177001953125, -0.701904296875
172, 2458811002, -6.310921669006348, 1.9517658948898315, 7.043539524078369, -0.29545533657073975, -0.9209815263748169, -1.4429042339324951, 0.604248046875, 0.177490234375, -0.697998046875
173, 2458827669, -6.3296027183532715, 1.9358155727386475, 7.048109531402588, -0.26618000864982605, -0.7592372894287109, -1.4173427820205688, 0.600830078125, 0.177001953125, -0.700927734375
174, 2458844336, -6.322359561920166, 1.9407696723937988, 7.054229259490967, -0.2026733011007309, -0.700763463973999, -1.3880417346954346, 0.603271484375, 0.176025390625, -0.699462890625
175, 2458861003, -6.330313682556152, 1.9415470361709595, 7.057203769683838, -0.14787492156028748, -0.8272261619567871, -1.3345880508422852, 0.603271484375, 0.177001953125, -0.701904296875
176, 2458877670, -6.3291144371032715, 1.934032917022705, 7.050291538238525, -0.22089673578739166, -0.6182649731636047, -1.3542715311050415, 0.605224609375, 0.176025390625, -0.701904296875
177, 2458894337, -6.309503555297852, 1.943966031074524, 7.022367477416992, -0.20304466784000397, -0.7614399194717407, -1.3891047239303589, 0.604736328125, 0.176513671875, -0.700927734375
178, 2458911004, -6.3118672370910645, 1.9548680782318115, 7.057189464569092, -0.16406214237213135, -0.6354254484176636, -1.360866665840149, 0.604736328125, 0.175537109375, -0.699951171875
179, 2458927671, -6.3255295753479, 1.9408951997756958, 7.073360919952393, -0.22225421667099, -0.7244552373886108, -1.395943522453308, 0.604736328125, 0.177001953125, -0.699951171875
180, 2458944338, -6.322478294372559, 1.9491384029388428, 7.062234878540039, -0.19714096188545227, -0.8063006401062012, -1.4029484987258911, 0.603759765625, 0.177001953125, -0.701904296875
181, 2458961005, -6.326577663421631, 1.9360941648483276, 7.054460048675537, -0.17679163813591003, -0.8649407625198364, -1.3798328638076782, 0.604248046875, 0.177978515625, -0.700439453125
182, 2458977672, -6.320098400115967, 1.9305932521820068, 7.089887619018555, -0.11721652001142502, -0.8393538594245911, -1.3081942796707153, 0.602294921875, 0.177490234375, -0.699951171875
183, 2458994339, -6.336372375488281, 1.9459599256515503, 7.067172527313232, -0.16785283386707306, -0.863493800163269, -1.3533110618591309, 0.603759765625, 0.176513671875, -0.698974609375
184, 2459011006, -6.3170928955078125, 1.9533144235610962, 7.05118465423584, -0.18382233381271362, -0.9026042819023132, -1.3675004243850708, 0.603759765625, 0.177978515625, -0.700927734375
185, 2459027673, -6.327444553375244, 1.9384353160858154, 7.0832672119140625, -0.24689362943172455, -0.7751171588897705, -1.414871096611023, 0.604248046875, 0.176513671875, -0.699462890625
186, 2459044340, -6.325292110443115, 1.9277814626693726, 7.068914890289307, -0.2675630450248718, -0.8175702095031738, -1.3212310075759888, 0.602294921875, 0.176513671875, -0.699951171875
187, 2459061007, -6.337512493133545, 1.9414548873901367, 7.076686859130859, -0.19072496891021729, -0.8543626666069031, -1.3864026069641113, 0.603271484375, 0.174560546875, -0.702392578125
188, 2459077674, -6.316532135009766, 1.9356861114501953, 7.067752838134766, -0.304791122674942, -0.8769403696060181, -1.3436678647994995, 0.60546875, 0.177001953125, -0.699951171875
189, 2459094341, -6.32078218460083, 1.9348820447921753, 7.048412799835205, -0.1907505840063095, -0.8323103189468384, -1.2731561660766602, 0.604736328125, 0.177978515625, -0.698974609375
190, 2459111008, -6.315762042999268, 1.9448540210723877, 7.06742000579834, -0.1798395812511444, -0.8373560905456543, -1.337110996246338, 0.602294921875, 0.178466796875, -0.701416015625
191, 2459127675, -6.313485145568848, 1.944407343864441, 7.094986915588379, -0.06229008361697197, -0.7290014624595642, -1.3728278875350952, 0.604248046875, 0.17822265625, -0.700439453125
192, 2459144342, -6.315394878387451, 1.9266269207000732, 7.060164928436279, -0.06286637485027313, -0.7695335745811462, -1.280045986175537, 0.603271484375, 0.177490234375, -0.701416015625
193, 2459161009, -6.311574459075928, 1.9507776498794556, 7.0823588371276855, -0.18835578858852386, -0.7608892917633057, -1.2783042192459106, 0.602783203125, 0.176513671875, -0.700439453125
194, 2459177676, -6.309875965118408, 1.945982575416565, 7.049685955047607, -0.16262783110141754, -0.855976402759552, -1.2968477010726929, 0.603759765625, 0.177490234375, -0.701416015625
195, 2459194343, -6.316905975341797, 1.9443204402923584, 7.072257041931152, -0.24494704604148865, -0.8824727535247803, -1.2602342367172241, 0.603271484375, 0.177978515625, -0.701416015625
196, 2459211010, -6.305720329284668, 1.9415068626403809, 7.0533881187438965, -0.2349068820476532, -0.8883764743804932, -1.3527604341506958, 0.6044921875, 0.175048828125, -0.698486328125
197, 2459227677, -6.321787357330322, 1.9312161207199097, 7.058225154876709, -0.2393122762441635, -0.9028093218803406, -1.354245901107788, 0.604736328125, 0.176025390625, -0.699462890625
198, 2459244344, -6.320420742034912, 1.9308176040649414, 7.046757698059082, -0.2772574722766876, -0.9098016023635864, -1.3042243719100952, 0.604248046875, 0.175537109375, -0.703857421875
199, 2459261011, -6.309881210327148, 1.9480664730072021, 7.062551021575928, -0.16232049465179443, -0.7577517032623291, -1.311549425125122, 0.606201171875, 0.177490234375, -0.702880859375
200, 2459277678, -6.318854808807373, 1.9412645101547241, 7.05730676651001, -0.19667993485927582, -0.756765604019165, -1.2862056493759155, 0.60595703125, 0.176513671875, -0.698974609375
201, 2459294345, -6.321911811828613, 1.935675024986267, 7.067471981048584, -0.09895467013120651, -0.7700715065002441, -1.297104001045227, 0.602294921875, 0.177978515625, -0.701904296875
202, 2459311012, -6.319113731384277, 1.9437565803527832, 7.028703212738037, -0.17944256961345673, -0.7930075526237488, -1.3319499492645264, 0.6044921875, 0.176025390625, -0.6982421875
203, 2459327679, -6.314770221710205, 1.9370276927947998, 7.047744274139404, -0.1135154739022255, -0.6881492137908936, -1.4349898099899292, 0.603759765625, 0.176025390625, -0.699462890625
204, 2459344346, -6.316807746887207, 1.9479632377624512, 7.081429958343506, -0.23094972968101501, -0.6935406923294067, -1.3656691312789917, 0.603759765625, 0.177978515625, -0.700927734375
205, 2459361013, -6.3173136711120605, 1.9545174837112427, 7.065005302429199, -0.20939664542675018, -0.6287789940834045, -1.3772332668304443, 0.605224609375, 0.17822265625, -0.702392578125
206, 2459377680, -6.317234992980957, 1.9464917182922363, 7.043242454528809, -0.3021530210971832, -0.7467638850212097, -1.4869197607040405, 0.601806640625, 0.178466796875, -0.699951171875
207, 2459394347, -6.326294898986816, 1.9264185428619385, 7.037528038024902, -0.21824580430984497, -0.7157981395721436, -1.5001614093780518, 0.605224609375, 0.177734375, -0.699462890625
208, 2459411014, -6.323183536529541, 1.9323586225509644, 7.047447681427002, -0.16792966425418854, -0.7503496408462524, -1.3356894254684448, 0.603759765625, 0.17822265625, -0.699951171875
209, 2459427681, -6.3214616775512695, 1.937124252319336, 7.061806678771973, -0.13655410706996918, -0.8804236054420471, -1.2586721181869507, 0.603271484375, 0.174560546875, -0.700927734375
210, 2459444348, -6.314120292663574, 1.9356045722961426, 7.054100036621094, -0.24780289828777313, -0.84537273645401, -1.2779712677001953, 0.602783203125, 0.178466796875, -0.701416015625
211, 2459461015, -6.314224720001221, 1.958840012550354, 7.064112186431885, -0.3142934739589691, -0.8709983229637146, -1.4428915977478027, 0.603759765625, 0.176513671875, -0.702392578125
212, 2459477682, -6.335054874420166, 1.9490948915481567, 7.058476448059082, -0.3461812138557434, -0.922082781791687, -1.427152395248413, 0.604248046875, 0.177490234375, -0.701904296875
213, 2459494349, -6.318800926208496, 1.9620208740234375, 7.072339057922363, -0.5303750038146973, -1.1122956275939941, -1.5321515798568726, 0.603271484375, 0.177001953125, -0.699951171875
214, 2459511016, -6.320180892944336, 1.9304014444351196, 7.074660301208496, -0.528710126876831, -0.9458897709846497, -1.5487102270126343, 0.602294921875, 0.177001953125, -0.698974609375
215, 2459527683, -6.320934772491455, 1.9308189153671265, 7.063214302062988, -0.3711920380592346, -0.8808207511901855, -1.539348840713501, 0.604248046875, 0.1787109375, -0.700439453125
216, 2459544350, -6.330001354217529, 1.952702283859253, 7.088856220245361, -0.34381207823753357, -0.8119097948074341, -1.4886996746063232, 0.601806640625, 0.177978515625, -0.701416015625
217, 2459561017, -6.317209243774414, 1.9370964765548706, 7.060554027557373, -0.3647248148918152, -0.9067022800445557, -1.5806618928909302, 0.600830078125, 0.178466796875, -0.699951171875
218, 2459577684, -6.31144380569458, 1.9273732900619507, 7.0618977546691895, -0.451744019985199, -0.942317008972168, -1.4563381671905518, 0.603271484375, 0.177978515625, -0.700439453125
219, 2459594351, -6.3267998695373535, 1.931739330291748, 7.059861660003662, -0.411557674407959, -0.9209175109863281, -1.5111364126205444, 0.602783203125, 0.178466796875, -0.700439453125
220, 2459611018, -6.313302516937256, 1.9448121786117554, 7.087833881378174, -0.35714346170425415, -0.985909640789032, -1.5151447057724, 0.603271484375, 0.177001953125, -0.700439453125
221, 2459627685, -6.308484077453613, 1.9480409622192383, 7.027984619140625, -0.3782739043235779, -0.8436950445175171, -1.5352634191513062, 0.604736328125, 0.177490234375, -0.699951171875
222, 2459644352, -6.323518753051758, 1.9093416929244995, 7.0597453117370605, -0.2224847376346588, -0.75908362865448, -1.503990650177002, 0.602294921875, 0.177490234375, -0.702392578125
223, 2459661019, -6.318963050842285, 1.9312279224395752, 7.068277359008789, -0.3482174575328827, -0.7883076667785645, -1.5158107280731201, 0.602783203125, 0.177978515625, -0.700927734375
224, 2459677686, -6.314333438873291, 1.9316595792770386, 7.0713958740234375, -0.28960278630256653, -0.7252748608589172, -1.4721027612686157, 0.604736328125, 0.17822265625, -0.700927734375
225, 2459694353, -6.322403907775879, 1.9258564710617065, 7.036668300628662, -0.30879953503608704, -0.7397971749305725, -1.4233489036560059, 0.601318359375, 0.176513671875, -0.701416015625
226, 2459711020, -6.325088977813721, 1.9244799613952637, 7.069159030914307, -0.2293873131275177, -0.7871806621551514, -1.3782832622528076, 0.604248046875, 0.176513671875, -0.700439453125
227, 2459727687, -6.315824031829834, 1.9258134365081787, 7.059023380279541, -0.28360944986343384, -0.7673308849334717, -1.390539288520813, 0.604248046875, 0.177490234375, -0.701416015625
228, 2459744354, -6.311797618865967, 1.9410271644592285, 7.078411102294922, -0.19249223172664642, -0.7611069679260254, -1.3444617986679077, 0.603271484375, 0.176513671875, -0.702880859375
229, 2459761021, -6.315444469451904, 1.9330332279205322, 7.051859378814697, -0.1529846489429474, -0.7592628598213196, -1.3380202054977417, 0.603759765625, 0.17919921875, -0.700927734375
230, 2459777688, -6.32470178604126, 1.93112313747406, 7.066819190979004, 0.032982755452394485, -0.5857240557670593, -1.2728359699249268, 0.603759765625, 0.177978515625, -0.701904296875
231, 2459794355, -6.340710163116455, 1.9292880296707153, 7.071099758148193, -0.08151241391897202, -0.6442233920097351, -1.2444570064544678, 0.604248046875, 0.1806640625, -0.701416015625
232, 2459811022, -6.314332962036133, 1.9383870363235474, 7.067796230316162, -0.17908401787281036, -0.7274647355079651, -1.2280008792877197, 0.603271484375, 0.17822265625, -0.698974609375
233, 2459827689, -6.321114540100098, 1.9448868036270142, 7.070247173309326, -0.15794071555137634, -0.6527397036552429, -1.3156603574752808, 0.603271484375, 0.177490234375, -0.699951171875
234, 2459844356, -6.328949928283691, 1.930591106414795, 7.039271354675293, -0.10639515519142151, -0.5854935050010681, -1.3335379362106323, 0.603271484375, 0.177978515625, -0.701904296875
235, 2459861023, -6.324087619781494, 1.9161604642868042, 7.057370185852051, -0.05984406918287277, -0.5912819504737854, -1.3536183834075928, 0.601806640625, 0.17919921875, -0.702392578125
236, 2459877690, -6.338144302368164, 1.9205001592636108, 7.062201499938965, -0.035960230976343155, -0.6513822078704834, -1.2687506675720215, 0.604248046875, 0.177001953125, -0.701416015625
237, 2459894357, -6.327934265136719, 1.9320950508117676, 7.0614237785339355, -0.13866713643074036, -0.6679151654243469, -1.2646269798278809, 0.604736328125, 0.18017578125, -0.698974609375
238, 2459911024, -6.328054428100586, 1.9305309057235718, 7.056276321411133, -0.2350989580154419, -0.7489024996757507, -1.2898170948028564, 0.603759765625, 0.177978515625, -0.701416015625
239, 2459927691, -6.297008991241455, 1.9288312196731567, 7.036818981170654, -0.18337412178516388, -0.6703355312347412, -1.360815405845642, 0.601806640625, 0.1787109375, -0.699462890625
240, 2459944358, -6.314589023590088, 1.941727876663208, 7.076787948608398, -0.07179240137338638, -0.6500375270843506, -1.226643443107605, 0.605224609375, 0.177490234375, -0.700927734375
241, 2459961025, -6.315175533294678, 1.9400304555892944, 7.073649883270264, -0.08544395864009857, -0.5739805698394775, -1.2707996368408203, 0.604248046875, 0.177001953125, -0.699951171875
242, 2459977692, -6.320971965789795, 1.9282262325286865, 7.051446437835693, 0.03259856626391411, -0.5447821021080017, -1.21116042137146, 0.601318359375, 0.178955078125, -0.700927734375
243, 2459994359, -6.3254828453063965, 1.9211304187774658, 7.066432952880859, 0.16883251070976257, -0.4448157250881195, -1.1268563270568848, 0.60595703125, 0.17822265625, -0.698974609375
244, 2460011026, -6.321195125579834, 1.9455773830413818, 7.0592451095581055, 0.10742605477571487, -0.5120362639427185, -0.9899436235427856, 0.602294921875, 0.176513671875, -0.700927734375
245, 2460027693, -6.31599235534668, 1.9514154195785522, 7.068965911865234, 0.14145255088806152, -0.5681281089782715, -1.0696760416030884, 0.602294921875, 0.177978515625, -0.699951171875
246, 2460044360, -6.332026481628418, 1.9240336418151855, 7.054234981536865, 0.2942194938659668, -0.31574058532714844, -1.0255452394485474, 0.603271484375, 0.177490234375, -0.701904296875
247, 2460061027, -6.3173675537109375, 1.9441332817077637, 7.074021816253662, 0.39832228422164917, -0.26822900772094727, -0.9020407795906067, 0.604736328125, 0.177978515625, -0.700927734375
248, 2460077694, -6.330506324768066, 1.9441537857055664, 7.057303428649902, 0.4215146005153656, -0.17323148250579834, -0.8430163860321045, 0.60546875, 0.176025390625, -0.6982421875
249, 2460094361, -6.3187689781188965, 1.9448957443237305, 7.050112247467041, 0.43972525000572205, -0.12564310431480408, -0.9271541237831116, 0.602294921875, 0.178466796875, -0.700439453125
250, 2460111028, -6.326901435852051, 1.9628944396972656, 7.034492015838623, 0.3287838399410248, -0.1417790949344635, -0.9967054128646851, 0.604736328125, 0.17822265625, -0.698974609375
251, 2460127695, -6.344488143920898, 1.9280316829681396, 7.047788619995117, 0.20656001567840576, -0.3655316233634949, -1.0876688957214355, 0.603759765625, 0.177001953125, -0.700439453125
252, 2460144362, -6.334681034088135, 1.9442330598831177, 7.0419020652771, 0.009060491807758808, -0.5944323539733887, -1.2570585012435913, 0.603759765625, 0.174560546875, -0.698486328125
253, 2460161029, -6.331442832946777, 1.947153925895691, 7.032247543334961, -0.04210728034377098, -0.7454832196235657, -1.2014020681381226, 0.604248046875, 0.175537109375, -0.699462890625
254, 2460177696, -6.336338996887207, 1.9638932943344116, 7.058474063873291, -0.04300372675061226, -0.6828346252441406, -1.1693862676620483, 0.605224609375, 0.176025390625, -0.700927734375
255, 2460194363, -6.336250305175781, 1.9536834955215454, 7.041932582855225, 0.03495493531227112, -0.6839870810508728, -1.074913740158081, 0.603759765625, 0.175537109375, -0.6982421875
256, 2460211030, -6.319668769836426, 1.9584150314331055, 7.05142879486084, 0.04613488167524338, -0.6203140020370483, -1.1422879695892334, 0.6044921875, 0.174072265625, -0.698974609375
257, 2460227697, -6.336361408233643, 1.954814076423645, 7.069008827209473, -0.02339719980955124, -0.6995084285736084, -1.2733098268508911, 0.605224609375, 0.176025390625, -0.701416015625
258, 2460244364, -6.337147235870361, 1.9557322263717651, 7.061374664306641, -0.07268884032964706, -0.6580543518066406, -1.2155147790908813, 0.60595703125, 0.175048828125, -0.6982421875
259, 2460261031, -6.335968971252441, 1.957305669784546, 7.058200836181641, -0.14795176684856415, -0.7301668524742126, -1.2955033779144287, 0.60498046875, 0.174560546875, -0.697265625
260, 2460277698, -6.322714805603027, 1.9621484279632568, 7.026803016662598, -0.22779935598373413, -0.7688420414924622, -1.4448509216308594, 0.60498046875, 0.175537109375, -0.699951171875
261, 2460294365, -6.33888578414917, 1.9653548002243042, 7.016768455505371, -0.2875409722328186, -0.8513020873069763, -1.4415850639343262, 0.603759765625, 0.177978515625, -0.697998046875
262, 2460311032, -6.321101188659668, 1.9574216604232788, 7.037667751312256, -0.35471028089523315, -0.85926753282547, -1.4404966831207275, 0.60498046875, 0.175537109375, -0.698486328125
263, 2460327699, -6.3416595458984375, 1.9489892721176147, 7.071133136749268, -0.3276376724243164, -0.7734395265579224, -1.452636957168579, 0.60498046875, 0.176513671875, -0.698974609375
264, 2460344366, -6.337383270263672, 1.972287893295288, 7.0420823097229, -0.3245769143104553, -0.801959216594696, -1.511123538017273, 0.60400390625, 0.175537109375, -0.69775390625
265, 2460361033, -6.327233791351318, 1.9509897232055664, 7.03584623336792, -0.3573996424674988, -0.7914837002754211, -1.4867404699325562, 0.60400390625, 0.174560546875, -0.698486328125
266, 2460377700, -6.3175177574157715, 1.9470552206039429, 7.027108669281006, -0.3542236387729645, -0.8373432159423828, -1.4979971647262573, 0.60693359375, 0.176025390625, -0.699951171875
267, 2460394367, -6.336634635925293, 1.9571526050567627, 7.033553600311279, -0.34379929304122925, -0.7649233341217041, -1.5273109674453735, 0.6064453125, 0.17724609375, -0.697265625
268, 2460411034, -6.332206726074219, 1.9290990829467773, 7.059716701507568, -0.39981427788734436, -0.8944083452224731, -1.5206516981124878, 0.60498046875, 0.175048828125, -0.699951171875
269, 2460427701, -6.328840255737305, 1.9445366859436035, 7.078632354736328, -0.34636056423187256, -0.856757640838623, -1.5352510213851929, 0.603759765625, 0.177490234375, -0.698486328125
270, 2460444368, -6.324471950531006, 1.9441012144088745, 7.042989253997803, -0.3157789707183838, -0.8099631071090698, -1.4728069305419922, 0.604736328125, 0.175537109375, -0.702392578125
271, 2460461035, -6.340751647949219, 1.953440546989441, 7.036715984344482, -0.2911267578601837, -0.8179031610488892, -1.4770333766937256, 0.60498046875, 0.175537109375, -0.698974609375
272, 2460477702, -6.3371477127075195, 1.9658690690994263, 7.037696361541748, -0.27351802587509155, -0.8097839951515198, -1.4565174579620361, 0.60498046875, 0.175048828125, -0.698974609375
273, 2460494369, -6.332211971282959, 1.9506081342697144, 7.063750267028809, -0.23474039137363434, -0.8538633584976196, -1.3991703987121582, 0.603759765625, 0.177978515625, -0.699951171875
274, 2460511036, -6.343904495239258, 1.9616456031799316, 7.0403313636779785, -0.21846351027488708, -0.8126012682914734, -1.3967244625091553, 0.6044921875, 0.175048828125, -0.698486328125
275, 2460527703, -6.32883882522583, 1.9534988403320312, 7.040560245513916, -0.1391409933567047, -0.8510843515396118, -1.4172275066375732, 0.603271484375, 0.176513671875, -0.699951171875
276, 2460544370, -6.318419933319092, 1.9293487071990967, 7.043210983276367, -0.18110740184783936, -0.6425586342811584, -1.3431429862976074, 0.605224609375, 0.177490234375, -0.697998046875
277, 2460561037, -6.335011005401611, 1.9480667114257812, 7.036319732666016, -0.20907646417617798, -0.5630055069923401, -1.352990746498108, 0.605224609375, 0.177490234375, -0.701416015625
278, 2460577704, -6.333280563354492, 1.956019639968872, 7.0756378173828125, -0.24770046770572662, -0.6755349636077881, -1.4900189638137817, 0.6064453125, 0.177734375, -0.699462890625
279, 2460594371, -6.333036422729492, 1.9522098302841187, 7.03759765625, -0.25749725103378296, -0.7721332311630249, -1.4685297012329102, 0.604736328125, 0.177490234375, -0.698974609375
280, 2460611038, -6.346789836883545, 1.949364185333252, 7.032868385314941, -0.29645419120788574, -0.8793736696243286, -1.4558131694793701, 0.604248046875, 0.177978515625, -0.697265625
281, 2460627705, -6.3296990394592285, 1.960173487663269, 7.030068874359131, -0.3030622601509094, -0.9356576204299927, -1.3113958835601807, 0.605224609375, 0.1787109375, -0.69775390625
282, 2460644372, -6.326563835144043, 1.9446370601654053, 7.0498247146606445, -0.287425696849823, -0.8850852251052856, -1.3401715755462646, 0.60546875, 0.176025390625, -0.699951171875
283, 2460661039, -6.327869892120361, 1.94000244140625, 7.066865921020508, -0.1764715015888214, -0.8007938861846924, -1.296566128730774, 0.604736328125, 0.177490234375, -0.698486328125
284, 2460677706, -6.327420711517334, 1.9401923418045044, 7.029483318328857, -0.33543676137924194, -0.8404295444488525, -1.3158012628555298, 0.604736328125, 0.177490234375, -0.699462890625
285, 2460694373, -6.32717227935791, 1.95327889919281, 7.051201343536377, -0.2911011576652527, -0.8264706134796143, -1.4774302244186401, 0.604736328125, 0.177490234375, -0.698974609375
286, 2460711040, -6.330572605133057, 1.9490537643432617, 7.029969215393066, -0.3035617172718048, -0.887992262840271, -1.4745614528656006, 0.604736328125, 0.176513671875, -0.698974609375
287, 2460727707, -6.334746360778809, 1.939171314239502, 7.053837776184082, -0.34125080704689026, -0.7945058941841125, -1.4659556150436401, 0.602294921875, 0.175537109375, -0.698974609375
288, 2460744374, -6.330499649047852, 1.9414321184158325, 7.0515217781066895, -0.3165729343891144, -0.9280633926391602, -1.4941551685333252, 0.60498046875, 0.175537109375, -0.700439453125
289, 2460761041, -6.3432393074035645, 1.9302023649215698, 7.063447952270508, -0.41846027970314026, -1.0470342636108398, -1.5008656978607178, 0.604736328125, 0.177001953125, -0.698974609375
290, 2460777708, -6.327032566070557, 1.9511573314666748, 7.054996013641357, -0.5507626533508301, -1.0715969800949097, -1.5867323875427246, 0.605224609375, 0.176513671875, -0.699462890625
291, 2460794375, -6.319052696228027, 1.9456803798675537, 7.059085369110107, -0.4945811927318573, -1.0700857639312744, -1.6319003105163574, 0.60595703125, 0.177001953125, -0.698486328125
292, 2460811042, -6.332757472991943, 1.9250633716583252, 7.06032657623291, -0.4857192039489746, -1.0297584533691406, -1.6092970371246338, 0.605712890625, 0.176025390625, -0.701904296875
293, 2460827709, -6.333544731140137, 1.9377261400222778, 7.056675910949707, -0.5245096683502197, -1.0890774726867676, -1.593788504600525, 0.605224609375, 0.17822265625, -0.699951171875
294, 2460844376, -6.336730480194092, 1.9288748502731323, 7.016567707061768, -0.4056538939476013, -1.0032238960266113, -1.5526418685913086, 0.60546875, 0.176025390625, -0.698486328125
295, 2460861043, -6.325871467590332, 1.9254941940307617, 7.0617265701293945, -0.3605627715587616, -0.9041668176651001, -1.5073330402374268, 0.604248046875, 0.1787109375, -0.701416015625
296, 2460877710, -6.323129653930664, 1.9278396368026733, 7.053433895111084, -0.3166114091873169, -0.9362723231315613, -1.4749202728271484, 0.606201171875, 0.177734375, -0.700927734375
297, 2460894377, -6.32054328918457, 1.9367494583129883, 7.052996635437012, -0.21249572932720184, -0.8335139751434326, -1.4074177742004395, 0.603759765625, 0.17822265625, -0.698486328125
298, 2460911044, -6.316397190093994, 1.9413692951202393, 7.042881965637207, -0.170964777469635, -0.7920727729797363, -1.4576059579849243, 0.604736328125, 0.177978515625, -0.698486328125
299, 2460927711, -6.3285322189331055, 1.9250012636184692, 7.033774375915527, -0.09524081647396088, -0.7675870060920715, -1.2981284856796265, 0.603759765625, 0.1787109375, -0.698974609375
300, 2460944378, -6.331719398498535, 1.9310745000839233, 7.057563781738281, -0.16858279705047607, -0.740962564945221, -1.3697160482406616, 0.605224609375, 0.1787109375, -0.699951171875
301, 2460961045, -6.315699577331543, 1.9379922151565552, 7.054603099822998, -0.2487633377313614, -0.7724277377128601, -1.339364767074585, 0.603759765625, 0.177490234375, -0.699462890625
302, 2460977712, -6.333307266235352, 1.9388927221298218, 7.044633388519287, -0.18884241580963135, -0.828417181968689, -1.3849297761917114, 0.604736328125, 0.17822265625, -0.702392578125
303, 2460994379, -6.335561752319336, 1.9372215270996094, 7.032948017120361, -0.2557172179222107, -0.8116152882575989, -1.3451406955718994, 0.60498046875, 0.176513671875, -0.698486328125
304, 2461011046, -6.323611736297607, 1.9311623573303223, 7.047558784484863, -0.2993996739387512, -0.7938272953033447, -1.3759143352508545, 0.603759765625, 0.177490234375, -0.697265625
305, 2461027713, -6.326748371124268, 1.9503153562545776, 7.040579319000244, -0.23189738392829895, -0.7256845831871033, -1.3740445375442505, 0.603759765625, 0.177978515625, -0.700439453125
306, 2461044380, -6.326030254364014, 1.9468178749084473, 7.048888206481934, -0.16296079754829407, -0.7799450755119324, -1.4224653244018555, 0.60595703125, 0.177001953125, -0.699951171875
307, 2461061047, -6.325023174285889, 1.9248089790344238, 7.0750732421875, -0.18998219072818756, -0.8118585348129272, -1.3924856185913086, 0.604736328125, 0.177490234375, -0.700439453125
308, 2461077714, -6.3196821212768555, 1.9177275896072388, 7.062464714050293, -0.15641675889492035, -0.7115464210510254, -1.4003231525421143, 0.604248046875, 0.177001953125, -0.702392578125
309, 2461094381, -6.332106590270996, 1.9366276264190674, 7.040773868560791, -0.10770141333341599, -0.8036496639251709, -1.3628261089324951, 0.605712890625, 0.177490234375, -0.700439453125
310, 2461111048, -6.338717937469482, 1.937303900718689, 7.053989887237549, -0.1599256992340088, -0.8181337118148804, -1.3290174007415771, 0.603759765625, 0.176025390625, -0.699462890625
311, 2461127715, -6.340441703796387, 1.9420523643493652, 7.036664962768555, -0.15001358091831207, -0.7987321019172668, -1.3911923170089722, 0.605224609375, 0.177001953125, -0.699462890625
312, 2461144382, -6.333516597747803, 1.9402211904525757, 7.043676853179932, -0.14956536889076233, -0.7424865365028381, -1.3984277248382568, 0.604248046875, 0.177978515625, -0.701416015625
313, 2461161049, -6.3353681564331055, 1.936532735824585, 7.041601181030273, -0.26902297139167786, -0.5716754794120789, -1.3856598138809204, 0.604736328125, 0.177001953125, -0.700439453125
314, 2461177716, -6.3200788497924805, 1.9445431232452393, 7.049637794494629, -0.24487023055553436, -0.6479372978210449, -1.3789238929748535, 0.605224609375, 0.177490234375, -0.702392578125
315, 2461194383, -6.3349080085754395, 1.9334616661071777, 7.044778347015381, -0.25881630182266235, -0.7574827671051025, -1.3653874397277832, 0.606201171875, 0.1787109375, -0.700439453125
316, 2461211050, -6.3306379318237305, 1.930285930633545, 7.059803009033203, -0.15089720487594604, -0.8167633414268494, -1.2916098833084106, 0.603759765625, 0.177978515625, -0.699462890625
317, 2461227717, -6.333898067474365, 1.922658920288086, 7.085019588470459, -0.07806751132011414, -0.8029453754425049, -1.2421776056289673, 0.606201171875, 0.1796875, -0.699951171875
318, 2461244384, -6.323699474334717, 1.9235259294509888, 7.0724053382873535, -0.15721075236797333, -0.8198624849319458, -1.2391424179077148, 0.604736328125, 0.177490234375, -0.702880859375
319, 2461261051, -6.326365947723389, 1.9259408712387085, 7.0556321144104, -0.11410458385944366, -0.828122615814209, -1.1870334148406982, 0.604248046875, 0.176513671875, -0.701904296875
320, 2461277718, -6.3258867263793945, 1.942897081375122, 7.047260761260986, -0.10166961699724197, -0.8023051023483276, -1.103049397468567, 0.604248046875, 0.177001953125, -0.700927734375
321, 2461294385, -6.330124378204346, 1.9371618032455444, 7.068559646606445, -0.04191518574953079, -0.6132832765579224, -1.1107202768325806, 0.604736328125, 0.177001953125, -0.69775390625
322, 2461311052, -6.333005905151367, 1.9448744058609009, 7.058748722076416, -0.010885396972298622, -0.7391183972358704, -1.1471030712127686, 0.60498046875, 0.176025390625, -0.698974609375
323, 2461327719, -6.328270435333252, 1.925410509109497, 7.06494140625, 0.004872816614806652, -0.731293797492981, -1.1983798742294312, 0.604248046875, 0.177978515625, -0.699951171875
324, 2461344386, -6.324881076812744, 1.960503101348877, 7.055730819702148, -0.09992794692516327, -0.7628102898597717, -1.2117111682891846, 0.600341796875, 0.178466796875, -0.698486328125
325, 2461361053, -6.331433296203613, 1.9472472667694092, 7.053396224975586, -0.06472329050302505, -0.8441178202629089, -1.1789653301239014, 0.606201171875, 0.1787109375, -0.700439453125
326, 2461377720, -6.328298091888428, 1.938490867614746, 7.0513081550598145, -0.08771068602800369, -0.8160975575447083, -1.1970864534378052, 0.603271484375, 0.177978515625, -0.699462890625
327, 2461394387, -6.32201623916626, 1.9452580213546753, 7.056456089019775, -0.06006178259849548, -0.7803421020507812, -1.2682256698608398, 0.603759765625, 0.1787109375, -0.700927734375
328, 2461411054, -6.333730697631836, 1.9264447689056396, 7.034732818603516, -0.07227903604507446, -0.7982965707778931, -1.198533535003662, 0.604248046875, 0.177978515625, -0.697265625
329, 2461427721, -6.331548690795898, 1.9293773174285889, 7.034572124481201, -0.017275765538215637, -0.7456753849983215, -1.2388094663619995, 0.603271484375, 0.176513671875, -0.698486328125
330, 2461444388, -6.336825847625732, 1.9354300498962402, 7.049320220947266, -0.0908866599202156, -0.844963014125824, -1.2874606847763062, 0.603759765625, 0.176513671875, -0.701904296875
331, 2461461055, -6.332087516784668, 1.9465739727020264, 7.055878162384033, -0.20170001685619354, -0.8915268778800964, -1.3149561882019043, 0.604736328125, 0.1787109375, -0.700439453125
332, 2461477722, -6.326318740844727, 1.943447232246399, 7.045050144195557, -0.18060795962810516, -0.8369845747947693, -1.2684048414230347, 0.605224609375, 0.17822265625, -0.702880859375
333, 2461494389, -6.3152570724487305, 1.9470854997634888, 7.05451774597168, -0.2246105670928955, -0.9048581123352051, -1.3368546962738037, 0.60546875, 0.177734375, -0.698486328125
334, 2461511056, -6.333871364593506, 1.9396848678588867, 7.057836055755615, -0.23523984849452972, -0.9659447073936462, -1.380063533782959, 0.604736328125, 0.177001953125, -0.698486328125
335, 2461527723, -6.312666893005371, 1.9470717906951904, 7.048990249633789, -0.23495808243751526, -0.8812689185142517, -1.3386220932006836, 0.606201171875, 0.17822265625, -0.699951171875
336, 2461544390, -6.330401420593262, 1.941948413848877, 7.046048641204834, -0.33950918912887573, -0.9342746138572693, -1.372891902923584, 0.604736328125, 0.175537109375, -0.700927734375
337, 2461561057, -6.33516263961792, 1.938210129737854, 7.048593997955322, -0.295416921377182, -0.9213273525238037, -1.3818179368972778, 0.603759765625, 0.177490234375, -0.702392578125
338, 2461577724, -6.334745407104492, 1.929299235343933, 7.06419563293457, -0.2816372513771057, -0.8918470740318298, -1.427472710609436, 0.603759765625, 0.177001953125, -0.699951171875
339, 2461594391, -6.329704284667969, 1.9373037815093994, 7.048670291900635, -0.30626389384269714, -1.0440123081207275, -1.383367657661438, 0.602783203125, 0.177001953125, -0.698486328125
340, 2461611058, -6.32039737701416, 1.9342349767684937, 7.070699214935303, -0.3371143639087677, -1.005631446838379, -1.4574395418167114, 0.603759765625, 0.17919921875, -0.698486328125
341, 2461627725, -6.325018405914307, 1.9414172172546387, 7.061062812805176, -0.2785637080669403, -1.0536552667617798, -1.3012148141860962, 0.604736328125, 0.176513671875, -0.698974609375
342, 2461644392, -6.327235698699951, 1.9416073560714722, 7.059958457946777, -0.28961560130119324, -1.0578429698944092, -1.3378666639328003, 0.604248046875, 0.176025390625, -0.699951171875
343, 2461661059, -6.319206714630127, 1.9289535284042358, 7.050727844238281, -0.18453951179981232, -0.9036928415298462, -1.3290174007415771, 0.604248046875, 0.176513671875, -0.699951171875
344, 2461677726, -6.316777229309082, 1.9295506477355957, 7.079508304595947, -0.09087386727333069, -0.8698328733444214, -1.2902270555496216, 0.604248046875, 0.177490234375, -0.701416015625
345, 2461694393, -6.311708450317383, 1.9527595043182373, 7.0671234130859375, -0.10305269807577133, -0.8684370517730713, -1.2384508848190308, 0.605224609375, 0.177490234375, -0.699951171875
346, 2461711060, -6.3219380378723145, 1.9408180713653564, 7.060975551605225, -0.0828186497092247, -0.8438999652862549, -1.3369700908660889, 0.603759765625, 0.177978515625, -0.698974609375
347, 2461727727, -6.319356918334961, 1.9312597513198853, 7.0541205406188965, -0.178200364112854, -0.8344746232032776, -1.2347882986068726, 0.603271484375, 0.177978515625, -0.699951171875
348, 2461744394, -6.331007480621338, 1.9495618343353271, 7.048279762268066, -0.06095822528004646, -0.7665624618530273, -1.2712222337722778, 0.60546875, 0.175537109375, -0.699462890625
349, 2461761061, -6.30849552154541, 1.9358172416687012, 7.037672996520996, -0.01940161921083927, -0.6801580190658569, -1.2444697618484497, 0.605224609375, 0.177978515625, -0.701904296875
350, 2461777728, -6.320136547088623, 1.9448833465576172, 7.0674567222595215, -0.0831260085105896, -0.6946548223495483, -1.2753971815109253, 0.603759765625, 0.175048828125, -0.700927734375
351, 2461794395, -6.330319404602051, 1.933394432067871, 7.063205242156982, -0.10558836162090302, -0.7748225927352905, -1.3527733087539673, 0.605224609375, 0.1787109375, -0.700927734375
352, 2461811062, -6.32789945602417, 1.930808424949646, 7.048161506652832, -0.12200609594583511, -0.7567912936210632, -1.375491738319397, 0.602783203125, 0.177490234375, -0.698974609375
353, 2461827729, -6.333315849304199, 1.9413182735443115, 7.0862298011779785, -0.2696632742881775, -0.8864682912826538, -1.3547323942184448, 0.605712890625, 0.177490234375, -0.700439453125
354, 2461844396, -6.326601982116699, 1.9540059566497803, 7.063310623168945, -0.20268608629703522, -0.744087278842926, -1.3344982862472534, 0.604248046875, 0.175537109375, -0.702392578125
355, 2461861063, -6.325343132019043, 1.9254626035690308, 7.068852424621582, -0.12122491002082825, -0.76617830991745, -1.270748496055603, 0.604736328125, 0.17919921875, -0.701416015625
356, 2461877730, -6.3368306159973145, 1.9467544555664062, 7.0401740074157715, -0.13919222354888916, -0.7884357571601868, -1.2742959260940552, 0.603759765625, 0.176025390625, -0.699462890625
357, 2461894397, -6.318831443786621, 1.9421321153640747, 7.044988632202148, -0.13716882467269897, -0.758648157119751, -1.353118896484375, 0.604248046875, 0.176513671875, -0.698974609375
358, 2461911064, -6.322631359100342, 1.9472670555114746, 7.068075180053711, -0.13552960753440857, -0.7246217727661133, -1.2523330450057983, 0.605224609375, 0.177490234375, -0.700439453125
359, 2461927731, -6.322052001953125, 1.9486980438232422, 7.0492987632751465, -0.12324830889701843, -0.6665833592414856, -1.3193613290786743, 0.602783203125, 0.177001953125, -0.698974609375
360, 2461944398, -6.339433670043945, 1.9428954124450684, 7.0702972412109375, -0.11908624321222305, -0.6195199489593506, -1.364990234375, 0.602294921875, 0.178466796875, -0.698974609375
361, 2461961065, -6.320174217224121, 1.9335038661956787, 7.041500568389893, -0.19598840177059174, -0.7080758810043335, -1.4325439929962158, 0.605224609375, 0.177978515625, -0.700927734375
362, 2461977732, -6.328680992126465, 1.9452017545700073, 7.062986373901367, -0.06615760922431946, -0.6780577898025513, -1.2919814586639404, 0.605224609375, 0.17919921875, -0.701416015625
363, 2461994399, -6.333325386047363, 1.939758062362671, 7.036819934844971, -0.08304917067289352, -0.6350540518760681, -1.410401701927185, 0.602294921875, 0.178466796875, -0.701904296875
364, 2462011066, -6.321610450744629, 1.9333988428115845, 7.0560526847839355, -0.1168963685631752, -0.6216458082199097, -1.341657280921936, 0.604248046875, 0.176025390625, -0.698974609375
365, 2462027733, -6.328707218170166, 1.9515469074249268, 7.0443925857543945, -0.1294337660074234, -0.661716878414154, -1.3779633045196533, 0.60498046875, 0.175537109375, -0.699462890625
366, 2462044400, -6.323074817657471, 1.9468928575515747, 7.06741189956665, -0.2190910428762436, -0.7327537536621094, -1.5069745779037476, 0.603759765625, 0.177490234375, -0.699462890625
367, 2462061067, -6.330700397491455, 1.9428203105926514, 7.058911323547363, -0.19999676942825317, -0.7131728529930115, -1.396289348602295, 0.604736328125, 0.177001953125, -0.698974609375
368, 2462077734, -6.343774318695068, 1.9224439859390259, 7.071800708770752, -0.1514735072851181, -0.7067312598228455, -1.3886950016021729, 0.604248046875, 0.177001953125, -0.699951171875
369, 2462094401, -6.33041524887085, 1.9368096590042114, 7.050570487976074, -0.10658726096153259, -0.5616609454154968, -1.3955975770950317, 0.605224609375, 0.177490234375, -0.698974609375
370, 2462111068, -6.327930450439453, 1.9301146268844604, 7.061795711517334, -0.3026140332221985, -0.6153066754341125, -1.339685082435608, 0.604736328125, 0.177001953125, -0.69775390625
371, 2462127735, -6.325187683105469, 1.9345524311065674, 7.058772563934326, -0.18228557705879211, -0.7322415113449097, -1.3525426387786865, 0.603759765625, 0.17822265625, -0.700927734375
372, 2462144402, -6.328415393829346, 1.9400233030319214, 7.077010631561279, -0.2219596803188324, -0.8038674592971802, -1.2824920415878296, 0.604248046875, 0.177978515625, -0.701904296875
373, 2462161069, -6.325283050537109, 1.9514912366867065, 7.060583114624023, -0.12682127952575684, -0.7884229421615601, -1.3175684213638306, 0.604248046875, 0.176513671875, -0.700927734375
374, 2462177736, -6.334550380706787, 1.9575387239456177, 7.051968097686768, -0.27484986186027527, -0.804187536239624, -1.4003487825393677, 0.602783203125, 0.176513671875, -0.700927734375
375, 2462194403, -6.317798614501953, 1.9448047876358032, 7.054168224334717, -0.2731466591358185, -0.8916549682617188, -1.4623700380325317, 0.604736328125, 0.176513671875, -0.699462890625
376, 2462211070, -6.3374762535095215, 1.9468787908554077, 7.0725321769714355, -0.305905282497406, -0.8657733201980591, -1.4620240926742554, 0.605224609375, 0.176513671875, -0.700439453125
377, 2462227737, -6.334197998046875, 1.933656096458435, 7.0513014793396, -0.3569001853466034, -0.8582174777984619, -1.3860185146331787, 0.604736328125, 0.177978515625, -0.698974609375
378, 2462244404, -6.322860240936279, 1.9482606649398804, 7.077081203460693, -0.3724598288536072, -0.9765609502792358, -1.5037599802017212, 0.603271484375, 0.177001953125, -0.701416015625
379, 2462261071, -6.321807384490967, 1.9227908849716187, 7.049030303955078, -0.3650706112384796, -1.0784099102020264, -1.4973056316375732, 0.603759765625, 0.177490234375, -0.699951171875
380, 2462277738, -6.328225135803223, 1.9423859119415283, 7.0726318359375, -0.446647047996521, -1.1269203424453735, -1.506103515625, 0.603759765625, 0.177490234375, -0.702392578125
381, 2462294405, -6.335105895996094, 1.9295978546142578, 7.0569610595703125, -0.44791483879089355, -1.0146982669830322, -1.4826935529708862, 0.604736328125, 0.17822265625, -0.700439453125
382, 2462311072, -6.322587966918945, 1.9346671104431152, 7.080265998840332, -0.3705005347728729, -0.9952327609062195, -1.4379609823226929, 0.603759765625, 0.177978515625, -0.699951171875
383, 2462327739, -6.331540107727051, 1.9332443475723267, 7.053508281707764, -0.3153947591781616, -0.8938447833061218, -1.4255515336990356, 0.6064453125, 0.176513671875, -0.701416015625
384, 2462344406, -6.324709415435791, 1.925616979598999, 7.053767204284668, -0.3874945640563965, -0.911120593547821, -1.4430580139160156, 0.600341796875, 0.177490234375, -0.701904296875
385, 2462361073, -6.352106094360352, 1.9342849254608154, 7.063164234161377, -0.3847540020942688, -0.8796682357788086, -1.439766764640808, 0.601318359375, 0.178466796875, -0.703125
386, 2462377740, -6.338648796081543, 1.9491987228393555, 7.034021377563477, -0.36469921469688416, -0.9912244081497192, -1.463099718093872, 0.605224609375, 0.176513671875, -0.702880859375
387, 2462394407, -6.312438488006592, 1.9408292770385742, 7.045601844787598, -0.37571269273757935, -0.9169729948043823, -1.4021674394607544, 0.604736328125, 0.177978515625, -0.701416015625
388, 2462411074, -6.3344807624816895, 1.9269601106643677, 7.06507682800293, -0.328226774930954, -0.956416666507721, -1.429316759109497, 0.604248046875, 0.17822265625, -0.700927734375
389, 2462427741, -6.338772773742676, 1.9299777746200562, 7.075191020965576, -0.2768092751502991, -0.9351966381072998, -1.4003105163574219, 0.603759765625, 0.17822265625, -0.700927734375
390, 2462444408, -6.314094066619873, 1.9349071979522705, 7.029252052307129, -0.34381207823753357, -0.9249386787414551, -1.4623444080352783, 0.602783203125, 0.17919921875, -0.700927734375
391, 2462461075, -6.325966835021973, 1.926093578338623, 7.066827297210693, -0.27096959948539734, -0.847383439540863, -1.4267042875289917, 0.605712890625, 0.177490234375, -0.701904296875
392, 2462477742, -6.332493305206299, 1.9394725561141968, 7.057042121887207, -0.3446957468986511, -0.8931021094322205, -1.5303460359573364, 0.604736328125, 0.17822265625, -0.701904296875
393, 2462494409, -6.329834938049316, 1.9265865087509155, 7.031277179718018, -0.4210984408855438, -0.6967935562133789, -1.4705405235290527, 0.603271484375, 0.17919921875, -0.700439453125
394, 2462511076, -6.317241191864014, 1.927098274230957, 7.063265323638916, -0.33450186252593994, -0.6517279744148254, -1.5355839729309082, 0.603759765625, 0.176025390625, -0.699462890625
395, 2462527743, -6.329031944274902, 1.9466772079467773, 7.033520221710205, -0.31023380160331726, -0.5653746724128723, -1.4936301708221436, 0.603271484375, 0.17822265625, -0.698974609375
396, 2462544410, -6.327723503112793, 1.9208554029464722, 7.057664394378662, -0.23871035873889923, -0.6335813403129578, -1.4528931379318237, 0.603759765625, 0.1787109375, -0.699462890625
397, 2462561077, -6.322062969207764, 1.9277735948562622, 7.0594353675842285, -0.24291084706783295, -0.6303157806396484, -1.5135825872421265, 0.602783203125, 0.1796875, -0.700439453125
398, 2462577744, -6.31491756439209, 1.9154366254806519, 7.069184303283691, -0.1746273785829544, -0.6447868943214417, -1.4174067974090576, 0.603759765625, 0.17919921875, -0.700927734375
399, 2462594411, -6.326268196105957, 1.9146252870559692, 7.04733943939209, -0.2554226517677307, -0.7894090414047241, -1.43691086769104, 0.6005859375, 0.1796875, -0.702392578125
400, 2462611078, -6.326559543609619, 1.9089139699935913, 7.0512495040893555, -0.2611086964607239, -0.6969856023788452, -1.3286076784133911, 0.603271484375, 0.178466796875, -0.702880859375
401, 2462627745, -6.330394744873047, 1.8999114036560059, 7.056093692779541, -0.065786212682724, -0.6811185479164124, -1.2198176383972168, 0.602783203125, 0.177490234375, -0.697998046875
402, 2462644412, -6.32716178894043, 1.9245226383209229, 7.05195951461792, -0.03257935121655464, -0.7011604905128479, -1.2012995481491089, 0.606689453125, 0.17919921875, -0.699951171875
403, 2462661079, -6.319514751434326, 1.894761085510254, 7.03809928894043, -0.08253692835569382, -0.8953431248664856, -1.0807793140411377, 0.603759765625, 0.17822265625, -0.699951171875
404, 2462677746, -6.354768753051758, 1.9343278408050537, 7.026856422424316, 0.08762744814157486, -1.2850531339645386, -0.9352092742919922, 0.603759765625, 0.17822265625, -0.699951171875
405, 2462694413, -6.338168144226074, 1.9137451648712158, 7.0529327392578125, 0.4231409728527069, -1.236965298652649, -0.5745313167572021, 0.60595703125, 0.176025390625, -0.699462890625
406, 2462711080, -6.301050186157227, 1.9190744161605835, 7.088796615600586, 0.45418357849121094, -1.5155802965164185, -0.44035911560058594, 0.604248046875, 0.177490234375, -0.700439453125
407, 2462727747, -6.31275749206543, 1.8667718172073364, 7.060184478759766, 0.32668358087539673, -1.5404757261276245, -0.4674701690673828, 0.603271484375, 0.177978515625, -0.701904296875
408, 2462744414, -6.34507942199707, 1.9120995998382568, 7.068573474884033, 1.1252235174179077, -1.540488600730896, 0.1744544953107834, 0.602783203125, 0.178466796875, -0.702880859375
409, 2462761081, -6.35490083694458, 1.9449516534805298, 7.050500869750977, 2.2531299591064453, -1.286064863204956, 0.6076292991638184, 0.602783203125, 0.176513671875, -0.699951171875
410, 2462777748, -6.300175666809082, 2.0345675945281982, 7.064303398132324, 2.221229314804077, -1.284220576286316, 0.5550206899642944, 0.602783203125, 0.174072265625, -0.7041015625
411, 2462794415, -6.28838586807251, 1.9956902265548706, 7.063953876495361, 2.2728514671325684, -1.5012755393981934, 0.6029036641120911, 0.602783203125, 0.173583984375, -0.700927734375
412, 2462811082, -6.292847156524658, 1.9585521221160889, 7.075112342834473, 3.094494342803955, -0.7091900110244751, 0.9905519485473633, 0.602783203125, 0.174560546875, -0.700439453125
413, 2462827749, -6.2945733070373535, 1.9493508338928223, 7.096502780914307, 3.51235294342041, -0.26997068524360657, 1.09921395778656, 0.603271484375, 0.171875, -0.701416015625
414, 2462844416, -6.298696041107178, 1.9913742542266846, 7.072137355804443, 3.8230087757110596, -0.14638939499855042, 1.4466627836227417, 0.603515625, 0.17236328125, -0.701904296875
415, 2462861083, -6.336606502532959, 1.933273434638977, 7.0705485343933105, 4.860528945922852, 0.4667338728904724, 1.9984760284423828, 0.6015625, 0.16943359375, -0.700439453125
416, 2462877750, -6.336108684539795, 1.9694050550460815, 7.0644426345825195, 5.527277946472168, 0.6582528352737427, 2.750861644744873, 0.603515625, 0.167724609375, -0.701904296875
417, 2462894417, -6.30824089050293, 2.043977737426758, 7.027517795562744, 5.525703430175781, 0.49501028656959534, 2.7639241218566895, 0.60400390625, 0.165771484375, -0.701416015625
418, 2462911084, -6.319816589355469, 2.110757827758789, 6.982767105102539, 3.9015121459960938, -0.35430049896240234, 2.137373447418213, 0.60400390625, 0.165771484375, -0.701416015625
419, 2462927751, -6.313176155090332, 2.1431984901428223, 7.013198375701904, 2.874033212661743, -1.283798336982727, 1.3446218967437744, 0.6044921875, 0.163330078125, -0.69921875
420, 2462944418, -6.33808708190918, 2.1112749576568604, 7.020571231842041, 2.5975568294525146, -1.283644437789917, 0.8030413389205933, 0.603515625, 0.16259765625, -0.69873046875
421, 2462961085, -6.278115272521973, 2.1708693504333496, 7.007235050201416, 1.5482556819915771, -1.8425265550613403, -0.003893130226060748, 0.603515625, 0.16162109375, -0.701416015625
422, 2462977752, -6.347535133361816, 2.1304922103881836, 7.053401947021484, 0.6587522625923157, -1.4860233068466187, -0.7918550372123718, 0.60302734375, 0.16162109375, -0.701416015625
423, 2462994419, -6.284739971160889, 2.147047758102417, 7.065738201141357, 0.2999055087566376, -1.3695237636566162, -1.1688995361328125, 0.603515625, 0.162841796875, -0.701904296875
424, 2463011086, -6.289581298828125, 2.1476690769195557, 7.060448169708252, 0.39113789796829224, -0.9374374747276306, -1.6159179210662842, 0.604736328125, 0.1611328125, -0.702880859375
425, 2463027753, -6.275566101074219, 2.1708827018737793, 7.033284664154053, 0.4443483352661133, -0.48182615637779236, -2.008458375930786, 0.60400390625, 0.16162109375, -0.69970703125
426, 2463044420, -6.296933174133301, 2.243823766708374, 7.000019550323486, -0.6412138938903809, -0.6399717330932617, -3.1171164512634277, 0.6025390625, 0.16162109375, -0.700439453125
427, 2463061087, -6.269599914550781, 2.2920522689819336, 7.035487174987793, -2.2425713539123535, -1.4611022472381592, -4.627177715301514, 0.6015625, 0.163330078125, -0.700927734375
428, 2463077754, -6.266295433044434, 2.227881908416748, 7.01055908203125, -4.281061172485352, -1.8113431930541992, -6.701781749725342, 0.60302734375, 0.164306640625, -0.701904296875
429, 2463094421, -6.2781524658203125, 2.1816046237945557, 7.034863471984863, -5.4384613037109375, -1.1157279014587402, -8.201854705810547, 0.6025390625, 0.166259765625, -0.701416015625
430, 2463111088, -6.27433967590332, 1.9652413129806519, 7.075438976287842, -4.8043036460876465, 1.960339069366455, -8.571215629577637, 0.60205078125, 0.1708984375, -0.699462890625
431, 2463127755, -6.199027061462402, 1.6624895334243774, 7.2957892417907715, -2.2509982585906982, 7.290663719177246, -7.273779392242432, 0.60546875, 0.171875, -0.69921875
432, 2463144422, -6.066226005554199, 0.817592978477478, 7.717705249786377, 2.491586923599243, 18.021991729736328, -2.4773013591766357, 0.607421875, 0.171875, -0.69677734375
433, 2463161089, -6.087380886077881, -0.018891140818595886, 8.114937782287598, 10.430242538452148, 35.94479751586914, 8.714836120605469, 0.61279296875, 0.1689453125, -0.6884765625
434, 2463177756, -5.793766021728516, 1.381964921951294, 9.400359153747559, 17.540037155151367, 58.447349548339844, 30.880464553833008, 0.6171875, 0.161865234375, -0.67578125
435, 2463194423, 3.7489843368530273, -1.1517579555511475, 17.475507736206055, -105.73149108886719, 104.51298522949219, 92.61616516113281, 0.626708984375, 0.14990234375, -0.654052734375
436, 2463211090, 1.3082530498504639, -20.10702896118164, 28.815200805664062, -173.7739715576172, 116.76380920410156, 151.9085693359375, 0.637939453125, 0.13671875, -0.625244140625
437, 2463227757, -2.1241376399993896, -27.190452575683594, 35.26889419555664, -126.28153991699219, 22.843595504760742, 103.16514587402344, 0.639892578125, 0.120361328125, -0.616943359375
438, 2463244424, -5.3429274559021, -29.413270950317383, 36.456581115722656, -103.23546600341797, -127.28907012939453, -43.2401123046875, 0.62939453125, 0.127685546875, -0.64306640625
439, 2463261091, -7.100105285644531, -24.316612243652344, 32.021339416503906, -59.150238037109375, -229.83212280273438, -160.89431762695312, 0.609619140625, 0.161865234375, -0.695556640625
440, 2463277758, -10.454154014587402, -14.354987144470215, 28.100561141967773, -42.39553451538086, -280.3587951660156, -212.49374389648438, 0.57470703125, 0.207763671875, -0.76123046875
441, 2463294425, -13.169882774353027, -7.3769636154174805, 24.366741180419922, -66.20449829101562, -293.9613952636719, -221.08653259277344, 0.53076171875, 0.260009765625, -0.827392578125
442, 2463311092, -15.070828437805176, -3.803406238555908, 20.799880981445312, -90.71214294433594, -273.5503234863281, -212.22340393066406, 0.481201171875, 0.3154296875, -0.88623046875
443, 2463327759, -16.678613662719727, -1.1200883388519287, 18.980478286743164, -95.46208953857422, -240.6553192138672, -207.67091369628906, 0.427001953125, 0.368896484375, -0.938720703125
444, 2463344426, -18.347978591918945, 1.454770803451538, 17.155242919921875, -78.84500885009766, -228.05764770507812, -199.9141387939453, 0.371337890625, 0.421875, -0.978271484375
445, 2463361093, -17.75950050354004, 4.887816905975342, 13.259315490722656, -72.8551025390625, -227.2827911376953, -190.48423767089844, 0.30712890625, 0.466552734375, -1.012939453125
446, 2463377760, -16.60064125061035, 7.151733875274658, 10.294306755065918, -72.16554260253906, -217.30467224121094, -174.19747924804688, 0.243896484375, 0.509765625, -1.042236328125
447, 2463394427, -16.666629791259766, 10.732662200927734, 7.09441614151001, -75.81246185302734, -210.92068481445312, -153.1227264404297, 0.178955078125, 0.545166015625, -1.0615234375
448, 2463411094, -19.14449119567871, 15.171630859375, 1.6444740295410156, -91.4771499633789, -203.80819702148438, -131.92965698242188, 0.115478515625, 0.581787109375, -1.070556640625
449, 2463427761, -22.853181838989258, 14.253097534179688, -6.973283290863037, -95.72828674316406, -178.00914001464844, -123.26553344726562, 0.053466796875, 0.61572265625, -1.07421875
450, 2463444428, -23.292734146118164, 13.133964538574219, -14.197726249694824, -23.42066764831543, -130.54653930664062, -129.51441955566406, -4.8828125E-4, 0.63525390625, -1.080322265625
451, 2463461095, -23.20984649658203, 17.637861251831055, -16.593189239501953, 38.42129898071289, -81.53458404541016, -139.81268310546875, -0.03955078125, 0.6337890625, -1.08935546875
452, 2463477762, -21.93256378173828, 20.044357299804688, -17.591188430786133, 44.275386810302734, -43.29972457885742, -125.2830581665039, -0.0712890625, 0.627685546875, -1.09521484375
453, 2463494429, -18.648448944091797, 19.195911407470703, -18.194849014282227, 38.540035247802734, 13.51368522644043, -64.56483459472656, -0.081298828125, 0.619384765625, -1.100830078125
454, 2463511096, -17.10595703125, 17.522626876831055, -15.934834480285645, 24.42400550842285, 88.21407318115234, 15.474081039428711, -0.064208984375, 0.61181640625, -1.10205078125
455, 2463527763, -16.915122985839844, 14.051691055297852, -11.89678955078125, 9.908631324768066, 152.1259765625, 81.78334045410156, -0.0234375, 0.605224609375, -1.09521484375
456, 2463544430, -18.125141143798828, 10.774334907531738, -7.3300628662109375, 14.392487525939941, 204.9862518310547, 122.87152862548828, 0.0390625, 0.594970703125, -1.0859375
457, 2463561097, -20.73277473449707, 9.152174949645996, -1.927072525024414, 26.55469512939453, 232.83082580566406, 122.68051147460938, 0.110595703125, 0.58154296875, -1.068359375
458, 2463577764, -21.110843658447266, 8.398119926452637, 3.1595969200134277, 39.01430892944336, 229.6802520751953, 97.47116088867188, 0.178955078125, 0.55810546875, -1.04833984375
459, 2463594431, -18.8488826751709, 7.913907051086426, 7.102893829345703, 57.21283721923828, 229.31849670410156, 77.90251922607422, 0.241455078125, 0.537353515625, -1.025634765625
460, 2463611098, -17.603445053100586, 7.944964408874512, 10.975457191467285, 74.5613021850586, 239.69598388671875, 79.14299774169922, 0.302001953125, 0.508544921875, -0.993896484375
461, 2463627765, -17.020341873168945, 6.782509803771973, 15.190302848815918, 88.85905456542969, 249.64151000976562, 90.95594024658203, 0.364013671875, 0.4736328125, -0.95849609375
462, 2463644432, -13.177453994750977, 4.876743316650391, 18.800397872924805, 100.8532485961914, 257.3536682128906, 115.05612182617188, 0.42236328125, 0.43408203125, -0.91796875
463, 2463661099, -7.883426189422607, 1.996569037437439, 23.428741455078125, 104.70443725585938, 271.6974792480469, 144.63951110839844, 0.4794921875, 0.390869140625, -0.865966796875
464, 2463677766, -4.064271926879883, -0.8933601975440979, 29.421798706054688, 100.1089096069336, 256.6571960449219, 168.46041870117188, 0.525390625, 0.338623046875, -0.813720703125
465, 2463694433, -2.660759925842285, -3.952970027923584, 32.49993133544922, 73.88164520263672, 196.31980895996094, 177.24484252929688, 0.563720703125, 0.291748046875, -0.765625
466, 2463711100, -0.5940665602684021, -9.865647315979004, 30.959829330444336, 67.15410614013672, 120.9629135131836, 164.18101501464844, 0.584228515625, 0.24755859375, -0.732421875
467, 2463727767, 0.6884345412254333, -13.103572845458984, 26.781719207763672, 96.90157318115234, 64.49752044677734, 138.82737731933594, 0.595458984375, 0.203125, -0.714111328125
468, 2463744434, -1.0998047590255737, -12.506743431091309, 24.700273513793945, 119.34093475341797, 38.67387771606445, 107.20874786376953, 0.598388671875, 0.166748046875, -0.703857421875
469, 2463761101, -4.192126750946045, -9.460963249206543, 22.52307891845703, 100.2812728881836, 15.697049140930176, 78.84051513671875, 0.599609375, 0.134033203125, -0.698974609375
470, 2463777768, -4.808287143707275, -8.247881889343262, 17.877696990966797, 68.94910430908203, 6.22463321685791, 57.451290130615234, 0.6005859375, 0.113525390625, -0.6923828125
471, 2463794435, -4.917913436889648, -3.380342960357666, 14.015717506408691, 55.21907424926758, 17.730823516845703, 48.974037170410156, 0.6005859375, 0.093017578125, -0.689453125
472, 2463811102, -3.186175584793091, 1.0879111289978027, 12.426758766174316, -64.70335388183594, 18.02277946472168, 11.003132820129395, 0.60107421875, 0.09716796875, -0.6845703125
473, 2463827769, -4.459377288818359, -4.843114852905273, 14.01818561553955, -142.6261444091797, 10.408060073852539, -12.137842178344727, 0.606201171875, 0.11572265625, -0.687255859375
474, 2463844436, -2.497412919998169, -11.664511680603027, 13.230391502380371, -121.92349243164062, 7.737366676330566, -47.46000289916992, 0.609619140625, 0.144287109375, -0.68798828125
475, 2463861103, -6.451258182525635, -5.521810054779053, 9.426409721374512, -58.97793197631836, 36.13795852661133, -66.58558654785156, 0.61328125, 0.170654296875, -0.682861328125
476, 2463877770, -9.735833168029785, 1.4489392042160034, 6.376644134521484, -51.049137115478516, 23.76685905456543, -37.29214859008789, 0.61865234375, 0.18603515625, -0.678466796875
477, 2463894437, -8.62486457824707, 1.12202787399292, 7.730857849121094, -27.696455001831055, -24.972631454467773, -12.309427261352539, 0.6162109375, 0.195068359375, -0.6826171875
478, 2463911104, -6.754831314086914, 2.2549691200256348, 7.473994731903076, -13.385616302490234, -33.35591506958008, 0.32929760217666626, 0.610595703125, 0.2001953125, -0.689453125
479, 2463927771, -6.482478618621826, 1.9915523529052734, 7.326568126678467, -9.118839263916016, -26.678850173950195, 1.63826322555542, 0.60888671875, 0.1982421875, -0.697021484375
480, 2463944438, -6.240703582763672, 1.8010218143463135, 7.361216068267822, -5.431295394897461, -18.489919662475586, 1.0976145267486572, 0.603759765625, 0.2001953125, -0.70361328125
481, 2463961105, -6.243968486785889, 1.603664755821228, 7.333547592163086, -2.4996984004974365, -11.02440357208252, 1.2802194356918335, 0.601806640625, 0.197998046875, -0.703125
482, 2463977772, -6.256994724273682, 1.6826162338256836, 7.275244235992432, 0.5095838904380798, -5.698646545410156, 2.1781232357025146, 0.602294921875, 0.20068359375, -0.707275390625
483, 2463994439, -6.3063507080078125, 1.8106143474578857, 7.136494159698486, 1.6042453050613403, -2.968947410583496, 2.250133514404297, 0.600341796875, 0.197021484375, -0.706298828125
484, 2464011106, -6.315206527709961, 1.836106538772583, 7.148461818695068, 1.4791141748428345, -2.1867480278015137, 1.7832266092300415, 0.599853515625, 0.198486328125, -0.705322265625
485, 2464027773, -6.317802906036377, 1.8263660669326782, 7.12462854385376, 1.5826152563095093, -1.4221707582473755, 1.6946707963943481, 0.601318359375, 0.195556640625, -0.707275390625
486, 2464044440, -6.3257341384887695, 1.894765019416809, 7.058382987976074, 1.2942290306091309, -1.193142056465149, 1.3809024095535278, 0.599365234375, 0.1953125, -0.706787109375
487, 2464061107, -6.328202724456787, 1.9268393516540527, 7.105893611907959, 0.9764009714126587, -1.0757719278335571, 0.6542187929153442, 0.599365234375, 0.193359375, -0.707275390625
488, 2464077774, -6.300081253051758, 1.850980281829834, 7.103521823883057, 0.45084109902381897, -0.8994923830032349, 0.030421482399106026, 0.599365234375, 0.19482421875, -0.706298828125
489, 2464094441, -6.301570415496826, 1.8744583129882812, 7.107236385345459, 0.3291679918766022, -0.5865435600280762, -0.15052583813667297, 0.598388671875, 0.1943359375, -0.706787109375
490, 2464111108, -6.326488494873047, 1.8940057754516602, 7.094583511352539, 0.05835212767124176, -0.18106897175312042, -0.6647008061408997, 0.600830078125, 0.193359375, -0.70361328125
491, 2464127775, -6.343380451202393, 1.8863714933395386, 7.091711044311523, -0.25803515315055847, 0.12162831425666809, -1.163316011428833, 0.600341796875, 0.1943359375, -0.705810546875
492, 2464144442, -6.35352087020874, 1.793615698814392, 7.112452030181885, -0.5002416968345642, 0.100113645195961, -1.3276344537734985, 0.597900390625, 0.193359375, -0.706787109375
493, 2464161109, -6.356365203857422, 1.8111612796783447, 7.129140853881836, -0.34447798132896423, 0.10341767966747284, -1.3443337678909302, 0.599365234375, 0.19287109375, -0.707275390625
494, 2464177776, -6.343496799468994, 1.8215879201889038, 7.110681056976318, -0.4401542842388153, 0.09423552453517914, -1.4497556686401367, 0.601318359375, 0.193359375, -0.70458984375
495, 2464194443, -6.345077037811279, 1.8589146137237549, 7.096972942352295, -0.6575932502746582, 0.0011461683316156268, -1.674468755722046, 0.601318359375, 0.19384765625, -0.705078125
496, 2464211110, -6.336411476135254, 1.764709711074829, 7.091324806213379, -0.8622002601623535, 0.11902861297130585, -1.8445240259170532, 0.599853515625, 0.196044921875, -0.705322265625
497, 2464227777, -6.347289562225342, 1.889991283416748, 7.058708190917969, -1.500225305557251, -0.19683359563350677, -2.1998233795166016, 0.6025390625, 0.19384765625, -0.70458984375
498, 2464244444, -6.347788333892822, 1.895498514175415, 7.058870315551758, -2.311969041824341, -0.9362083673477173, -2.9112167358398438, 0.60302734375, 0.19384765625, -0.7041015625
499, 2464261111, -6.349978446960449, 1.7609926462173462, 7.090895652770996, -2.546760320663452, -1.6173523664474487, -2.9588685035705566, 0.599853515625, 0.196533203125, -0.705810546875
500, 2464277778, -6.337043762207031, 1.7715613842010498, 7.090509414672852, -2.2535462379455566, -1.646346092224121, -2.6021735668182373, 0.600830078125, 0.195556640625, -0.705322265625
501, 2464294445, -6.305276393890381, 1.809666395187378, 7.104628562927246, -2.187042713165283, -1.1713200807571411, -2.5819649696350098, 0.601318359375, 0.196533203125, -0.70458984375
502, 2464311112, -6.346739768981934, 1.8221665620803833, 7.111104965209961, -2.0485293865203857, -0.9282042384147644, -2.698951005935669, 0.599365234375, 0.198486328125, -0.704833984375
503, 2464327779, -6.353351593017578, 1.7739351987838745, 7.051490783691406, -1.7650222778320312, -1.046995997428894, -2.4936013221740723, 0.600341796875, 0.197021484375, -0.705322265625
504, 2464344446, -6.316089630126953, 1.7326076030731201, 7.0909833908081055, -1.1066477298736572, -1.2909057140350342, -1.9536466598510742, 0.599853515625, 0.198974609375, -0.705322265625
505, 2464361113, -6.309977054595947, 1.7345494031906128, 7.124016284942627, -0.32093992829322815, -0.7878978848457336, -1.1956647634506226, 0.59912109375, 0.197509765625, -0.709716796875
506, 2464377780, -6.304009437561035, 1.7616897821426392, 7.116702556610107, 0.5122987627983093, 0.16351786255836487, -0.5190669298171997, 0.599853515625, 0.198974609375, -0.706787109375
507, 2464394447, -6.310405254364014, 1.7690836191177368, 7.083405494689941, 1.0296369791030884, 1.2230384349822998, -0.29198479652404785, 0.601318359375, 0.197509765625, -0.7041015625
508, 2464411114, -6.344282150268555, 1.8103523254394531, 7.076137542724609, 1.1144789457321167, 1.9255309104919434, -0.42080387473106384, 0.602294921875, 0.199462890625, -0.7041015625
509, 2464427781, -6.362205505371094, 1.7829900979995728, 7.05195426940918, 0.5707725286483765, 1.7580620050430298, -1.0812530517578125, 0.601318359375, 0.197509765625, -0.70361328125
510, 2464444448, -6.378708839416504, 1.7841322422027588, 7.057060718536377, -0.07635145634412766, 1.0016039609909058, -1.449230670928955, 0.600341796875, 0.195068359375, -0.70361328125
511, 2464461115, -6.376739025115967, 1.8565163612365723, 7.071710586547852, -0.5728793740272522, 0.5515375137329102, -1.975225806236267, 0.600830078125, 0.197998046875, -0.70361328125
512, 2464477782, -6.368782997131348, 1.7713497877120972, 7.055189609527588, -0.9698889851570129, -0.04482223093509674, -2.1393520832061768, 0.602783203125, 0.197998046875, -0.706298828125
513, 2464494449, -6.383256435394287, 1.7709699869155884, 7.058133602142334, -0.9183946251869202, -0.6087114214897156, -1.8306678533554077, 0.604248046875, 0.197998046875, -0.70361328125
514, 2464511116, -6.357135772705078, 1.7378522157669067, 7.0590500831604, -0.7544091939926147, -0.8515965938568115, -1.6540040969848633, 0.602294921875, 0.198974609375, -0.7041015625
515, 2464527783, -6.373830318450928, 1.7337536811828613, 7.056661128997803, -0.577220618724823, -1.2079079151153564, -1.2345706224441528, 0.603515625, 0.197509765625, -0.7021484375
516, 2464544450, -6.373489856719971, 1.7833377122879028, 7.068765640258789, -0.4064478874206543, -1.4068927764892578, -1.0885779857635498, 0.603271484375, 0.198486328125, -0.70361328125
517, 2464561117, -6.362486362457275, 1.7861803770065308, 7.06934118270874, -0.4163471758365631, -1.614662766456604, -0.9942847490310669, 0.602783203125, 0.19970703125, -0.7041015625
518, 2464577784, -6.3421406745910645, 1.7662266492843628, 7.075479984283447, -0.3803485631942749, -1.7625634670257568, -0.8726374506950378, 0.601318359375, 0.197509765625, -0.70361328125
519, 2464594451, -6.334466934204102, 1.7668204307556152, 7.072989463806152, -0.13440263271331787, -1.6583583354949951, -0.8776319622993469, 0.602783203125, 0.197509765625, -0.703125
520, 2464611118, -6.330316066741943, 1.8260406255722046, 7.082858085632324, -0.1872672140598297, -1.7377445697784424, -0.9105057120323181, 0.60400390625, 0.197021484375, -0.70263671875
521, 2464627785, -6.3413848876953125, 1.7872339487075806, 7.0833892822265625, -0.18444985151290894, -1.791313648223877, -1.0310776233673096, 0.602783203125, 0.197998046875, -0.70361328125
522, 2464644452, -6.347689628601074, 1.802451729774475, 7.082982540130615, -0.21727252006530762, -1.9004877805709839, -1.0083719491958618, 0.600341796875, 0.197998046875, -0.704833984375
523, 2464661119, -6.3356122970581055, 1.7837384939193726, 7.075427055358887, -0.14033198356628418, -1.9554529190063477, -1.0597639083862305, 0.601806640625, 0.197021484375, -0.705078125
524, 2464677786, -6.356513500213623, 1.7815659046173096, 7.0671844482421875, -0.15377865731716156, -2.1111011505126953, -1.0817652940750122, 0.603759765625, 0.196533203125, -0.70458984375
525, 2464694453, -6.335206508636475, 1.776066780090332, 7.102962970733643, -0.1038467064499855, -2.2144997119903564, -1.0313721895217896, 0.599853515625, 0.196533203125, -0.705810546875
526, 2464711120, -6.3352813720703125, 1.793350100517273, 7.107605457305908, -0.06455681473016739, -2.186159133911133, -0.9490401744842529, 0.599853515625, 0.195556640625, -0.706298828125
527, 2464727787, -6.335601329803467, 1.7725982666015625, 7.106097221374512, -0.05086681991815567, -2.299969434738159, -0.8483310341835022, 0.598388671875, 0.197021484375, -0.704833984375
528, 2464744454, -6.340126991271973, 1.773461937904358, 7.0789570808410645, 0.04333028197288513, -2.5174081325531006, -0.7571753859519958, 0.598388671875, 0.198486328125, -0.704345703125
529, 2464761121, -6.325016498565674, 1.798221230506897, 7.112756729125977, -0.01768556796014309, -2.560399055480957, -0.6716673374176025, 0.600830078125, 0.196044921875, -0.707275390625
530, 2464777788, -6.314479827880859, 1.7849308252334595, 7.0846967697143555, 0.014003744348883629, -2.6873230934143066, -0.6789798736572266, 0.598388671875, 0.1953125, -0.707763671875
531, 2464794455, -6.326927185058594, 1.8066790103912354, 7.083625316619873, -0.09248746186494827, -3.2638392448425293, -0.7555106282234192, 0.599365234375, 0.196533203125, -0.706787109375
532, 2464811122, -6.305906772613525, 1.8008251190185547, 7.102428436279297, -0.23292191326618195, -3.789501667022705, -0.8181208968162537, 0.597412109375, 0.19482421875, -0.708251953125
533, 2464827789, -6.291979789733887, 1.8099421262741089, 7.118505954742432, -0.5469463467597961, -3.929410457611084, -0.9527155756950378, 0.59912109375, 0.197998046875, -0.709716796875
534, 2464844456, -6.294169902801514, 1.7888150215148926, 7.114418029785156, -0.453063040971756, -3.641127824783325, -1.0989385843276978, 0.599365234375, 0.1953125, -0.710205078125
535, 2464861123, -6.277232646942139, 1.7727859020233154, 7.172330856323242, -0.2469320446252823, -2.959214448928833, -0.9862298369407654, 0.59716796875, 0.197509765625, -0.708251953125
536, 2464877790, -6.274372100830078, 1.7780221700668335, 7.139588356018066, 0.017832841724157333, -2.0628597736358643, -0.8071073889732361, 0.59765625, 0.19580078125, -0.709716796875
537, 2464894457, -6.273571491241455, 1.746562123298645, 7.149811267852783, 0.8180888295173645, -0.5550400018692017, -0.37796661257743835, 0.5966796875, 0.1953125, -0.71044921875
538, 2464911124, -6.293247222900391, 1.746124505996704, 7.122335433959961, 1.8792484998703003, 0.6691253781318665, 0.2360658347606659, 0.59619140625, 0.19287109375, -0.7109375
539, 2464927791, -6.29311990737915, 1.8207597732543945, 7.130115509033203, 2.114475727081299, 0.836696445941925, 0.524938702583313, 0.599365234375, 0.19384765625, -0.709228515625
540, 2464944458, -6.2920241355896, 1.8453811407089233, 7.1503400802612305, 1.7868506908416748, 0.2763802111148834, 0.2846275269985199, 0.598388671875, 0.19287109375, -0.709716796875
541, 2464961125, -6.288468837738037, 1.8221888542175293, 7.112887382507324, 1.4108307361602783, -0.3110406696796417, 0.05835213512182236, 0.59765625, 0.19482421875, -0.71044921875
542, 2464977792, -6.28228759765625, 1.883113145828247, 7.110391139984131, 1.133265733718872, -0.683487594127655, -0.12374775111675262, 0.5966796875, 0.19482421875, -0.709716796875
543, 2464994459, -6.255002498626709, 1.8421977758407593, 7.125522136688232, 1.3333011865615845, -0.28148356080055237, -0.24118198454380035, 0.597900390625, 0.190673828125, -0.711181640625
544, 2465011126, -6.290285587310791, 1.8220330476760864, 7.125945091247559, 1.6642429828643799, 0.391458123922348, -0.028891129419207573, 0.600830078125, 0.19140625, -0.709716796875
545, 2465027793, -6.296430587768555, 1.8632534742355347, 7.110848426818848, 1.6351594924926758, 0.307371586561203, 0.13373030722141266, 0.597900390625, 0.190185546875, -0.708740234375
546, 2465044460, -6.292843818664551, 1.8699356317520142, 7.12936544418335, 1.3272438049316406, -0.07590323686599731, -0.15140947699546814, 0.601318359375, 0.189697265625, -0.710205078125
547, 2465061127, -6.298793792724609, 1.8757520914077759, 7.124150276184082, 0.8801484704017639, -0.6868045330047607, -0.4532807469367981, 0.598388671875, 0.189208984375, -0.710205078125
548, 2465077794, -6.265743255615234, 1.902354121208191, 7.110110282897949, 0.5216218829154968, -0.8381372094154358, -0.7191022038459778, 0.598388671875, 0.19091796875, -0.709716796875
549, 2465094461, -6.283027648925781, 1.8007150888442993, 7.120070934295654, 1.1924439668655396, -0.07686371356248856, -0.5765033960342407, 0.597900390625, 0.190185546875, -0.710205078125
550, 2465111128, -6.278661251068115, 1.8532865047454834, 7.121365547180176, 1.4563957452774048, 0.3195120394229889, -0.5218074917793274, 0.598876953125, 0.189208984375, -0.709716796875
551, 2465127795, -6.292121887207031, 1.8190513849258423, 7.119114875793457, 1.5699751377105713, 0.1536697894334793, -0.2842752933502197, 0.599853515625, 0.188720703125, -0.706787109375
552, 2465144462, -6.301239013671875, 1.874423623085022, 7.102460861206055, 2.274529457092285, 0.5919799208641052, 0.1260336935520172, 0.598876953125, 0.186279296875, -0.708740234375
553, 2465161129, -6.300529956817627, 1.8656461238861084, 7.1035332679748535, 2.846601963043213, 0.9425154328346252, 0.5094686150550842, 0.6015625, 0.186279296875, -0.709716796875
554, 2465177796, -6.318665981292725, 1.9144799709320068, 7.0802693367004395, 2.9978833198547363, 0.7008083462715149, 0.632371187210083, 0.60009765625, 0.186279296875, -0.707275390625
555, 2465194463, -6.315219402313232, 1.9068713188171387, 7.118115425109863, 3.444389820098877, 0.8526276350021362, 0.5431622266769409, 0.6005859375, 0.1845703125, -0.7041015625
556, 2465211130, -6.314151287078857, 1.9292606115341187, 7.085914611816406, 3.885171413421631, 0.8320222496986389, 0.722899317741394, 0.59912109375, 0.185302734375, -0.70458984375
557, 2465227797, -6.299030780792236, 1.980555772781372, 7.080014705657959, 3.4001688957214355, 0.6102674007415771, 0.5437256097793579, 0.60205078125, 0.18408203125, -0.705078125
558, 2465244464, -6.288803577423096, 1.9977424144744873, 7.064785480499268, 2.712237596511841, 0.43393674492836, 0.25827205181121826, 0.60107421875, 0.18115234375, -0.70556640625
559, 2465261131, -6.30158805847168, 1.9774430990219116, 7.084015369415283, 2.1032958030700684, 0.2873040735721588, -0.21597911417484283, 0.5986328125, 0.18115234375, -0.70361328125
560, 2465277798, -6.305981159210205, 1.973089575767517, 7.063112735748291, 1.826037883758545, 0.33637794852256775, -0.42331382632255554, 0.60205078125, 0.18017578125, -0.70556640625
561, 2465294465, -6.310961723327637, 1.992274522781372, 7.051433563232422, 1.3601815700531006, 0.1940610259771347, -0.6977411508560181, 0.6015625, 0.1826171875, -0.70556640625
562, 2465311132, -6.3328962326049805, 1.9495428800582886, 7.0648345947265625, 1.1955174207687378, 0.13186059892177582, -0.8008707165718079, 0.599609375, 0.18017578125, -0.702392578125
563, 2465327799, -6.333541393280029, 1.937139630317688, 7.102818489074707, 0.9825736284255981, 0.07407833635807037, -0.7990138530731201, 0.6005859375, 0.177978515625, -0.7041015625
564, 2465344466, -6.339117527008057, 1.94777250289917, 7.068881034851074, 0.8156044483184814, 0.17428800463676453, -0.5525939464569092, 0.60009765625, 0.18017578125, -0.702392578125
565, 2465361133, -6.308704853057861, 1.9901880025863647, 7.033141136169434, 0.3654099702835083, -0.12126332521438599, -0.7109060883522034, 0.601806640625, 0.18017578125, -0.700927734375
566, 2465377800, -6.321399688720703, 1.955268383026123, 7.056643962860107, 0.27864697575569153, -0.25412920117378235, -0.9517294764518738, 0.604248046875, 0.17919921875, -0.703125
567, 2465394467, -6.343347549438477, 1.9313580989837646, 7.027327060699463, 0.007562149316072464, -0.47382211685180664, -1.0442169904708862, 0.6015625, 0.1806640625, -0.70361328125
568, 2465411134, -6.338771820068359, 1.963814377784729, 7.0256524085998535, 0.5715665817260742, -0.38393434882164, -0.7363138794898987, 0.602294921875, 0.1796875, -0.702392578125
569, 2465427801, -6.313839435577393, 1.9690369367599487, 7.0383195877075195, 0.6826616525650024, -0.5513901710510254, -0.50888592004776, 0.602294921875, 0.177978515625, -0.702392578125
570, 2465444468, -6.335979461669922, 1.991568922996521, 7.0671916007995605, 0.9602393507957458, -0.4338022470474243, -0.5328850150108337, 0.602294921875, 0.177978515625, -0.703125
571, 2465461135, -6.2709832191467285, 2.0441882610321045, 6.989720821380615, 0.646996021270752, -0.6577853560447693, -0.6540202498435974, 0.60107421875, 0.17919921875, -0.705078125
572, 2465477802, -6.3105878829956055, 1.9680516719818115, 7.012851238250732, 0.4155596196651459, -0.2414252609014511, -0.8237427473068237, 0.602783203125, 0.177001953125, -0.703369140625
573, 2465494469, -6.308355808258057, 2.0265815258026123, 6.991843223571777, 0.4559380114078522, -0.3637259304523468, -0.8648127317428589, 0.602294921875, 0.177490234375, -0.705078125
574, 2465511136, -6.322279930114746, 2.0393500328063965, 7.013698577880859, -0.010962235741317272, -0.6642013192176819, -1.2519488334655762, 0.601318359375, 0.178466796875, -0.701416015625
575, 2465527803, -6.323670387268066, 2.0008797645568848, 7.029491424560547, 0.07856055349111557, -0.7795225381851196, -1.1375880241394043, 0.603271484375, 0.1796875, -0.7041015625
576, 2465544470, -6.30391788482666, 2.0269241333007812, 7.03003454208374, 0.023326769471168518, -0.5341528654098511, -1.2169746160507202, 0.601318359375, 0.176513671875, -0.701416015625
577, 2465561137, -6.308220386505127, 2.0485079288482666, 7.014565944671631, -0.36647936701774597, -0.7523730993270874, -1.5311400890350342, 0.601806640625, 0.178955078125, -0.70361328125
578, 2465577804, -6.304230690002441, 2.0243489742279053, 7.024036884307861, -0.7493891716003418, -0.8021513819694519, -1.7275381088256836, 0.599853515625, 0.177490234375, -0.703125
579, 2465594471, -6.318415641784668, 2.0033528804779053, 7.013941764831543, -0.8647744059562683, -0.7413724660873413, -1.7576075792312622, 0.600341796875, 0.177978515625, -0.702392578125
580, 2465611138, -6.317752838134766, 1.9949908256530762, 7.035503387451172, -0.8796554207801819, -1.0129951238632202, -1.812546730041504, 0.604248046875, 0.177490234375, -0.699951171875
581, 2465627805, -6.322451591491699, 1.9957218170166016, 7.032838821411133, -1.13108229637146, -1.3140082359313965, -1.859507441520691, 0.602783203125, 0.176513671875, -0.701416015625
582, 2465644472, -6.339738368988037, 1.9998704195022583, 7.029337406158447, -1.3557953834533691, -1.6131261587142944, -1.8558834791183472, 0.602783203125, 0.17919921875, -0.702880859375
583, 2465661139, -6.316525936126709, 2.0195932388305664, 7.049666404724121, -1.5428706407546997, -1.8714048862457275, -2.0267200469970703, 0.601806640625, 0.18017578125, -0.702392578125
584, 2465677806, -6.301502227783203, 2.0007853507995605, 7.080444812774658, -1.8008673191070557, -2.06620192527771, -2.2026920318603516, 0.60205078125, 0.18017578125, -0.70458984375
585, 2465694473, -6.30659294128418, 2.0115180015563965, 7.061379909515381, -2.22217059135437, -2.376307487487793, -2.4770424365997314, 0.60009765625, 0.1796875, -0.70361328125
586, 2465711140, -6.305058479309082, 1.961855411529541, 7.064608573913574, -2.672032356262207, -2.5194191932678223, -2.7892491817474365, 0.6015625, 0.18115234375, -0.70556640625
587, 2465727807, -6.308543682098389, 1.9684581756591797, 7.062609672546387, -3.0943727493286133, -2.622074842453003, -2.895054817199707, 0.60205078125, 0.1806640625, -0.705078125
588, 2465744474, -6.328107833862305, 1.9086997509002686, 7.071603298187256, -3.2780539989471436, -2.384183645248413, -2.832418918609619, 0.60205078125, 0.18115234375, -0.70556640625
589, 2465761141, -6.309852123260498, 1.8941636085510254, 7.121323585510254, -3.0834105014801025, -2.5721426010131836, -2.710066795349121, 0.60107421875, 0.18359375, -0.70751953125
590, 2465777808, -6.298966884613037, 1.9393404722213745, 7.09861946105957, -3.019634962081909, -2.58579421043396, -2.760178327560425, 0.5986328125, 0.18408203125, -0.707275390625
591, 2465794475, -6.291874885559082, 1.9283523559570312, 7.098604202270508, -3.1662421226501465, -2.601943254470825, -3.0505497455596924, 0.599365234375, 0.185791015625, -0.709228515625
592, 2465811142, -6.284848213195801, 1.896691918373108, 7.116462707519531, -2.7294301986694336, -2.104672431945801, -2.885936737060547, 0.60009765625, 0.1826171875, -0.707763671875
593, 2465827809, -6.292288303375244, 1.8962562084197998, 7.09032678604126, -2.022916555404663, -1.2777022123336792, -2.4474470615386963, 0.599853515625, 0.187744140625, -0.707763671875
594, 2465844476, -6.291517734527588, 1.8680920600891113, 7.122561454772949, -1.3055049180984497, -0.5879523158073425, -2.094747304916382, 0.60009765625, 0.185302734375, -0.70703125
595, 2465861143, -6.3094868659973145, 1.8841159343719482, 7.10947847366333, -0.9508971571922302, -0.36605674028396606, -1.8815090656280518, 0.6005859375, 0.187744140625, -0.70654296875
596, 2465877810, -6.306580066680908, 1.910848617553711, 7.088818073272705, -0.7904846668243408, -0.4561493396759033, -1.8736330270767212, 0.60009765625, 0.188232421875, -0.70654296875
597, 2465894477, -6.317866325378418, 1.8790839910507202, 7.084042549133301, -0.8023818135261536, -0.6912226676940918, -1.7857941389083862, 0.599853515625, 0.187744140625, -0.707763671875
598, 2465911144, -6.310207843780518, 1.8923513889312744, 7.08421516418457, -0.8036752939224243, -0.8234738707542419, -1.662084937095642, 0.6025390625, 0.187744140625, -0.70654296875
599, 2465927811, -6.3028178215026855, 1.8759609460830688, 7.0991363525390625, -0.6939631700515747, -0.9947842955589294, -1.626585602760315, 0.59765625, 0.1845703125, -0.70556640625
600, 2465944478, -6.309083461761475, 1.8715767860412598, 7.0785064697265625, -0.6665705442428589, -1.0038385391235352, -1.507243275642395, 0.59912109375, 0.18505859375, -0.708251953125
601, 2465961145, -6.309092044830322, 1.8652901649475098, 7.106700420379639, -0.4747568964958191, -1.0772700309753418, -1.3954436779022217, 0.599365234375, 0.187255859375, -0.7060546875
602, 2465977812, -6.303314685821533, 1.891427755355835, 7.114255905151367, -0.4614640176296234, -0.8505337834358215, -1.3311176300048828, 0.599609375, 0.186279296875, -0.705078125
603, 2465994479, -6.319705009460449, 1.8854459524154663, 7.0657525062561035, -0.39132359623908997, -0.9392815232276917, -1.3806780576705933, 0.598388671875, 0.187744140625, -0.707275390625
604, 2466011146, -6.308926105499268, 1.8697242736816406, 7.062323570251465, -0.25628069043159485, -1.0089354515075684, -1.2987687587738037, 0.598388671875, 0.188720703125, -0.7060546875
605, 2466027813, -6.298468112945557, 1.877554178237915, 7.104057788848877, -0.09224413335323334, -0.9061515927314758, -1.1686177253723145, 0.598876953125, 0.187255859375, -0.70556640625
606, 2466044480, -6.295411109924316, 1.8840101957321167, 7.106675624847412, 0.027424797415733337, -0.7689828276634216, -1.0289517641067505, 0.598876953125, 0.188232421875, -0.709228515625
607, 2466061147, -6.293846607208252, 1.8847326040267944, 7.084192276000977, 0.03261137381196022, -0.7281434535980225, -0.9811583757400513, 0.598876953125, 0.187255859375, -0.708251953125
608, 2466077814, -6.2860894203186035, 1.9053871631622314, 7.062222003936768, 0.06928876042366028, -0.7256590127944946, -0.9635369181632996, 0.599853515625, 0.187255859375, -0.707275390625
609, 2466094481, -6.293118476867676, 1.9053869247436523, 7.096191883087158, 0.0667530968785286, -0.7912660241127014, -0.9572362899780273, 0.597900390625, 0.187255859375, -0.706787109375
610, 2466111148, -6.297493934631348, 1.912696123123169, 7.099541664123535, -0.019260751083493233, -0.9220187664031982, -1.1655315160751343, 0.597412109375, 0.187744140625, -0.7060546875
611, 2466127815, -6.296386241912842, 1.9052965641021729, 7.082338333129883, -0.12879346311092377, -0.9165376424789429, -1.251436710357666, 0.599853515625, 0.189208984375, -0.706787109375
612, 2466144482, -6.2914276123046875, 1.9086265563964844, 7.106412410736084, -0.19588595628738403, -0.9580304026603699, -1.3717395067214966, 0.597412109375, 0.185791015625, -0.706787109375
613, 2466161149, -6.294630527496338, 1.9075793027877808, 7.091975688934326, -0.25168320536613464, -0.9699529409408569, -1.4083398580551147, 0.599609375, 0.186767578125, -0.70556640625
614, 2466177816, -6.292533874511719, 1.9075685739517212, 7.094297409057617, -0.3596663475036621, -0.8622515797615051, -1.4972801208496094, 0.600341796875, 0.187744140625, -0.707763671875
615, 2466194483, -6.293155193328857, 1.8992946147918701, 7.084464073181152, -0.4278985559940338, -0.8424656987190247, -1.582570195198059, 0.597412109375, 0.186767578125, -0.707275390625
616, 2466211150, -6.268492221832275, 1.9223111867904663, 7.098293304443359, -0.4730665385723114, -0.9237603545188904, -1.7085462808609009, 0.599609375, 0.185302734375, -0.70458984375
617, 2466227817, -6.270318031311035, 1.924921989440918, 7.095061302185059, -0.7309609055519104, -1.0055290460586548, -1.9542875289916992, 0.598388671875, 0.187744140625, -0.70556640625
618, 2466244484, -6.2850518226623535, 1.8914419412612915, 7.104867458343506, -0.8991978168487549, -0.8885942101478577, -2.1078097820281982, 0.597412109375, 0.189208984375, -0.706298828125
619, 2466261151, -6.297359943389893, 1.8959366083145142, 7.093177795410156, -1.0333187580108643, -0.8829721808433533, -2.1377766132354736, 0.599365234375, 0.188720703125, -0.708740234375
620, 2466277818, -6.291637420654297, 1.8964260816574097, 7.085535049438477, -1.2945555448532104, -0.9137714505195618, -2.3891782760620117, 0.597900390625, 0.189208984375, -0.706787109375
621, 2466294485, -6.293411731719971, 1.8624986410140991, 7.103546142578125, -1.2106610536575317, -0.9734363555908203, -2.361849546432495, 0.598876953125, 0.189208984375, -0.709228515625
622, 2466311152, -6.3028435707092285, 1.8627653121948242, 7.115415573120117, -1.2505528926849365, -0.9435590505599976, -2.2739851474761963, 0.599365234375, 0.189208984375, -0.708251953125
623, 2466327819, -6.297222137451172, 1.860058307647705, 7.08846378326416, -1.3497765064239502, -1.0751954317092896, -2.3905742168426514, 0.599853515625, 0.189697265625, -0.708251953125
624, 2466344486, -6.307263374328613, 1.8538604974746704, 7.091381072998047, -1.481784462928772, -1.3900269269943237, -2.3820197582244873, 0.599365234375, 0.188720703125, -0.70458984375
625, 2466361153, -6.293563365936279, 1.8528419733047485, 7.101677894592285, -1.5368900299072266, -1.54463791847229, -2.3604793548583984, 0.598388671875, 0.19140625, -0.709228515625
626, 2466377820, -6.293485641479492, 1.8524636030197144, 7.0934553146362305, -1.598078727722168, -1.6290316581726074, -2.3533458709716797, 0.597900390625, 0.19091796875, -0.709716796875
627, 2466394487, -6.316065788269043, 1.82419753074646, 7.108282566070557, -1.4382940530776978, -1.5222139358520508, -2.2987654209136963, 0.597900390625, 0.189208984375, -0.709228515625
628, 2466411154, -6.303560256958008, 1.8283283710479736, 7.140118598937988, -1.2919045686721802, -1.4530595541000366, -2.1848015785217285, 0.599365234375, 0.19189453125, -0.708740234375
629, 2466427821, -6.293888568878174, 1.8274714946746826, 7.100313186645508, -1.0413610935211182, -1.090960144996643, -2.074129104614258, 0.598876953125, 0.19189453125, -0.708740234375
630, 2466444488, -6.295602798461914, 1.8100333213806152, 7.126253128051758, -0.7041827440261841, -0.9696455597877502, -1.7071504592895508, 0.599853515625, 0.19091796875, -0.707763671875
631, 2466461155, -6.299565315246582, 1.814118504524231, 7.112401008605957, -0.4147593080997467, -0.9992154836654663, -1.4208518266677856, 0.598388671875, 0.19140625, -0.710205078125
632, 2466477822, -6.293116092681885, 1.8365846872329712, 7.11067008972168, -0.3128591477870941, -0.9490145444869995, -1.393394947052002, 0.599365234375, 0.1923828125, -0.707763671875
633, 2466494489, -6.283352851867676, 1.8435505628585815, 7.094406604766846, -0.2015591561794281, -0.8756341934204102, -1.2519104480743408, 0.599365234375, 0.19189453125, -0.707275390625
634, 2466511156, -6.285611629486084, 1.8206689357757568, 7.140358924865723, -0.14722180366516113, -0.8464228510856628, -1.313854694366455, 0.599853515625, 0.19189453125, -0.708251953125
635, 2466527823, -6.287212371826172, 1.82211172580719, 7.1159491539001465, -0.03843185678124428, -0.8902847170829773, -1.1576939821243286, 0.598876953125, 0.189697265625, -0.710205078125
636, 2466544490, -6.288565158843994, 1.8187177181243896, 7.099365234375, -0.05422208830714226, -0.8398659825325012, -1.0932652950286865, 0.599853515625, 0.1904296875, -0.708740234375
637, 2466561157, -6.2902350425720215, 1.8389512300491333, 7.092763900756836, -0.05733402818441391, -0.995809018611908, -1.1002320051193237, 0.596923828125, 0.19189453125, -0.709716796875
638, 2466577824, -6.2842607498168945, 1.8335273265838623, 7.093783378601074, -0.09757156670093536, -1.0861449241638184, -1.095096468925476, 0.598388671875, 0.19140625, -0.709716796875
639, 2466594491, -6.281358242034912, 1.8386949300765991, 7.103152275085449, 0.03204789012670517, -0.8979685306549072, -1.1105282306671143, 0.599853515625, 0.19189453125, -0.709228515625
640, 2466611158, -6.278243541717529, 1.813143014907837, 7.1118059158325195, 0.48216545581817627, -0.49583619832992554, -0.7938016057014465, 0.598388671875, 0.193359375, -0.706787109375
641, 2466627825, -6.28662109375, 1.8767509460449219, 7.1020827293396, 0.5136691331863403, -0.34980541467666626, -0.7826472520828247, 0.598876953125, 0.190185546875, -0.710693359375
642, 2466644492, -6.285497188568115, 1.8505322933197021, 7.102912425994873, 0.5568392872810364, -0.3926810622215271, -0.8878514170646667, 0.600830078125, 0.19189453125, -0.707275390625
643, 2466661159, -6.279191493988037, 1.8408939838409424, 7.096786975860596, 0.6423088908195496, -0.03242567554116249, -0.8708957433700562, 0.597900390625, 0.190185546875, -0.708251953125
644, 2466677826, -6.285915851593018, 1.8731645345687866, 7.098483562469482, 0.7832939624786377, 0.17656752467155457, -0.7560100555419922, 0.598876953125, 0.1923828125, -0.709228515625
645, 2466694493, -6.285449028015137, 1.8682488203048706, 7.117383003234863, 0.8014917373657227, 0.3158365786075592, -0.8405959606170654, 0.598876953125, 0.189697265625, -0.709716796875
646, 2466711160, -6.2951884269714355, 1.862554669380188, 7.098993301391602, 0.47254785895347595, 0.042741190642118454, -0.9874847531318665, 0.598388671875, 0.19091796875, -0.709228515625
