sep=,
DeviceTag:,A,,,,,,,,,,,,,,,,,
FirmwareVersion:,2.2.1,,,,,,,,,,,,,,,,,
AppVersion:,2022.0.1,,,,,,,,,,,,,,,,,
SyncStatus:,Synced,,,,,,,,,,,,,,,,,
OutputRate:,60Hz,,,,,,,,,,,,,,,,,
FilterProfile:,General,,,,,,,,,,,,,,,,,
Measurement Mode:,Inertial Mode - Rate quantities (with mag),,,,,,,,,,,,,,,,,
StartTime:,2022-08-16 15:09:38.990 +0300,,,,,,,,,,,,,,,,,
© Xsens Technologies B. V. 2005-2022,,,,,,,,,,,,,,,,,,,

PacketCounter,SampleTimeFine,Acc_X,Acc_Y,Acc_Z,Gyr_X,Gyr_Y,Gyr_Z,Mag_X,Mag_Y,Mag_Z
1, 1787433, -5.284715175628662, 2.0446650981903076, 8.080924034118652, -2.379394292831421, -1.4519199132919312, -2.2662758827209473, 0.762451171875, -0.167236328125, -0.5947265625
2, 1804100, -5.295324802398682, 2.024031162261963, 8.106025695800781, -2.3725552558898926, -1.4965499639511108, -2.2200188636779785, 0.76416015625, -0.165771484375, -0.5927734375
3, 1820767, -5.296563625335693, 2.0270674228668213, 8.089348793029785, -2.3169119358062744, -1.5098686218261719, -2.224552631378174, 0.762451171875, -0.165283203125, -0.591796875
4, 1837434, -5.289852142333984, 2.053981304168701, 8.081892013549805, -2.3763976097106934, -1.5390032529830933, -2.134805679321289, 0.762451171875, -0.166748046875, -0.59423828125
5, 1854101, -5.267427444458008, 2.038848638534546, 8.082529067993164, -2.356816530227661, -1.4720642566680908, -2.18841290473938, 0.762939453125, -0.16796875, -0.59326171875
6, 1870768, -5.275847434997559, 2.031886577606201, 8.074378967285156, -2.3088951110839844, -1.4000283479690552, -2.2814254760742188, 0.76416015625, -0.166748046875, -0.59326171875
7, 1887435, -5.281576156616211, 2.0475142002105713, 8.0868558883667, -2.262561559677124, -1.3420926332473755, -2.275239944458008, 0.761962890625, -0.169921875, -0.595947265625
8, 1904102, -5.315250396728516, 2.049041509628296, 8.097288131713867, -2.22688364982605, -1.3352798223495483, -2.226742744445801, 0.761962890625, -0.165771484375, -0.5927734375
9, 1920769, -5.2937750816345215, 2.050884962081909, 8.066629409790039, -2.236795425415039, -1.3857622146606445, -2.3355965614318848, 0.762451171875, -0.167236328125, -0.59375
10, 1937436, -5.28215217590332, 2.03749942779541, 8.090011596679688, -2.2458882331848145, -1.3937280178070068, -2.3623361587524414, 0.76513671875, -0.16748046875, -0.5947265625
11, 1954103, -5.267375946044922, 2.0322518348693848, 8.094045639038086, -2.4216678142547607, -1.3154042959213257, -2.3551266193389893, 0.762939453125, -0.167724609375, -0.591796875
12, 1970770, -5.269083499908447, 2.055241584777832, 8.072142601013184, -2.3742079734802246, -1.4228112697601318, -2.3438055515289307, 0.7646484375, -0.165771484375, -0.5927734375
13, 1987437, -5.3022661209106445, 2.0711891651153564, 8.094280242919922, -2.3682143688201904, -1.2539210319519043, -2.425894021987915, 0.762451171875, -0.165771484375, -0.59326171875
14, 2004104, -5.315846920013428, 2.0035433769226074, 8.089367866516113, -2.2728323936462402, -1.1278551816940308, -2.434217929840088, 0.762939453125, -0.16796875, -0.59423828125
15, 2020771, -5.299596309661865, 2.0386505126953125, 8.07142448425293, -2.2188150882720947, -1.299562692642212, -2.32665753364563, 0.76513671875, -0.1689453125, -0.59228515625
16, 2037438, -5.29179048538208, 2.0421361923217773, 8.076761245727539, -2.2578492164611816, -1.205154299736023, -2.288878917694092, 0.76416015625, -0.16796875, -0.59423828125
17, 2054105, -5.290279388427734, 2.037923574447632, 8.063301086425781, -2.2270116806030273, -1.2637306451797485, -2.372735023498535, 0.763427734375, -0.165771484375, -0.59375
18, 2070772, -5.2766547203063965, 2.0252885818481445, 8.071915626525879, -2.2378456592559814, -1.2425616979599, -2.3537683486938477, 0.762451171875, -0.165283203125, -0.59228515625
19, 2087439, -5.313220977783203, 2.0284128189086914, 8.065558433532715, -2.151902198791504, -1.3357150554656982, -2.259129524230957, 0.760986328125, -0.165771484375, -0.5927734375
20, 2104106, -5.288161277770996, 2.0700502395629883, 8.080122947692871, -2.2204160690307617, -1.2979234457015991, -2.29437255859375, 0.763671875, -0.165771484375, -0.5947265625
21, 2120773, -5.29350471496582, 2.0450661182403564, 8.06891918182373, -2.3334197998046875, -1.4745231866836548, -2.3249545097351074, 0.762939453125, -0.166259765625, -0.59375
22, 2137440, -5.300694942474365, 2.0304410457611084, 8.089737892150879, -2.3467891216278076, -1.4081990718841553, -2.377230167388916, 0.763671875, -0.165771484375, -0.59033203125
23, 2154107, -5.283728122711182, 2.0314948558807373, 8.0960693359375, -2.231391191482544, -1.3079382181167603, -2.2942960262298584, 0.7646484375, -0.166259765625, -0.59228515625
24, 2170774, -5.308170795440674, 2.0400471687316895, 8.070836067199707, -2.213948965072632, -1.2561876773834229, -2.308946371078491, 0.76416015625, -0.165771484375, -0.591796875
25, 2187441, -5.308735370635986, 2.04972767829895, 8.066147804260254, -2.2648539543151855, -1.3736730813980103, -2.252636671066284, 0.763671875, -0.16796875, -0.590576171875
26, 2204108, -5.2962727546691895, 2.049221992492676, 8.065958023071289, -2.338017225265503, -1.4830906391143799, -2.3427555561065674, 0.76416015625, -0.166748046875, -0.59033203125
27, 2220775, -5.3010149002075195, 2.022012710571289, 8.093079566955566, -2.377012252807617, -1.2971038818359375, -2.355151653289795, 0.763671875, -0.166748046875, -0.59130859375
28, 2237442, -5.311718463897705, 2.03080415725708, 8.083985328674316, -2.2768282890319824, -1.1137299537658691, -2.260026454925537, 0.76513671875, -0.1669921875, -0.59228515625
29, 2254109, -5.30946159362793, 2.038278579711914, 8.096237182617188, -2.220902681350708, -1.3021751642227173, -2.2201597690582275, 0.762451171875, -0.166259765625, -0.59228515625
30, 2270776, -5.324840068817139, 2.0238773822784424, 8.054283142089844, -2.2330434322357178, -1.3177863359451294, -2.148277997970581, 0.76416015625, -0.165771484375, -0.59228515625
31, 2287443, -5.299253940582275, 2.052499294281006, 8.081230163574219, -2.2920804023742676, -1.4446202516555786, -2.210247755050659, 0.76416015625, -0.166259765625, -0.59326171875
32, 2304110, -5.30007266998291, 2.0597281455993652, 8.07631778717041, -2.3764231204986572, -1.3728662729263306, -2.3717615604400635, 0.76513671875, -0.166748046875, -0.59228515625
33, 2320777, -5.302665710449219, 2.0425124168395996, 8.085994720458984, -2.340975284576416, -1.253869652748108, -2.442593812942505, 0.76513671875, -0.165771484375, -0.590087890625
34, 2337444, -5.3195414543151855, 2.034719228744507, 8.08438491821289, -2.1864023208618164, -1.1942689418792725, -2.3587372303009033, 0.7666015625, -0.165283203125, -0.59228515625
35, 2354111, -5.326223373413086, 2.0356225967407227, 8.077547073364258, -2.2180469036102295, -1.2275654077529907, -2.2637782096862793, 0.7646484375, -0.165283203125, -0.589599609375
36, 2370778, -5.3327717781066895, 2.04728627204895, 8.065508842468262, -2.251842975616455, -1.2974880933761597, -2.2666471004486084, 0.76513671875, -0.1689453125, -0.589111328125
37, 2387445, -5.3209967613220215, 2.0580031871795654, 8.059270858764648, -2.337120532989502, -1.4365522861480713, -2.2790822982788086, 0.76416015625, -0.1669921875, -0.589111328125
38, 2404112, -5.314280033111572, 2.0261929035186768, 8.075397491455078, -2.2342982292175293, -1.3643757104873657, -2.171278238296509, 0.76318359375, -0.16748046875, -0.59033203125
39, 2420779, -5.302744388580322, 2.0539052486419678, 8.098224639892578, -2.223630428314209, -1.3648879528045654, -2.203319549560547, 0.7646484375, -0.166259765625, -0.590576171875
40, 2437446, -5.31318473815918, 2.0619232654571533, 8.066411972045898, -2.22297739982605, -1.3243685960769653, -2.1704840660095215, 0.76513671875, -0.165771484375, -0.590087890625
41, 2454113, -5.31942892074585, 2.041358709335327, 8.064746856689453, -2.2443127632141113, -1.3340758085250854, -2.176272392272949, 0.7646484375, -0.166259765625, -0.59130859375
42, 2470780, -5.316527843475342, 2.049614191055298, 8.047582626342773, -2.069493055343628, -1.375312328338623, -2.179781675338745, 0.767578125, -0.1669921875, -0.591064453125
43, 2487447, -5.299435615539551, 2.049520254135132, 8.063766479492188, -2.191307306289673, -1.277177095413208, -2.3092281818389893, 0.76416015625, -0.16845703125, -0.59228515625
44, 2504114, -5.320404529571533, 2.025744915008545, 8.060667037963867, -2.160456657409668, -1.3061708211898804, -2.2473349571228027, 0.7666015625, -0.1669921875, -0.591064453125
45, 2520781, -5.312201976776123, 2.0459582805633545, 8.069527626037598, -2.0988070964813232, -1.2625651359558105, -2.2381656169891357, 0.76416015625, -0.16796875, -0.589599609375
46, 2537448, -5.330061912536621, 2.0313196182250977, 8.060787200927734, -2.1873114109039307, -1.3376103639602661, -2.0719518661499023, 0.7646484375, -0.165771484375, -0.59033203125
47, 2554115, -5.317127227783203, 2.0584075450897217, 8.03665542602539, -2.2318522930145264, -1.4919911623001099, -2.1445770263671875, 0.7666015625, -0.164794921875, -0.587646484375
48, 2570782, -5.318326473236084, 2.0586750507354736, 8.06528091430664, -2.3632712364196777, -1.5355069637298584, -2.295832872390747, 0.76708984375, -0.166259765625, -0.589111328125
49, 2587449, -5.323063373565674, 2.0454535484313965, 8.052735328674316, -2.3410394191741943, -1.5162334442138672, -2.3018393516540527, 0.76416015625, -0.166748046875, -0.589599609375
50, 2604116, -5.30381441116333, 2.0574162006378174, 8.049915313720703, -2.351156234741211, -1.3012275695800781, -2.2824501991271973, 0.765625, -0.16845703125, -0.590087890625
51, 2620783, -5.308265686035156, 2.0658938884735107, 8.076462745666504, -2.337184190750122, -1.2739756107330322, -2.297996997833252, 0.762451171875, -0.166259765625, -0.59033203125
52, 2637450, -5.337749481201172, 2.051457643508911, 8.079286575317383, -2.3124430179595947, -1.2287436723709106, -2.332279920578003, 0.7646484375, -0.165771484375, -0.590087890625
53, 2654117, -5.32130765914917, 2.032750368118286, 8.072768211364746, -2.365537643432617, -1.2837598323822021, -2.275073528289795, 0.76708984375, -0.16650390625, -0.588623046875
54, 2670784, -5.327834606170654, 2.0499346256256104, 8.039355278015137, -2.256171464920044, -1.4291117191314697, -2.2763285636901855, 0.7626953125, -0.165283203125, -0.58984375
55, 2687451, -5.363121509552002, 2.046382188796997, 8.046736717224121, -2.300110101699829, -1.5855796337127686, -2.134434223175049, 0.765625, -0.166259765625, -0.591796875
56, 2704118, -5.3198442459106445, 2.0530309677124023, 8.053714752197266, -2.309112787246704, -1.7303298711776733, -2.0760374069213867, 0.7666015625, -0.16650390625, -0.590087890625
57, 2720785, -5.320596694946289, 2.056405544281006, 8.047504425048828, -2.4115896224975586, -1.6908481121063232, -2.1462419033050537, 0.76611328125, -0.166259765625, -0.59423828125
58, 2737452, -5.334056377410889, 2.049135208129883, 8.036551475524902, -2.3649742603302, -1.6791943311691284, -2.169139862060547, 0.765625, -0.166259765625, -0.590576171875
59, 2754119, -5.333350658416748, 2.0505733489990234, 8.063223838806152, -2.3419101238250732, -1.7647535800933838, -2.1273396015167236, 0.76708984375, -0.16748046875, -0.588623046875
60, 2770786, -5.319170951843262, 2.0385823249816895, 8.041731834411621, -2.2636630535125732, -1.7021046876907349, -2.2065725326538086, 0.765625, -0.166748046875, -0.590087890625
61, 2787453, -5.300163269042969, 2.0599584579467773, 8.053348541259766, -2.476018190383911, -1.641223430633545, -2.207993984222412, 0.765625, -0.166748046875, -0.59130859375
62, 2804120, -5.31450080871582, 2.037996768951416, 8.064943313598633, -2.4162254333496094, -1.5926233530044556, -2.2783522605895996, 0.76611328125, -0.1669921875, -0.591796875
63, 2820787, -5.342335224151611, 2.0458319187164307, 8.074469566345215, -2.308549642562866, -1.554677963256836, -2.0860390663146973, 0.76513671875, -0.16748046875, -0.588623046875
64, 2837454, -5.341205596923828, 2.0500376224517822, 8.043630599975586, -2.3075504302978516, -1.6997995376586914, -2.022826910018921, 0.763671875, -0.16748046875, -0.589599609375
65, 2854121, -5.312303066253662, 2.0643362998962402, 8.052828788757324, -2.3469810485839844, -1.886426568031311, -2.0720162391662598, 0.7646484375, -0.166748046875, -0.590576171875
66, 2870788, -5.3033576011657715, 2.054281711578369, 8.040299415588379, -2.4187352657318115, -1.8877582550048828, -2.1820483207702637, 0.765625, -0.16845703125, -0.588623046875
67, 2887455, -5.309967994689941, 2.0466949939727783, 8.079920768737793, -2.47629976272583, -1.6018695831298828, -2.265366554260254, 0.76708984375, -0.1669921875, -0.591064453125
68, 2904122, -5.321056365966797, 2.0281100273132324, 8.08434772491455, -2.211643695831299, -1.4300721883773804, -2.215357542037964, 0.7646484375, -0.16748046875, -0.590576171875
69, 2920789, -5.3351335525512695, 2.032437562942505, 8.037919044494629, -2.174799919128418, -1.3733657598495483, -2.0721442699432373, 0.7666015625, -0.17041015625, -0.589111328125
70, 2937456, -5.317530632019043, 2.038344144821167, 8.063104629516602, -2.2305715084075928, -1.591316819190979, -1.9545818567276, 0.7646484375, -0.167236328125, -0.5908203125
71, 2954123, -5.3267292976379395, 2.053095579147339, 8.061138153076172, -2.2086596488952637, -1.6418635845184326, -2.0031051635742188, 0.7666015625, -0.16650390625, -0.588623046875
72, 2970790, -5.327425956726074, 2.0677318572998047, 8.080982208251953, -2.180511474609375, -1.6391358375549316, -2.0816335678100586, 0.76611328125, -0.16650390625, -0.589111328125
73, 2987457, -5.319942951202393, 2.0459818840026855, 8.053983688354492, -2.214717149734497, -1.5633734464645386, -2.178154945373535, 0.76611328125, -0.16845703125, -0.59228515625
74, 3004124, -5.316955089569092, 2.0377933979034424, 8.061534881591797, -2.213667154312134, -1.394803524017334, -2.0647292137145996, 0.7646484375, -0.16796875, -0.589599609375
75, 3020791, -5.338376045227051, 2.0505599975585938, 8.063761711120605, -2.2667877674102783, -1.4358861446380615, -2.0511415004730225, 0.763671875, -0.16845703125, -0.59130859375
76, 3037458, -5.319605350494385, 2.0808188915252686, 8.057016372680664, -2.3862967491149902, -1.5719025135040283, -2.044546604156494, 0.765625, -0.1689453125, -0.590087890625
77, 3054125, -5.322793483734131, 2.0562026500701904, 8.05046272277832, -2.338644504547119, -1.618312954902649, -2.162057876586914, 0.765625, -0.16796875, -0.590576171875
78, 3070792, -5.318314552307129, 2.0410516262054443, 8.071573257446289, -2.3036575317382812, -1.5937373638153076, -2.185915946960449, 0.76611328125, -0.16943359375, -0.588134765625
79, 3087459, -5.327042579650879, 2.054795503616333, 8.053553581237793, -2.3303842544555664, -1.5214710235595703, -2.1354458332061768, 0.76416015625, -0.16748046875, -0.590576171875
80, 3104126, -5.325809001922607, 2.040411949157715, 8.056190490722656, -2.394223690032959, -1.4745358228683472, -2.154181718826294, 0.76416015625, -0.165283203125, -0.59033203125
81, 3120793, -5.3147406578063965, 2.0618886947631836, 8.071216583251953, -2.2829110622406006, -1.576897144317627, -2.0683279037475586, 0.7666015625, -0.166748046875, -0.591796875
82, 3137460, -5.3477301597595215, 2.0487546920776367, 8.049142837524414, -2.270092010498047, -1.645487666130066, -2.025080919265747, 0.765625, -0.1669921875, -0.590576171875
83, 3154127, -5.331959247589111, 2.0587499141693115, 8.040153503417969, -2.2421483993530273, -1.7654961347579956, -2.038783550262451, 0.767822265625, -0.1669921875, -0.587646484375
84, 3170794, -5.312628746032715, 2.0698482990264893, 8.06507682800293, -2.3089334964752197, -1.7465554475784302, -2.0746285915374756, 0.76611328125, -0.16796875, -0.590087890625
85, 3187461, -5.32042121887207, 2.055408477783203, 8.043403625488281, -2.395479202270508, -1.782605528831482, -2.148611068725586, 0.76611328125, -0.1669921875, -0.590087890625
86, 3204128, -5.323029041290283, 2.052022933959961, 8.063542366027832, -2.2874703407287598, -1.7090587615966797, -2.049349069595337, 0.76611328125, -0.16943359375, -0.589599609375
87, 3220795, -5.30907678604126, 2.061584234237671, 8.056111335754395, -2.261242628097534, -1.8046578168869019, -2.0310356616973877, 0.765625, -0.1669921875, -0.5927734375
88, 3237462, -5.31649923324585, 2.0587315559387207, 8.052075386047363, -2.2486541271209717, -1.6947153806686401, -2.0153605937957764, 0.763671875, -0.16845703125, -0.5908203125
89, 3254129, -5.30268669128418, 2.0628662109375, 8.071355819702148, -2.182560443878174, -1.6078755855560303, -2.013350248336792, 0.76416015625, -0.16796875, -0.589599609375
90, 3270796, -5.315377712249756, 2.063783645629883, 8.074787139892578, -2.190808057785034, -1.6612269878387451, -1.996036171913147, 0.763671875, -0.16748046875, -0.588623046875
91, 3287463, -5.31401252746582, 2.059293746948242, 8.04265308380127, -2.2264351844787598, -1.6403014659881592, -2.065446615219116, 0.76611328125, -0.1689453125, -0.59130859375
92, 3304130, -5.298009872436523, 2.069597005844116, 8.053332328796387, -2.239804983139038, -1.6158796548843384, -2.1759138107299805, 0.7666015625, -0.1689453125, -0.590087890625
93, 3320797, -5.325697422027588, 2.0709638595581055, 8.06305980682373, -2.4122936725616455, -1.580060362815857, -2.1324496269226074, 0.763671875, -0.16796875, -0.589599609375
94, 3337464, -5.307589530944824, 2.065023899078369, 8.059239387512207, -2.4341671466827393, -1.6509819030761719, -2.135958433151245, 0.76611328125, -0.16748046875, -0.590576171875
95, 3354131, -5.3429131507873535, 2.0663323402404785, 8.043190002441406, -2.5881502628326416, -1.4418283700942993, -2.2832438945770264, 0.76513671875, -0.16845703125, -0.589599609375
96, 3370798, -5.311272621154785, 2.0495152473449707, 8.066022872924805, -2.302363872528076, -1.5487358570098877, -2.174992084503174, 0.7646484375, -0.16748046875, -0.589599609375
97, 3387465, -5.322000980377197, 2.044579029083252, 8.056157112121582, -2.218174934387207, -1.5463413000106812, -2.019087553024292, 0.76513671875, -0.166259765625, -0.59375
98, 3404132, -5.343141555786133, 2.06705904006958, 8.051551818847656, -2.132641315460205, -1.6789764165878296, -2.008227586746216, 0.76611328125, -0.16748046875, -0.590576171875
99, 3420799, -5.310337066650391, 2.0607922077178955, 8.077983856201172, -2.1345877647399902, -1.5972334146499634, -1.92524254322052, 0.7646484375, -0.16748046875, -0.589111328125
100, 3437466, -5.320923328399658, 2.0563981533050537, 8.044299125671387, -2.093709945678711, -1.4574649333953857, -1.8973504304885864, 0.763671875, -0.16748046875, -0.59130859375
101, 3454133, -5.324519157409668, 2.0471627712249756, 8.050688743591309, -1.9231040477752686, -1.5334194898605347, -1.7517294883728027, 0.7646484375, -0.1708984375, -0.589599609375
102, 3470800, -5.320845127105713, 2.053489923477173, 8.058782577514648, -2.069493055343628, -1.5862072706222534, -1.8230863809585571, 0.76611328125, -0.16845703125, -0.589111328125
103, 3487467, -5.3191304206848145, 2.0730679035186768, 8.044076919555664, -2.0824406147003174, -1.6909250020980835, -1.9655568599700928, 0.7646484375, -0.1689453125, -0.587158203125
104, 3504134, -5.304903984069824, 2.0858631134033203, 8.05115032196045, -2.026604652404785, -1.6362031698226929, -2.0334818363189697, 0.76513671875, -0.1689453125, -0.59228515625
105, 3520801, -5.309475421905518, 2.070495128631592, 8.068732261657715, -2.2502548694610596, -1.5254155397415161, -2.020291328430176, 0.76513671875, -0.166748046875, -0.589111328125
106, 3537468, -5.325902938842773, 2.0748274326324463, 8.07906436920166, -2.279684066772461, -1.545534372329712, -2.0449438095092773, 0.765625, -0.169921875, -0.590576171875
107, 3554135, -5.328895568847656, 2.0679550170898438, 8.066107749938965, -2.1350741386413574, -1.5520527362823486, -1.949472188949585, 0.7666015625, -0.1669921875, -0.59130859375
108, 3570802, -5.331188201904297, 2.0687906742095947, 8.057321548461914, -2.070274591445923, -1.6280328035354614, -1.9397778511047363, 0.76513671875, -0.17041015625, -0.590576171875
109, 3587469, -5.323852062225342, 2.0928547382354736, 8.032179832458496, -2.183239221572876, -1.7657650709152222, -1.9768904447555542, 0.7666015625, -0.17041015625, -0.588134765625
110, 3604136, -5.310708045959473, 2.0829546451568604, 8.055663108825684, -2.169203519821167, -1.8127130270004272, -1.9670168161392212, 0.76611328125, -0.17041015625, -0.588623046875
111, 3620803, -5.3150954246521, 2.0632059574127197, 8.0677490234375, -2.1478936672210693, -1.7903916835784912, -1.8912416696548462, 0.7646484375, -0.17041015625, -0.590576171875
112, 3637470, -5.3145928382873535, 2.069018602371216, 8.035869598388672, -2.116044521331787, -1.8355213403701782, -1.9096574783325195, 0.76318359375, -0.16796875, -0.589111328125
113, 3654137, -5.317317962646484, 2.0728354454040527, 8.056013107299805, -2.125892162322998, -1.8842750787734985, -1.7794934511184692, 0.7666015625, -0.17041015625, -0.591796875
114, 3670804, -5.314406394958496, 2.069052219390869, 8.058923721313477, -2.0934412479400635, -1.9968557357788086, -1.8538089990615845, 0.76513671875, -0.1689453125, -0.589111328125
115, 3687471, -5.337943077087402, 2.0795795917510986, 8.05624771118164, -2.1787056922912598, -1.989133358001709, -1.8926759958267212, 0.763671875, -0.17041015625, -0.589111328125
116, 3704138, -5.299612522125244, 2.0696489810943604, 8.051322937011719, -2.112074136734009, -2.1360864639282227, -1.9035357236862183, 0.7646484375, -0.1689453125, -0.590576171875
117, 3720805, -5.306051254272461, 2.107585906982422, 8.056501388549805, -2.215075969696045, -2.1990551948547363, -1.949472427368164, 0.7666015625, -0.1708984375, -0.589599609375
118, 3737472, -5.284182548522949, 2.0853209495544434, 8.059808731079102, -2.2778780460357666, -2.1675641536712646, -1.9692323207855225, 0.765625, -0.17041015625, -0.589111328125
119, 3754139, -5.301504135131836, 2.076390027999878, 8.069613456726074, -2.256593942642212, -2.1464850902557373, -1.923539400100708, 0.76416015625, -0.1708984375, -0.590087890625
120, 3770806, -5.309121131896973, 2.0892741680145264, 8.075907707214355, -2.2483341693878174, -2.1122026443481445, -1.9146006107330322, 0.76318359375, -0.17041015625, -0.590576171875
121, 3787473, -5.30016565322876, 2.0865895748138428, 8.056142807006836, -2.2379610538482666, -2.182983636856079, -1.9199919700622559, 0.763427734375, -0.16845703125, -0.595703125
122, 3804140, -5.301636219024658, 2.089587450027466, 8.08831787109375, -2.1488029956817627, -1.8975040912628174, -1.9672601222991943, 0.7626953125, -0.1708984375, -0.590087890625
123, 3820807, -5.300831317901611, 2.0860955715179443, 8.072854995727539, -2.1657328605651855, -1.865078330039978, -1.9038302898406982, 0.76318359375, -0.169921875, -0.590576171875
124, 3837474, -5.288193702697754, 2.0904574394226074, 8.066256523132324, -2.1309893131256104, -1.7386027574539185, -1.8640025854110718, 0.76318359375, -0.16943359375, -0.5908203125
125, 3854141, -5.296360015869141, 2.0802128314971924, 8.060542106628418, -2.024709463119507, -1.679258108139038, -1.8957881927490234, 0.76416015625, -0.16943359375, -0.591796875
126, 3870808, -5.298774719238281, 2.0755228996276855, 8.05559253692627, -1.9856371879577637, -1.6627634763717651, -1.808051586151123, 0.76318359375, -0.17041015625, -0.59130859375
127, 3887475, -5.30695104598999, 2.082087516784668, 8.046835899353027, -2.0412425994873047, -1.7247337102890015, -1.8571510314941406, 0.763671875, -0.171875, -0.5927734375
128, 3904142, -5.288353443145752, 2.0926287174224854, 8.055792808532715, -2.06634259223938, -1.776125192642212, -1.804888367652893, 0.761962890625, -0.1728515625, -0.588623046875
129, 3920809, -5.282371997833252, 2.0790951251983643, 8.07569694519043, -2.1558079719543457, -1.802762508392334, -1.9778125286102295, 0.761962890625, -0.17236328125, -0.590087890625
130, 3937476, -5.297000885009766, 2.1099469661712646, 8.077005386352539, -2.2769815921783447, -1.8307445049285889, -2.011967182159424, 0.76318359375, -0.171875, -0.59130859375
131, 3954143, -5.28950309753418, 2.0769107341766357, 8.076171875, -2.3243143558502197, -1.8004577159881592, -2.005756139755249, 0.76513671875, -0.17138671875, -0.59130859375
132, 3970810, -5.308387279510498, 2.0831799507141113, 8.072113990783691, -2.342947244644165, -1.808051586151123, -1.9317736625671387, 0.761962890625, -0.1689453125, -0.590087890625
133, 3987477, -5.287610054016113, 2.0861339569091797, 8.059120178222656, -2.3743741512298584, -1.9322092533111572, -2.1195790767669678, 0.761962890625, -0.171875, -0.5908203125
134, 4004144, -5.2986907958984375, 2.093942642211914, 8.053011894226074, -2.2706170082092285, -1.8034286499023438, -1.7479642629623413, 0.7626953125, -0.17041015625, -0.590087890625
135, 4020811, -5.29711389541626, 2.077568769454956, 8.080683708190918, -2.251791477203369, -1.8202561140060425, -1.96163809299469, 0.76318359375, -0.174072265625, -0.590087890625
136, 4037478, -5.3172078132629395, 2.072026252746582, 8.079172134399414, -2.2448766231536865, -1.6970462799072266, -1.8535784482955933, 0.76416015625, -0.169921875, -0.59375
137, 4054145, -5.303955078125, 2.0876753330230713, 8.062857627868652, -2.113969564437866, -1.869791030883789, -1.7519981861114502, 0.76513671875, -0.1728515625, -0.59228515625
138, 4070812, -5.296429634094238, 2.107492208480835, 8.043965339660645, -2.2129628658294678, -1.980015516281128, -1.801943063735962, 0.76416015625, -0.174072265625, -0.591064453125
139, 4087479, -5.302863597869873, 2.103527069091797, 8.066118240356445, -2.145153045654297, -2.13761043548584, -1.77082359790802, 0.763671875, -0.1728515625, -0.59130859375
140, 4104146, -5.2928571701049805, 2.0877151489257812, 8.085672378540039, -2.185237407684326, -2.1420798301696777, -1.6920133829116821, 0.762451171875, -0.1728515625, -0.59228515625
141, 4120813, -5.293831825256348, 2.0779948234558105, 8.082658767700195, -2.2344775199890137, -2.168358087539673, -1.7215447425842285, 0.763671875, -0.171875, -0.591796875
142, 4137480, -5.294150352478027, 2.1081647872924805, 8.077199935913086, -2.1804733276367188, -2.3779215812683105, -1.7207636833190918, 0.7646484375, -0.17041015625, -0.5947265625
143, 4154147, -5.271617412567139, 2.0936646461486816, 8.076028823852539, -2.2466821670532227, -2.3848626613616943, -1.8340486288070679, 0.761474609375, -0.173828125, -0.5908203125
144, 4170814, -5.274754047393799, 2.0903892517089844, 8.056955337524414, -2.1476120948791504, -2.5362467765808105, -1.5997565984725952, 0.763427734375, -0.1708984375, -0.59423828125
145, 4187481, -5.299379825592041, 2.1051478385925293, 8.05785846710205, -2.268914222717285, -2.733157157897949, -1.4129631519317627, 0.761962890625, -0.173828125, -0.590087890625
146, 4204148, -5.236942291259766, 2.088775634765625, 8.077351570129395, -2.19797945022583, -2.9031355381011963, -1.353439211845398, 0.761474609375, -0.17236328125, -0.59228515625
147, 4220815, -5.248928070068359, 2.1198296546936035, 8.051477432250977, -2.369021415710449, -2.6502490043640137, -1.6614577770233154, 0.761474609375, -0.171875, -0.59130859375
148, 4237482, -5.246669292449951, 2.130617618560791, 8.084752082824707, -2.495893955230713, -2.444309949874878, -1.9274072647094727, 0.758544921875, -0.177001953125, -0.59375
149, 4254149, -5.254785060882568, 2.1121199131011963, 8.089712142944336, -2.3511433601379395, -2.0452511310577393, -1.951047658920288, 0.760986328125, -0.173828125, -0.5927734375
150, 4270816, -5.264977931976318, 2.105073928833008, 8.085182189941406, -2.2482571601867676, -1.9225146770477295, -1.9264591932296753, 0.762451171875, -0.1728515625, -0.59326171875
151, 4287483, -5.254003047943115, 2.1134111881256104, 8.07678508758545, -2.177616834640503, -1.9121415615081787, -1.828362226486206, 0.761962890625, -0.17333984375, -0.59375
152, 4304150, -5.265254974365234, 2.125225067138672, 8.05786418914795, -2.3085365295410156, -1.7853974103927612, -1.9759814739227295, 0.761474609375, -0.17333984375, -0.59423828125
153, 4320817, -5.276926040649414, 2.1041314601898193, 8.062110900878906, -2.3553569316864014, -1.9028571844100952, -1.9887877702713013, 0.760986328125, -0.17236328125, -0.59375
154, 4337484, -5.262299060821533, 2.0881717205047607, 8.08227252960205, -2.386117696762085, -2.0272836685180664, -1.9198769330978394, 0.759033203125, -0.171875, -0.59228515625
155, 4354151, -5.239208221435547, 2.1126868724823, 8.079748153686523, -2.33512282371521, -1.9802974462509155, -1.9035618305206299, 0.761474609375, -0.1708984375, -0.595947265625
156, 4370818, -5.250184535980225, 2.1305549144744873, 8.088828086853027, -2.4061086177825928, -1.9425824880599976, -1.9859960079193115, 0.7578125, -0.1728515625, -0.59375
157, 4387485, -5.265052318572998, 2.1125781536102295, 8.07310676574707, -2.520481586456299, -1.905072569847107, -2.090956449508667, 0.760986328125, -0.175048828125, -0.595947265625
158, 4404152, -5.2398247718811035, 2.130234479904175, 8.094513893127441, -2.5800957679748535, -1.9985467195510864, -2.0466599464416504, 0.760498046875, -0.175537109375, -0.59423828125
159, 4420819, -5.24113655090332, 2.1133124828338623, 8.097542762756348, -2.553816795349121, -1.7588623762130737, -2.1462035179138184, 0.760498046875, -0.175048828125, -0.59375
160, 4437486, -5.266726970672607, 2.098268747329712, 8.087038040161133, -2.4477033615112305, -1.626573085784912, -2.087345600128174, 0.761474609375, -0.17431640625, -0.59521484375
161, 4454153, -5.251713275909424, 2.112058401107788, 8.076677322387695, -2.313044548034668, -1.664082646369934, -2.0933127403259277, 0.760009765625, -0.1748046875, -0.59521484375
162, 4470820, -5.278426647186279, 2.0913004875183105, 8.086302757263184, -2.3991034030914307, -1.8000351190567017, -2.0886902809143066, 0.760009765625, -0.175537109375, -0.59423828125
163, 4487487, -5.2553558349609375, 2.102926731109619, 8.093032836914062, -2.3903565406799316, -1.972946286201477, -1.892740249633789, 0.761474609375, -0.17333984375, -0.5947265625
164, 4504154, -5.237769603729248, 2.118170738220215, 8.091043472290039, -2.407555341720581, -1.9498820304870605, -2.0155014991760254, 0.758544921875, -0.17431640625, -0.59423828125
165, 4520821, -5.234356880187988, 2.1195425987243652, 8.084366798400879, -2.464569330215454, -1.8827897310256958, -2.1275317668914795, 0.758544921875, -0.17333984375, -0.5927734375
166, 4537488, -5.268798351287842, 2.1009347438812256, 8.081254959106445, -2.3881282806396484, -1.8651295900344849, -2.1375205516815186, 0.760986328125, -0.175537109375, -0.59326171875
167, 4554155, -5.270623683929443, 2.1082379817962646, 8.090706825256348, -2.3770761489868164, -1.8724420070648193, -2.0794949531555176, 0.761474609375, -0.17333984375, -0.59326171875
168, 4570822, -5.254505634307861, 2.111985921859741, 8.084545135498047, -2.4503414630889893, -1.9774925708770752, -1.9940767288208008, 0.759521484375, -0.176025390625, -0.5927734375
169, 4587489, -5.255834579467773, 2.1171579360961914, 8.092791557312012, -2.439084768295288, -1.9319148063659668, -2.032470226287842, 0.760986328125, -0.176025390625, -0.59375
170, 4604156, -5.2548041343688965, 2.1120083332061768, 8.093862533569336, -2.4172754287719727, -1.9776591062545776, -2.046570062637329, 0.759033203125, -0.175048828125, -0.59130859375
171, 4620823, -5.266493797302246, 2.1040186882019043, 8.08840560913086, -2.4062235355377197, -1.9881731271743774, -2.0438551902770996, 0.7587890625, -0.173828125, -0.599853515625
172, 4637490, -5.2562336921691895, 2.095371961593628, 8.080442428588867, -2.2917349338531494, -2.096412420272827, -1.9698984622955322, 0.761962890625, -0.17236328125, -0.5947265625
173, 4654157, -5.242363452911377, 2.1339597702026367, 8.105104446411133, -2.3203952312469482, -2.1281464099884033, -1.875720500946045, 0.7568359375, -0.1728515625, -0.594970703125
174, 4670824, -5.25086784362793, 2.097433090209961, 8.082213401794434, -2.168166160583496, -1.976839303970337, -1.8568693399429321, 0.760009765625, -0.17333984375, -0.5947265625
175, 4687491, -5.229616165161133, 2.1177380084991455, 8.069698333740234, -2.177335739135742, -1.9620864391326904, -1.7442762851715088, 0.759521484375, -0.175048828125, -0.595947265625
176, 4704158, -5.237264633178711, 2.1262478828430176, 8.101944923400879, -2.0967068672180176, -1.601792573928833, -1.7446730136871338, 0.760009765625, -0.175048828125, -0.59521484375
177, 4720825, -5.2359137535095215, 2.108795404434204, 8.093450546264648, -1.969258189201355, -1.4256540536880493, -1.7057929039001465, 0.758544921875, -0.1748046875, -0.596923828125
178, 4737492, -5.2539472579956055, 2.1181747913360596, 8.084722518920898, -2.000326633453369, -1.4416110515594482, -1.8118935823440552, 0.75732421875, -0.17578125, -0.595458984375
179, 4754159, -5.235890865325928, 2.1355605125427246, 8.072040557861328, -2.0490801334381104, -1.4378585815429688, -1.9521485567092896, 0.760009765625, -0.175537109375, -0.59521484375
180, 4770826, -5.237154960632324, 2.1114163398742676, 8.081355094909668, -2.091097354888916, -1.5931353569030762, -2.031970500946045, 0.758544921875, -0.176025390625, -0.5947265625
181, 4787493, -5.251514434814453, 2.1150012016296387, 8.084815979003906, -1.9780689477920532, -1.659382700920105, -1.9036766290664673, 0.7578125, -0.17431640625, -0.5947265625
182, 4804160, -5.25840425491333, 2.125486135482788, 8.084436416625977, -2.061245918273926, -1.6453852653503418, -1.8735820055007935, 0.758056640625, -0.17529296875, -0.5947265625
183, 4820827, -5.246765613555908, 2.1197826862335205, 8.091509819030762, -2.0930185317993164, -1.7254633903503418, -1.8121753931045532, 0.7578125, -0.175537109375, -0.59521484375
184, 4837494, -5.233844757080078, 2.143333673477173, 8.086413383483887, -2.2156522274017334, -1.7989977598190308, -1.912538766860962, 0.759033203125, -0.176513671875, -0.59521484375
185, 4854161, -5.2441325187683105, 2.142840623855591, 8.094399452209473, -2.333585739135742, -1.7885346412658691, -1.9428768157958984, 0.7578125, -0.177001953125, -0.5947265625
186, 4870828, -5.231809616088867, 2.1464219093322754, 8.10171890258789, -2.4335780143737793, -1.8103954792022705, -2.0577757358551025, 0.759521484375, -0.177490234375, -0.59521484375
187, 4887495, -5.2147722244262695, 2.1363658905029297, 8.076603889465332, -2.4830873012542725, -1.6621618270874023, -2.180178642272949, 0.758544921875, -0.177001953125, -0.595703125
188, 4904162, -5.238009452819824, 2.1293187141418457, 8.095453262329102, -2.416135787963867, -1.406867265701294, -2.304080009460449, 0.760498046875, -0.175048828125, -0.59326171875
189, 4920829, -5.254412651062012, 2.1245856285095215, 8.076874732971191, -2.32658052444458, -1.4092490673065186, -2.2074429988861084, 0.759521484375, -0.176025390625, -0.59375
190, 4937496, -5.263212203979492, 2.124817371368408, 8.085575103759766, -2.2459518909454346, -1.5079604387283325, -2.136713743209839, 0.759033203125, -0.175048828125, -0.59423828125
191, 4954163, -5.263883590698242, 2.1218953132629395, 8.083539962768555, -2.251535654067993, -1.5845425128936768, -2.1182215213775635, 0.759033203125, -0.175537109375, -0.595947265625
192, 4970830, -5.25694465637207, 2.119799852371216, 8.070941925048828, -2.2999563217163086, -1.700170874595642, -1.999032735824585, 0.758544921875, -0.17431640625, -0.59326171875
193, 4987497, -5.227120876312256, 2.1325175762176514, 8.086039543151855, -2.2232463359832764, -1.7630372047424316, -2.014387845993042, 0.759033203125, -0.176025390625, -0.595947265625
194, 5004164, -5.234899044036865, 2.122476816177368, 8.107746124267578, -2.299828290939331, -1.8391581773757935, -2.0741419792175293, 0.759033203125, -0.175537109375, -0.5947265625
195, 5020831, -5.239838600158691, 2.150771379470825, 8.105534553527832, -2.380521059036255, -1.7700167894363403, -2.0944652557373047, 0.759521484375, -0.177001953125, -0.595947265625
196, 5037498, -5.236292362213135, 2.130293846130371, 8.1091947555542, -2.373157262802124, -1.7848080396652222, -2.1299262046813965, 0.760009765625, -0.177001953125, -0.5947265625
197, 5054165, -5.243582248687744, 2.13201904296875, 8.081743240356445, -2.4038288593292236, -1.7433156967163086, -2.1069393157958984, 0.760986328125, -0.176025390625, -0.595703125
198, 5070832, -5.224698066711426, 2.1455438137054443, 8.087634086608887, -2.4990694522857666, -1.6837917566299438, -2.192011833190918, 0.760498046875, -0.175537109375, -0.595703125
199, 5087499, -5.235493183135986, 2.1238350868225098, 8.102614402770996, -2.568711042404175, -1.711722731590271, -2.2658917903900146, 0.760009765625, -0.175537109375, -0.5947265625
200, 5104166, -5.258971214294434, 2.135310649871826, 8.098642349243164, -2.4278922080993652, -1.7746784687042236, -2.2250521183013916, 0.759033203125, -0.17529296875, -0.598388671875
201, 5120833, -5.263377666473389, 2.1357429027557373, 8.070109367370605, -2.526475667953491, -1.6750965118408203, -2.3087549209594727, 0.758544921875, -0.176025390625, -0.59423828125
202, 5137500, -5.246976852416992, 2.125883102416992, 8.079063415527344, -2.5833613872528076, -1.8056572675704956, -2.250434637069702, 0.758544921875, -0.175537109375, -0.595947265625
203, 5154167, -5.2374796867370605, 2.116807699203491, 8.08813190460205, -2.652873992919922, -1.8125853538513184, -2.308229684829712, 0.7568359375, -0.176025390625, -0.595947265625
204, 5170834, -5.244765758514404, 2.109142541885376, 8.09311294555664, -2.6082568168640137, -1.86929190158844, -2.2392802238464355, 0.7578125, -0.175537109375, -0.5947265625
205, 5187501, -5.230636119842529, 2.124889850616455, 8.110686302185059, -2.532597064971924, -2.0046935081481934, -2.129401683807373, 0.758544921875, -0.176513671875, -0.597412109375
206, 5204168, -5.2407612800598145, 2.1236178874969482, 8.116297721862793, -2.5204050540924072, -1.983716607093811, -2.1523380279541016, 0.75830078125, -0.17529296875, -0.596435546875
207, 5220835, -5.265519618988037, 2.1174874305725098, 8.086220741271973, -2.487467050552368, -2.028704881668091, -2.043368339538574, 0.75732421875, -0.17578125, -0.594970703125
208, 5237502, -5.24904203414917, 2.1238696575164795, 8.099820137023926, -2.4362032413482666, -2.0974881649017334, -1.97731351852417, 0.7568359375, -0.176025390625, -0.594970703125
209, 5254169, -5.246602535247803, 2.1130640506744385, 8.079413414001465, -2.304886817932129, -2.247335195541382, -1.8767067193984985, 0.758544921875, -0.177001953125, -0.596435546875
210, 5270836, -5.230867385864258, 2.1167714595794678, 8.094232559204102, -2.2258718013763428, -2.391803741455078, -1.7075859308242798, 0.758544921875, -0.177001953125, -0.596923828125
211, 5287503, -5.188767433166504, 2.156155586242676, 8.109742164611816, -2.389716386795044, -2.2112724781036377, -1.8581629991531372, 0.75634765625, -0.176513671875, -0.596923828125
212, 5304170, -5.185654640197754, 2.1413474082946777, 8.093008041381836, -2.605772018432617, -2.0176403522491455, -2.105607271194458, 0.75732421875, -0.17578125, -0.596435546875
213, 5320837, -5.2163238525390625, 2.1137006282806396, 8.122520446777344, -2.523209810256958, -1.8010852336883545, -2.2712066173553467, 0.758544921875, -0.176513671875, -0.597412109375
214, 5337504, -5.234217643737793, 2.0997912883758545, 8.129149436950684, -2.216459274291992, -1.6218986511230469, -2.059530019760132, 0.7578125, -0.176513671875, -0.597900390625
215, 5354171, -5.251014232635498, 2.1269049644470215, 8.11108684539795, -2.2040367126464844, -1.5609145164489746, -2.002182960510254, 0.75927734375, -0.176025390625, -0.600830078125
216, 5370838, -5.2299580574035645, 2.1461021900177, 8.103065490722656, -2.2944109439849854, -1.686032772064209, -2.0106606483459473, 0.760009765625, -0.176513671875, -0.597900390625
217, 5387505, -5.245453834533691, 2.103980779647827, 8.085413932800293, -2.2118871212005615, -1.7707982063293457, -1.9410840272903442, 0.759521484375, -0.176513671875, -0.596923828125
218, 5404172, -5.224427223205566, 2.1279263496398926, 8.096125602722168, -1.9757763147354126, -1.8243540525436401, -1.8260444402694702, 0.7578125, -0.176513671875, -0.596923828125
219, 5420839, -5.214542865753174, 2.121103525161743, 8.093636512756348, -1.7009646892547607, -1.5541144609451294, -1.5654609203338623, 0.759033203125, -0.176513671875, -0.597900390625
220, 5437506, -5.209114074707031, 2.1276931762695312, 8.112191200256348, -1.393984079360962, -1.2989225387573242, -1.512699007987976, 0.75830078125, -0.1748046875, -0.597900390625
221, 5454173, -5.2327165603637695, 2.1266088485717773, 8.10544490814209, -1.4226831197738647, -1.1250121593475342, -1.607248067855835, 0.758544921875, -0.177490234375, -0.595703125
222, 5470840, -5.245144844055176, 2.168213129043579, 8.107661247253418, -1.6780925989151, -1.0705980062484741, -1.6878639459609985, 0.75634765625, -0.176513671875, -0.595458984375
223, 5487507, -5.2131667137146, 2.114231824874878, 8.065688133239746, -1.3315403461456299, -1.1544796228408813, -1.5496580600738525, 0.75732421875, -0.178466796875, -0.59228515625
224, 5504174, -5.21901273727417, 2.124884605407715, 8.107956886291504, -1.2125436067581177, -1.0911906957626343, -1.4630358219146729, 0.7578125, -0.177978515625, -0.595458984375
225, 5520841, -5.217365741729736, 2.1360411643981934, 8.095976829528809, -1.1522256135940552, -1.0229072570800781, -1.5042979717254639, 0.75732421875, -0.178955078125, -0.596923828125
226, 5537508, -5.217878341674805, 2.1430795192718506, 8.070419311523438, -1.4681199789047241, -0.847306489944458, -1.7407928705215454, 0.75830078125, -0.180419921875, -0.595703125
227, 5554175, -5.213238716125488, 2.159303665161133, 8.098583221435547, -1.0073347091674805, -0.8728935718536377, -1.5713518857955933, 0.7578125, -0.179443359375, -0.595947265625
228, 5570842, -5.245527267456055, 2.1672613620758057, 8.08637523651123, -1.137383222579956, -0.9199697971343994, -1.6225900650024414, 0.758544921875, -0.179443359375, -0.595947265625
229, 5587509, -5.221785068511963, 2.1604175567626953, 8.074661254882812, -1.099565863609314, -0.8609580397605896, -1.5412569046020508, 0.759521484375, -0.179931640625, -0.59375
230, 5604176, -5.24689245223999, 2.160475730895996, 8.118449211120605, -0.9879587292671204, -0.4990506172180176, -1.5981043577194214, 0.758544921875, -0.181640625, -0.59326171875
231, 5620843, -5.238579750061035, 2.1679999828338623, 8.082794189453125, -0.776282548904419, -0.4499383568763733, -1.521586537361145, 0.75732421875, -0.1826171875, -0.59423828125
232, 5637510, -5.25778341293335, 2.1723785400390625, 8.105168342590332, -1.0490193367004395, -0.4171924293041229, -1.6187225580215454, 0.759033203125, -0.181640625, -0.591064453125
233, 5654177, -5.289783954620361, 2.174178123474121, 8.067732810974121, -0.9077779054641724, -0.8581021428108215, -1.5190377235412598, 0.758056640625, -0.181396484375, -0.59375
234, 5670844, -5.249928951263428, 2.2084038257598877, 8.074163436889648, -1.1811296939849854, -0.9253484606742859, -1.4816179275512695, 0.760009765625, -0.18359375, -0.591796875
235, 5687511, -5.255795001983643, 2.2141852378845215, 8.03384017944336, -1.6259965896606445, -1.1359103918075562, -1.7699657678604126, 0.757568359375, -0.1826171875, -0.590087890625
236, 5704178, -5.245230197906494, 2.191765308380127, 8.083381652832031, -1.8331778049468994, -1.481323480606079, -1.883570671081543, 0.758056640625, -0.181396484375, -0.59228515625
237, 5720845, -5.24705171585083, 2.203204870223999, 8.062832832336426, -2.1390318870544434, -1.6357423067092896, -1.9737530946731567, 0.758544921875, -0.18359375, -0.59130859375
238, 5737512, -5.212947845458984, 2.2150230407714844, 8.064285278320312, -2.277148485183716, -1.7030397653579712, -2.0433812141418457, 0.757568359375, -0.18212890625, -0.59228515625
239, 5754179, -5.222880840301514, 2.2039077281951904, 8.064515113830566, -2.3930327892303467, -1.51956307888031, -2.1980433464050293, 0.759033203125, -0.18212890625, -0.591796875
240, 5770846, -5.248399257659912, 2.193119764328003, 8.071059226989746, -2.5672764778137207, -1.6786950826644897, -2.3504137992858887, 0.757568359375, -0.1826171875, -0.591796875
241, 5787513, -5.259401321411133, 2.1886610984802246, 8.067413330078125, -2.5494372844696045, -1.7402551174163818, -2.4021642208099365, 0.759033203125, -0.18310546875, -0.5947265625
242, 5804180, -5.243159294128418, 2.1941871643066406, 8.075146675109863, -2.667614221572876, -1.804799199104309, -2.3655123710632324, 0.760009765625, -0.18408203125, -0.59423828125
243, 5820847, -5.239263534545898, 2.189216136932373, 8.071526527404785, -2.628964900970459, -1.8195265531539917, -2.4208614826202393, 0.759521484375, -0.1826171875, -0.59326171875
244, 5837514, -5.236257076263428, 2.206714391708374, 8.04764175415039, -2.7112064361572266, -1.730547547340393, -2.5303423404693604, 0.757568359375, -0.180908203125, -0.59130859375
245, 5854181, -5.236530303955078, 2.1908364295959473, 8.072295188903809, -2.8738341331481934, -1.6840349435806274, -2.6615304946899414, 0.759033203125, -0.1826171875, -0.59130859375
246, 5870848, -5.2545342445373535, 2.1748454570770264, 8.083074569702148, -2.834519386291504, -1.808692216873169, -2.6724419593811035, 0.757568359375, -0.18359375, -0.5927734375
247, 5887515, -5.252562522888184, 2.1633238792419434, 8.058978080749512, -2.829460620880127, -1.9640328884124756, -2.4518399238586426, 0.75634765625, -0.181884765625, -0.59375
248, 5904182, -5.237699508666992, 2.184077262878418, 8.06983757019043, -2.8236076831817627, -1.776138186454773, -2.394697666168213, 0.760009765625, -0.1826171875, -0.596923828125
249, 5920849, -5.228668212890625, 2.172377109527588, 8.067185401916504, -2.6274023056030273, -1.7086873054504395, -2.364090919494629, 0.757568359375, -0.180908203125, -0.5927734375
250, 5937516, -5.250519275665283, 2.17331862449646, 8.090204238891602, -2.5796732902526855, -1.7086106538772583, -2.342909336090088, 0.7578125, -0.180908203125, -0.59375
251, 5954183, -5.238399028778076, 2.1731207370758057, 8.100878715515137, -2.4121015071868896, -1.6667591333389282, -2.2209153175354004, 0.7587890625, -0.181396484375, -0.598876953125
252, 5970850, -5.246331214904785, 2.177717685699463, 8.067456245422363, -2.372555732727051, -1.5552927255630493, -2.087102174758911, 0.759033203125, -0.178466796875, -0.59375
253, 5987517, -5.238827228546143, 2.1902198791503906, 8.072331428527832, -2.3149397373199463, -1.6102961301803589, -2.12187123298645, 0.760498046875, -0.18115234375, -0.591796875
254, 6004184, -5.240152359008789, 2.1713454723358154, 8.059765815734863, -2.3525266647338867, -1.6071457862854004, -2.1580493450164795, 0.75732421875, -0.180908203125, -0.59375
255, 6020851, -5.229521751403809, 2.187826633453369, 8.072635650634766, -2.3239939212799072, -1.5962985754013062, -2.1129066944122314, 0.758056640625, -0.18212890625, -0.5927734375
256, 6037518, -5.238371849060059, 2.1779367923736572, 8.09494400024414, -2.239267110824585, -1.4910175800323486, -2.0835673809051514, 0.75634765625, -0.18212890625, -0.59375
257, 6054185, -5.2501654624938965, 2.17629075050354, 8.07113265991211, -2.3286423683166504, -1.3970831632614136, -2.085501194000244, 0.759521484375, -0.181640625, -0.59375
258, 6070852, -5.238020896911621, 2.1839182376861572, 8.0818452835083, -2.215395927429199, -1.4852676391601562, -2.1406965255737305, 0.759033203125, -0.179931640625, -0.59423828125
259, 6087519, -5.2505059242248535, 2.1887571811676025, 8.076078414916992, -2.232748508453369, -1.475624442100525, -2.0371315479278564, 0.760009765625, -0.18310546875, -0.5947265625
260, 6104186, -5.239126682281494, 2.2036194801330566, 8.105639457702637, -2.1254568099975586, -1.3979538679122925, -2.245657444000244, 0.758544921875, -0.181396484375, -0.59326171875
261, 6120853, -5.250883102416992, 2.150798797607422, 8.066524505615234, -2.132180690765381, -1.320603609085083, -2.215805768966675, 0.759521484375, -0.1826171875, -0.5927734375
262, 6137520, -5.256199359893799, 2.17834734916687, 8.048267364501953, -2.0505781173706055, -1.506513237953186, -1.9667222499847412, 0.760009765625, -0.18212890625, -0.59228515625
263, 6154187, -5.251700401306152, 2.1615333557128906, 8.065492630004883, -1.9897739887237549, -1.5182567834854126, -1.888001799583435, 0.759521484375, -0.180419921875, -0.59326171875
264, 6170854, -5.248798370361328, 2.1900510787963867, 8.073548316955566, -1.9906831979751587, -1.6364467144012451, -1.8525667190551758, 0.75732421875, -0.181640625, -0.59130859375
265, 6187521, -5.221956729888916, 2.196904420852661, 8.06380558013916, -2.0335843563079834, -1.604673981666565, -1.884006142616272, 0.759521484375, -0.181640625, -0.5927734375
266, 6204188, -5.249466896057129, 2.173494577407837, 8.079385757446289, -1.9335284233093262, -1.3650544881820679, -1.9839085340499878, 0.758056640625, -0.18310546875, -0.59326171875
267, 6220855, -5.232827663421631, 2.177417278289795, 8.083734512329102, -1.767289161682129, -1.3773612976074219, -1.8172211647033691, 0.758056640625, -0.179931640625, -0.59228515625
268, 6237522, -5.245760917663574, 2.1906070709228516, 8.106036186218262, -1.554255485534668, -1.2814674377441406, -1.8341766595840454, 0.7568359375, -0.181884765625, -0.59228515625
269, 6254189, -5.243843078613281, 2.19328236579895, 8.05251407623291, -1.371854543685913, -1.1658133268356323, -1.6431572437286377, 0.758056640625, -0.180419921875, -0.59228515625
270, 6270856, -5.214023113250732, 2.2079484462738037, 8.0738525390625, -1.5955302715301514, -1.1959209442138672, -1.8104978799819946, 0.759033203125, -0.18212890625, -0.59228515625
271, 6287523, -5.230157375335693, 2.208263874053955, 8.070828437805176, -1.6004223823547363, -1.1852917671203613, -1.8739020824432373, 0.760498046875, -0.1826171875, -0.59423828125
272, 6304190, -5.2503180503845215, 2.2135519981384277, 8.065659523010254, -1.5034784078598022, -1.100052833557129, -1.8020583391189575, 0.759521484375, -0.180908203125, -0.591796875
273, 6320857, -5.236682415008545, 2.2315003871917725, 8.049144744873047, -1.5014162063598633, -1.044575572013855, -1.8741964101791382, 0.759033203125, -0.185546875, -0.59228515625
274, 6337524, -5.247013092041016, 2.2180280685424805, 8.050210952758789, -1.4575800895690918, -1.062286615371704, -1.9996089935302734, 0.7568359375, -0.18408203125, -0.5927734375
275, 6354191, -5.271964073181152, 2.1862502098083496, 8.06009578704834, -1.4650336503982544, -0.9528308510780334, -1.8943408727645874, 0.760498046875, -0.18359375, -0.591552734375
276, 6370858, -5.229149341583252, 2.217139482498169, 8.064355850219727, -1.4357455968856812, -0.8577309250831604, -1.7831050157546997, 0.760009765625, -0.18359375, -0.59228515625
277, 6387525, -5.245014190673828, 2.224119186401367, 8.076554298400879, -1.2302675247192383, -0.8599463105201721, -1.7604506015777588, 0.757568359375, -0.18359375, -0.591796875
278, 6404192, -5.238858222961426, 2.2334835529327393, 8.063554763793945, -1.1715761423110962, -0.6641501188278198, -1.7965773344039917, 0.760498046875, -0.185546875, -0.588623046875
279, 6420859, -5.2510199546813965, 2.242063283920288, 8.051277160644531, -1.218050479888916, -0.6465158462524414, -1.9626243114471436, 0.759521484375, -0.1845703125, -0.591552734375
280, 6437526, -5.280581474304199, 2.204349994659424, 8.067030906677246, -1.1035743951797485, -0.5305286645889282, -1.9193644523620605, 0.759521484375, -0.18603515625, -0.591064453125
281, 6454193, -5.309751987457275, 2.2399675846099854, 8.00776195526123, -0.8651584982872009, -0.6247193813323975, -1.7337620258331299, 0.759033203125, -0.18701171875, -0.590087890625
282, 6470860, -5.2441582679748535, 2.2011325359344482, 8.07304859161377, -0.3910418748855591, -0.8660293817520142, -1.7507559061050415, 0.760009765625, -0.1865234375, -0.588623046875
283, 6487527, -5.256161689758301, 2.279947280883789, 8.027063369750977, -1.1684256792068481, -0.5489698052406311, -1.8587521314620972, 0.760009765625, -0.18603515625, -0.589599609375
284, 6504194, -5.279779434204102, 2.2262301445007324, 8.065842628479004, -0.8579485416412354, -0.5923448801040649, -1.6469476222991943, 0.757568359375, -0.1865234375, -0.589599609375
285, 6520861, -5.290703296661377, 2.2427313327789307, 8.061878204345703, -0.6972801685333252, -0.6114776134490967, -1.5614014863967896, 0.760986328125, -0.188232421875, -0.588134765625
286, 6537528, -5.268176555633545, 2.2698636054992676, 8.024773597717285, -1.1009361743927002, -0.5822919011116028, -1.6972897052764893, 0.760009765625, -0.188232421875, -0.589111328125
287, 6554195, -5.297685623168945, 2.255166530609131, 8.033374786376953, -0.8817043304443359, -0.7860280871391296, -1.460115909576416, 0.760986328125, -0.187255859375, -0.587646484375
288, 6570862, -5.275130271911621, 2.2444558143615723, 8.0211820602417, -0.8726630806922913, -0.8871086239814758, -1.4957047700881958, 0.7626953125, -0.188232421875, -0.58544921875
289, 6587529, -5.226420879364014, 2.2880303859710693, 8.028977394104004, -1.2799947261810303, -0.9745761156082153, -1.6255358457565308, 0.76318359375, -0.189697265625, -0.587890625
290, 6604196, -5.271034240722656, 2.271895170211792, 8.039544105529785, -1.2914819717407227, -1.1565288305282593, -1.8780384063720703, 0.760498046875, -0.187744140625, -0.587646484375
291, 6620863, -5.2952752113342285, 2.2780778408050537, 8.036649703979492, -1.558699369430542, -1.1974194049835205, -1.934885859489441, 0.760009765625, -0.187744140625, -0.588623046875
292, 6637530, -5.284789085388184, 2.2642087936401367, 8.017180442810059, -1.6374326944351196, -1.309846043586731, -1.8274787664413452, 0.760009765625, -0.189208984375, -0.587158203125
293, 6654197, -5.268121242523193, 2.2796669006347656, 8.013470649719238, -1.6159179210662842, -1.352427363395691, -1.8206530809402466, 0.759521484375, -0.191162109375, -0.5869140625
294, 6670864, -5.278911590576172, 2.282125234603882, 8.028772354125977, -1.7521134614944458, -1.2355053424835205, -1.9432353973388672, 0.760498046875, -0.189208984375, -0.587646484375
295, 6687531, -5.280664443969727, 2.273057460784912, 8.028263092041016, -1.865654706954956, -1.343104362487793, -1.8481354713439941, 0.758544921875, -0.188720703125, -0.587158203125
296, 6704198, -5.26265811920166, 2.2991750240325928, 8.008235931396484, -1.8926249742507935, -1.3894377946853638, -1.9721778631210327, 0.758544921875, -0.190185546875, -0.58544921875
297, 6720865, -5.27793025970459, 2.283066749572754, 7.991220951080322, -1.9299424886703491, -1.4281386137008667, -1.8689332008361816, 0.760009765625, -0.193115234375, -0.588134765625
298, 6737532, -5.2730817794799805, 2.294992446899414, 8.049654006958008, -1.7915699481964111, -1.3110244274139404, -1.9495874643325806, 0.761962890625, -0.192138671875, -0.588134765625
299, 6754199, -5.265567302703857, 2.2967066764831543, 8.012139320373535, -1.7271411418914795, -1.2412041425704956, -1.916969656944275, 0.761474609375, -0.192626953125, -0.587890625
300, 6770866, -5.263883590698242, 2.2805943489074707, 8.01652717590332, -1.590356469154358, -1.1876096725463867, -1.9315305948257446, 0.760986328125, -0.191162109375, -0.5869140625
301, 6787533, -5.290894985198975, 2.289933919906616, 8.018233299255371, -1.614534854888916, -1.0393122434616089, -1.9861496686935425, 0.760498046875, -0.191650390625, -0.58349609375
302, 6804200, -5.261020660400391, 2.313347578048706, 8.011966705322266, -1.7196109294891357, -1.0907552242279053, -1.9331823587417603, 0.76318359375, -0.19482421875, -0.5859375
303, 6820867, -5.2431488037109375, 2.331709861755371, 8.01519775390625, -1.6980193853378296, -0.8965981006622314, -2.046006202697754, 0.760009765625, -0.190185546875, -0.5859375
304, 6837534, -5.2728447914123535, 2.2955775260925293, 8.028887748718262, -1.6496371030807495, -0.8130751252174377, -2.104646921157837, 0.76220703125, -0.192138671875, -0.5859375
305, 6854201, -5.307580947875977, 2.280538320541382, 8.025810241699219, -1.7015286684036255, -0.8125373125076294, -2.030626058578491, 0.76416015625, -0.189697265625, -0.58544921875
306, 6870868, -5.2764201164245605, 2.325099229812622, 7.99533748626709, -1.7013362646102905, -0.8588067293167114, -2.099870204925537, 0.760986328125, -0.193359375, -0.58642578125
307, 6887535, -5.27817440032959, 2.2850594520568848, 8.022526741027832, -1.4921319484710693, -0.7580462694168091, -2.064793586730957, 0.76318359375, -0.19287109375, -0.58349609375
308, 6904202, -5.296077728271484, 2.282383441925049, 8.033503532409668, -1.4995081424713135, -0.7002896070480347, -1.9364994764328003, 0.761474609375, -0.192626953125, -0.58544921875
309, 6920869, -5.328137397766113, 2.2822959423065186, 7.98931884765625, -1.3925880193710327, -0.8091050982475281, -1.9427356719970703, 0.763671875, -0.193359375, -0.583251953125
310, 6937536, -5.302753925323486, 2.277031421661377, 7.977948188781738, -0.9532150030136108, -0.8969694972038269, -1.596349835395813, 0.76416015625, -0.19189453125, -0.583984375
311, 6954203, -5.265775203704834, 2.32112717628479, 7.994557857513428, -1.0670634508132935, -0.6933614611625671, -1.8251354694366455, 0.7626953125, -0.19287109375, -0.582763671875
312, 6970870, -5.287800312042236, 2.3597936630249023, 8.003275871276855, -1.2428562641143799, -0.27893510460853577, -2.0475175380706787, 0.76220703125, -0.193359375, -0.58349609375
313, 6987537, -5.324389457702637, 2.3027775287628174, 8.003799438476562, -1.1946275234222412, -0.49514469504356384, -1.9337843656539917, 0.7646484375, -0.1943359375, -0.581787109375
314, 7004204, -5.3033952713012695, 2.3350682258605957, 7.999557971954346, -1.2424592971801758, -0.62885582447052, -1.8972222805023193, 0.76318359375, -0.19384765625, -0.582275390625
315, 7020871, -5.295923233032227, 2.323802947998047, 8.004449844360352, -1.060621976852417, -0.458685040473938, -1.9693349599838257, 0.7626953125, -0.193359375, -0.583251953125
316, 7037538, -5.326635837554932, 2.31974458694458, 8.011018753051758, -1.0085128545761108, -0.5846867561340332, -1.9406358003616333, 0.76318359375, -0.19287109375, -0.582763671875
317, 7054205, -5.332860469818115, 2.3463969230651855, 7.992469787597656, -1.3105379343032837, -0.7384909987449646, -1.8159788846969604, 0.76220703125, -0.19482421875, -0.582275390625
318, 7070872, -5.320569038391113, 2.3328700065612793, 7.971839904785156, -1.3759654760360718, -1.0183480978012085, -1.8115733861923218, 0.763671875, -0.19580078125, -0.582275390625
319, 7087539, -5.282732009887695, 2.346785545349121, 7.998749732971191, -1.2606570720672607, -1.0161839723587036, -1.773128867149353, 0.76318359375, -0.1953125, -0.581787109375
320, 7104206, -5.280994415283203, 2.356351137161255, 8.005413055419922, -1.1275991201400757, -0.8297746181488037, -1.8715969324111938, 0.76416015625, -0.197998046875, -0.580810546875
321, 7120873, -5.316362380981445, 2.3399243354797363, 8.00831127166748, -1.1086714267730713, -0.48396480083465576, -1.9040864706039429, 0.76416015625, -0.197509765625, -0.580322265625
322, 7137540, -5.357224464416504, 2.3430087566375732, 7.959700107574463, -1.1622531414031982, -0.7233282923698425, -1.8641948699951172, 0.76416015625, -0.197265625, -0.583251953125
323, 7154207, -5.361388683319092, 2.33454966545105, 7.969587802886963, -1.1853045225143433, -1.1221179962158203, -1.7498725652694702, 0.763671875, -0.19775390625, -0.581787109375
324, 7170874, -5.295173645019531, 2.3500444889068604, 7.957047939300537, -0.7872574925422668, -0.9676860570907593, -1.4140130281448364, 0.76416015625, -0.19677734375, -0.579833984375
325, 7187541, -5.304503917694092, 2.377546548843384, 7.959896087646484, -0.6090827584266663, -0.535446286201477, -1.4908255338668823, 0.76416015625, -0.19580078125, -0.580810546875
326, 7204208, -5.3062849044799805, 2.354851007461548, 8.006385803222656, -0.7852852940559387, 0.03089531697332859, -1.6756722927093506, 0.763671875, -0.197265625, -0.580810546875
327, 7220875, -5.358202934265137, 2.379554033279419, 7.958840847015381, -0.361203134059906, -0.14959096908569336, -1.4397284984588623, 0.767333984375, -0.197509765625, -0.580810546875
328, 7237542, -5.3629631996154785, 2.3723723888397217, 7.941882610321045, -0.5172997117042542, -0.48504048585891724, -1.3840464353561401, 0.765625, -0.199462890625, -0.580810546875
329, 7254209, -5.355412483215332, 2.379762649536133, 7.990724563598633, -0.8089130520820618, -0.7356607913970947, -1.5175395011901855, 0.7646484375, -0.198974609375, -0.5791015625
330, 7270876, -5.294992446899414, 2.412844181060791, 7.960755825042725, -0.9146807193756104, -0.7456240653991699, -1.454506754875183, 0.76513671875, -0.197509765625, -0.578125
331, 7287543, -5.320115089416504, 2.4363961219787598, 7.979253768920898, -1.2885750532150269, -0.8381115794181824, -1.7141684293746948, 0.7646484375, -0.200439453125, -0.57861328125
332, 7304210, -5.343271255493164, 2.412689685821533, 7.949743747711182, -1.6301072835922241, -1.008717656135559, -1.9423773288726807, 0.76513671875, -0.199462890625, -0.579833984375
333, 7320877, -5.347528457641602, 2.389134168624878, 7.941572189331055, -1.747887372970581, -1.0794856548309326, -2.1032509803771973, 0.76611328125, -0.200927734375, -0.57958984375
334, 7337544, -5.34316873550415, 2.401224374771118, 7.957732677459717, -1.9017558097839355, -1.2692373991012573, -2.143411636352539, 0.76513671875, -0.200439453125, -0.57861328125
335, 7354211, -5.3401265144348145, 2.4087839126586914, 7.9699015617370605, -1.9200561046600342, -1.2545613050460815, -2.0958616733551025, 0.765625, -0.200927734375, -0.57861328125
336, 7370878, -5.329774379730225, 2.3978023529052734, 7.953278541564941, -1.843166708946228, -1.2108019590377808, -2.0762808322906494, 0.76513671875, -0.199462890625, -0.576171875
337, 7387545, -5.338473796844482, 2.4030230045318604, 7.983829975128174, -1.7808254957199097, -1.1644941568374634, -2.0349416732788086, 0.76513671875, -0.199462890625, -0.57666015625
338, 7404212, -5.333097457885742, 2.4308202266693115, 7.941117286682129, -1.7584400177001953, -1.0823287963867188, -2.220249891281128, 0.7646484375, -0.202880859375, -0.57861328125
339, 7420879, -5.364468097686768, 2.3976168632507324, 7.94774055480957, -1.81855309009552, -1.024943470954895, -2.180959939956665, 0.765869140625, -0.198974609375, -0.57568359375
340, 7437546, -5.352952480316162, 2.4044582843780518, 7.953915119171143, -2.0607848167419434, -1.230485439300537, -2.2494864463806152, 0.767333984375, -0.200927734375, -0.57958984375
341, 7454213, -5.36331844329834, 2.378861665725708, 7.947010040283203, -1.9843692779541016, -1.3958152532577515, -2.2878029346466064, 0.765869140625, -0.199462890625, -0.5771484375
342, 7470880, -5.3379130363464355, 2.398059368133545, 7.9413161277771, -2.0266430377960205, -1.3259565830230713, -2.0822994709014893, 0.76611328125, -0.201904296875, -0.57958984375
343, 7487547, -5.340885162353516, 2.4009032249450684, 7.932675361633301, -1.991297960281372, -1.405407428741455, -2.147548198699951, 0.768310546875, -0.200927734375, -0.575439453125
344, 7504214, -5.350624084472656, 2.393861770629883, 7.932280540466309, -2.042766571044922, -1.4648158550262451, -2.042151689529419, 0.767822265625, -0.201416015625, -0.57568359375
345, 7520881, -5.348523139953613, 2.4461798667907715, 7.940326690673828, -2.213923215866089, -1.585016131401062, -2.0949907302856445, 0.763671875, -0.201904296875, -0.57666015625
346, 7537548, -5.330540657043457, 2.4230802059173584, 7.945896625518799, -2.3769102096557617, -1.6877745389938354, -2.299572467803955, 0.768798828125, -0.20263671875, -0.57666015625
347, 7554215, -5.324002742767334, 2.4060654640197754, 7.975997447967529, -2.4502005577087402, -1.4518944025039673, -2.4168143272399902, 0.766845703125, -0.201416015625, -0.578125
348, 7570882, -5.361188888549805, 2.3964335918426514, 7.94897985458374, -2.324890375137329, -1.3144564628601074, -2.274458885192871, 0.765869140625, -0.202392578125, -0.578125
349, 7587549, -5.381711006164551, 2.403487205505371, 7.942715167999268, -2.322777271270752, -1.4788259267807007, -2.1153271198272705, 0.765869140625, -0.201416015625, -0.57763671875
350, 7604216, -5.339256286621094, 2.4341132640838623, 7.967959403991699, -2.2936811447143555, -1.6320667266845703, -2.0980899333953857, 0.766845703125, -0.200927734375, -0.578125
351, 7620883, -5.321138381958008, 2.428058624267578, 7.950278282165527, -2.2994823455810547, -1.468119740486145, -2.247347831726074, 0.767333984375, -0.199951171875, -0.578125
352, 7637550, -5.341911792755127, 2.4177982807159424, 7.939987659454346, -2.2737159729003906, -1.409543752670288, -2.274202585220337, 0.766357421875, -0.199951171875, -0.576171875
353, 7654217, -5.366568565368652, 2.416848659515381, 7.928346633911133, -2.2941677570343018, -1.4464259147644043, -2.241354465484619, 0.76513671875, -0.201416015625, -0.5791015625
354, 7670884, -5.371649742126465, 2.3939452171325684, 7.930293560028076, -2.4646332263946533, -1.624613642692566, -2.3521294593811035, 0.766357421875, -0.201904296875, -0.576171875
355, 7687551, -5.347410202026367, 2.399226188659668, 7.961236476898193, -2.606975793838501, -1.8967615365982056, -2.247002363204956, 0.766357421875, -0.200927734375, -0.57568359375
356, 7704218, -5.338975429534912, 2.4255013465881348, 7.944510459899902, -2.740213632583618, -1.8959548473358154, -2.2485904693603516, 0.765869140625, -0.200439453125, -0.57666015625
357, 7720885, -5.330282211303711, 2.4303877353668213, 7.958380699157715, -2.8778555393218994, -1.8003934621810913, -2.465773105621338, 0.765869140625, -0.201904296875, -0.5751953125
358, 7737552, -5.354635238647461, 2.4314184188842773, 7.9455437660217285, -2.8168716430664062, -1.7569926977157593, -2.649876832962036, 0.766845703125, -0.199951171875, -0.5771484375
359, 7754219, -5.360769271850586, 2.3942553997039795, 7.942285060882568, -3.1970670223236084, -2.0507960319519043, -2.774675130844116, 0.765625, -0.200439453125, -0.57763671875
360, 7770886, -5.368838787078857, 2.4017245769500732, 7.933393478393555, -3.54048228263855, -2.2925546169281006, -2.8133888244628906, 0.766357421875, -0.199951171875, -0.578125
361, 7787553, -5.3623433113098145, 2.3899848461151123, 7.952853679656982, -3.9015824794769287, -2.635918140411377, -2.8409860134124756, 0.765625, -0.19677734375, -0.57666015625
362, 7804220, -5.317265033721924, 2.378351926803589, 7.957284450531006, -3.594076633453369, -2.5358879566192627, -2.7296993732452393, 0.765625, -0.198486328125, -0.57958984375
363, 7820887, -5.3254780769348145, 2.3827991485595703, 7.955535411834717, -3.4302194118499756, -2.439724922180176, -2.6890389919281006, 0.767333984375, -0.198486328125, -0.582275390625
364, 7837554, -5.355397701263428, 2.3811960220336914, 7.953132152557373, -3.372988224029541, -2.2531495094299316, -2.5796730518341064, 0.76416015625, -0.199462890625, -0.5791015625
365, 7854221, -5.3559370040893555, 2.373445749282837, 7.9590253829956055, -3.260343074798584, -2.150070905685425, -2.355548858642578, 0.766357421875, -0.200439453125, -0.57666015625
366, 7870888, -5.331633567810059, 2.382272720336914, 7.944472789764404, -3.1148502826690674, -2.3525776863098145, -2.229956865310669, 0.766845703125, -0.198486328125, -0.580322265625
367, 7887555, -5.3354902267456055, 2.358013868331909, 7.944252014160156, -2.895131826400757, -2.188105821609497, -2.122601270675659, 0.7646484375, -0.198486328125, -0.580322265625
368, 7904222, -5.350435733795166, 2.3501598834991455, 7.960550785064697, -2.6640796661376953, -2.2320704460144043, -2.000800371170044, 0.7646484375, -0.197998046875, -0.579833984375
369, 7920889, -5.344904899597168, 2.3641414642333984, 7.960965156555176, -2.6384668350219727, -2.392585039138794, -1.9558628797531128, 0.765869140625, -0.1962890625, -0.57763671875
370, 7937556, -5.325036525726318, 2.382079601287842, 7.952901363372803, -2.5820934772491455, -2.3803296089172363, -1.8951224088668823, 0.763671875, -0.198486328125, -0.578857421875
371, 7954223, -5.32986307144165, 2.3723959922790527, 7.986636161804199, -2.604862928390503, -2.354422092437744, -1.9508298635482788, 0.7646484375, -0.199462890625, -0.580322265625
372, 7970890, -5.302523136138916, 2.396916151046753, 7.957485675811768, -2.559579610824585, -2.1099233627319336, -1.872288703918457, 0.76611328125, -0.197509765625, -0.57958984375
373, 7987557, -5.323093414306641, 2.3723807334899902, 7.976486682891846, -2.54763126373291, -1.8706235885620117, -2.165553569793701, 0.763671875, -0.198486328125, -0.580810546875
374, 8004224, -5.319466590881348, 2.3971688747406006, 7.975369930267334, -2.499530553817749, -1.7083414793014526, -2.1164159774780273, 0.76513671875, -0.197509765625, -0.581787109375
375, 8020891, -5.352458477020264, 2.3614745140075684, 7.939680576324463, -2.534146308898926, -1.7743839025497437, -2.126251220703125, 0.763671875, -0.19775390625, -0.581298828125
376, 8037558, -5.335609436035156, 2.3971376419067383, 7.97186803817749, -2.403355121612549, -1.8739149570465088, -2.091686725616455, 0.76513671875, -0.198974609375, -0.582275390625
377, 8054225, -5.327849388122559, 2.375009059906006, 7.966236591339111, -2.47651743888855, -1.9743547439575195, -1.9665048122406006, 0.7626953125, -0.198486328125, -0.58447265625
378, 8070892, -5.311478137969971, 2.391763687133789, 7.989354133605957, -2.4790146350860596, -1.8784992694854736, -2.102379560470581, 0.7646484375, -0.197998046875, -0.579833984375
379, 8087559, -5.308828830718994, 2.3918519020080566, 7.976242542266846, -2.6086790561676025, -1.868574619293213, -2.17209792137146, 0.76318359375, -0.197998046875, -0.579345703125
380, 8104226, -5.328477382659912, 2.3815321922302246, 7.973247528076172, -2.65661358833313, -1.84392249584198, -2.34527850151062, 0.76416015625, -0.198974609375, -0.579833984375
381, 8120893, -5.342463970184326, 2.3634636402130127, 7.976783752441406, -2.627389430999756, -1.9236292839050293, -2.269695281982422, 0.76318359375, -0.197998046875, -0.582275390625
382, 8137560, -5.308901309967041, 2.3883368968963623, 7.971013069152832, -2.6793065071105957, -1.9116041660308838, -2.2682225704193115, 0.765625, -0.19677734375, -0.581787109375
383, 8154227, -5.289167404174805, 2.3827807903289795, 7.963854789733887, -2.6432056427001953, -1.8113559484481812, -2.4102706909179688, 0.76220703125, -0.19775390625, -0.583251953125
384, 8170894, -5.323402404785156, 2.3707950115203857, 7.963992118835449, -2.614518880844116, -1.6808593273162842, -2.4220011234283447, 0.763671875, -0.198974609375, -0.580322265625
385, 8187561, -5.333241939544678, 2.374049663543701, 7.981177806854248, -2.6537067890167236, -1.6176215410232544, -2.33630108833313, 0.763671875, -0.197265625, -0.580322265625
386, 8204228, -5.320845127105713, 2.374455213546753, 7.971659183502197, -2.7054824829101562, -1.7474650144577026, -2.4257280826568604, 0.76513671875, -0.198974609375, -0.580810546875
387, 8220895, -5.3164963722229, 2.381171226501465, 7.966276168823242, -2.766683578491211, -1.784167766571045, -2.4631991386413574, 0.76318359375, -0.197265625, -0.580810546875
388, 8237562, -5.304391860961914, 2.3533947467803955, 7.961555004119873, -2.820995330810547, -1.754636287689209, -2.522876501083374, 0.763671875, -0.198974609375, -0.582763671875
389, 8254229, -5.322735786437988, 2.3640732765197754, 7.962402820587158, -2.893453598022461, -1.7134894132614136, -2.5315208435058594, 0.76318359375, -0.19775390625, -0.579833984375
390, 8270896, -5.322198867797852, 2.3625855445861816, 7.957276821136475, -2.94757342338562, -1.889589548110962, -2.4794116020202637, 0.763671875, -0.198486328125, -0.580810546875
391, 8287563, -5.31190824508667, 2.3747518062591553, 7.978515625, -2.9892964363098145, -1.7794294357299805, -2.610433340072632, 0.76171875, -0.1982421875, -0.582275390625
392, 8304230, -5.3170671463012695, 2.3392326831817627, 7.987992763519287, -2.9494431018829346, -1.5878337621688843, -2.544762372970581, 0.763671875, -0.197265625, -0.579345703125
393, 8320897, -5.335047721862793, 2.3440444469451904, 7.972661018371582, -2.791182518005371, -1.6980706453323364, -2.515589714050293, 0.763671875, -0.19677734375, -0.579833984375
394, 8337564, -5.318611145019531, 2.366314172744751, 7.970855236053467, -2.84690260887146, -1.7679804563522339, -2.489797592163086, 0.76513671875, -0.197998046875, -0.582763671875
395, 8354231, -5.31611967086792, 2.3545567989349365, 7.959623336791992, -2.752084493637085, -1.7420604228973389, -2.477285623550415, 0.763671875, -0.197265625, -0.582763671875
396, 8370898, -5.313287734985352, 2.3466711044311523, 7.963450908660889, -2.6596615314483643, -1.7050120830535889, -2.401703357696533, 0.76513671875, -0.198974609375, -0.582275390625
397, 8387565, -5.320895195007324, 2.356902837753296, 7.974667072296143, -2.71992826461792, -1.5105860233306885, -2.3840560913085938, 0.76416015625, -0.19677734375, -0.582275390625
398, 8404232, -5.317611217498779, 2.3459582328796387, 7.983790874481201, -2.6301684379577637, -1.6662087440490723, -2.3442413806915283, 0.763671875, -0.19482421875, -0.580322265625
399, 8420899, -5.3059515953063965, 2.3675546646118164, 7.9670729637146, -2.7666969299316406, -1.5896908044815063, -2.411628007888794, 0.76513671875, -0.19580078125, -0.581787109375
400, 8437566, -5.308900356292725, 2.3564412593841553, 7.995504379272461, -2.82858943939209, -1.6244853734970093, -2.6084227561950684, 0.76513671875, -0.197509765625, -0.581787109375
401, 8454233, -5.346354961395264, 2.3412067890167236, 8.006505966186523, -2.8011975288391113, -1.5777041912078857, -2.4718050956726074, 0.763671875, -0.19775390625, -0.581787109375
402, 8470900, -5.329072952270508, 2.332831859588623, 7.974099159240723, -2.7934625148773193, -1.6364598274230957, -2.362259864807129, 0.76513671875, -0.1953125, -0.583740234375
403, 8487567, -5.30955171585083, 2.364584445953369, 7.975627899169922, -2.9731476306915283, -1.8479561805725098, -2.406236171722412, 0.76416015625, -0.1953125, -0.582763671875
404, 8504234, -5.3191986083984375, 2.3488006591796875, 7.97587251663208, -3.1296286582946777, -1.9780304431915283, -2.5692741870880127, 0.76318359375, -0.193359375, -0.581298828125
405, 8520901, -5.303504467010498, 2.356102228164673, 7.972849369049072, -3.3277177810668945, -2.0631799697875977, -2.6238162517547607, 0.76513671875, -0.19482421875, -0.583740234375
406, 8537568, -5.323500633239746, 2.3314290046691895, 8.012092590332031, -3.3853204250335693, -2.1007795333862305, -2.6526050567626953, 0.76611328125, -0.19482421875, -0.58447265625
407, 8554235, -5.311336994171143, 2.342409610748291, 7.99571418762207, -3.13663387298584, -2.4413516521453857, -2.5686211585998535, 0.76220703125, -0.19287109375, -0.5830078125
408, 8570902, -5.329057693481445, 2.348914384841919, 7.967260837554932, -3.6089067459106445, -2.244069814682007, -2.9283130168914795, 0.76171875, -0.19482421875, -0.581298828125
409, 8587569, -5.338573932647705, 2.3161087036132812, 7.995684623718262, -3.736022710800171, -2.4173781871795654, -2.824261426925659, 0.76416015625, -0.1953125, -0.580810546875
410, 8604236, -5.321715831756592, 2.3099112510681152, 7.990664482116699, -3.6383612155914307, -2.484905958175659, -2.6844289302825928, 0.7626953125, -0.1943359375, -0.5849609375
411, 8620903, -5.299656867980957, 2.314706563949585, 7.99133825302124, -3.3708877563476562, -2.243070602416992, -2.4685394763946533, 0.760986328125, -0.19287109375, -0.582275390625
412, 8637570, -5.281793117523193, 2.3213422298431396, 7.99929666519165, -3.1981301307678223, -1.9237186908721924, -2.5466325283050537, 0.76416015625, -0.19189453125, -0.583251953125
413, 8654237, -5.295326232910156, 2.3157801628112793, 8.011092185974121, -3.252467155456543, -1.7611420154571533, -2.566418170928955, 0.763671875, -0.19482421875, -0.58544921875
414, 8670904, -5.331843852996826, 2.318356513977051, 7.984193325042725, -3.3399221897125244, -2.1809604167938232, -2.5741279125213623, 0.76318359375, -0.19287109375, -0.582763671875
415, 8687571, -5.323670387268066, 2.3151204586029053, 7.996251106262207, -3.5681827068328857, -2.5478367805480957, -2.593196392059326, 0.76171875, -0.1923828125, -0.5849609375
416, 8704238, -5.282244682312012, 2.3107612133026123, 7.993704795837402, -3.6194722652435303, -2.462110996246338, -2.7941536903381348, 0.76220703125, -0.1923828125, -0.582763671875
417, 8720905, -5.2970967292785645, 2.2868316173553467, 7.995998859405518, -3.486849069595337, -2.42659854888916, -2.558926582336426, 0.760986328125, -0.192138671875, -0.58447265625
418, 8737572, -5.286605358123779, 2.2959110736846924, 8.01380443572998, -3.2190558910369873, -2.216561794281006, -2.5497827529907227, 0.76416015625, -0.191650390625, -0.58642578125
419, 8754239, -5.30999755859375, 2.2836668491363525, 8.00040054321289, -3.152616500854492, -2.1360225677490234, -2.5210325717926025, 0.7626953125, -0.1923828125, -0.583984375
420, 8770906, -5.314927101135254, 2.276233673095703, 7.994818210601807, -3.0464258193969727, -2.176208734512329, -2.3793556690216064, 0.7626953125, -0.191162109375, -0.5849609375
421, 8787573, -5.284435749053955, 2.2912800312042236, 8.00261402130127, -2.988797187805176, -2.1856470108032227, -2.3132879734039307, 0.7646484375, -0.190673828125, -0.58642578125
422, 8804240, -5.290788173675537, 2.2598283290863037, 8.014991760253906, -2.8177425861358643, -2.072784423828125, -2.1738650798797607, 0.76220703125, -0.190673828125, -0.5830078125
423, 8820907, -5.305954933166504, 2.2866809368133545, 8.007356643676758, -2.7035233974456787, -1.9849332571029663, -2.201719284057617, 0.76220703125, -0.191162109375, -0.58447265625
424, 8837574, -5.301324844360352, 2.2755630016326904, 8.014485359191895, -2.634817123413086, -1.9680674076080322, -2.1798460483551025, 0.76416015625, -0.190185546875, -0.58447265625
425, 8854241, -5.298328399658203, 2.2930800914764404, 8.029383659362793, -2.4795143604278564, -1.9407767057418823, -2.072336435317993, 0.76220703125, -0.189697265625, -0.5859375
426, 8870908, -5.280831336975098, 2.3019845485687256, 8.009839057922363, -2.450815439224243, -1.8843649625778198, -1.9818724393844604, 0.7626953125, -0.191650390625, -0.58642578125
427, 8887575, -5.286194324493408, 2.3061227798461914, 8.016704559326172, -2.4818451404571533, -1.685610294342041, -2.202333688735962, 0.76171875, -0.190673828125, -0.58544921875
428, 8904242, -5.284914493560791, 2.31901478767395, 8.014189720153809, -2.6703546047210693, -1.7056268453598022, -2.330653667449951, 0.760986328125, -0.190185546875, -0.5849609375
429, 8920909, -5.307267189025879, 2.3000857830047607, 8.010941505432129, -2.773791790008545, -1.7749603986740112, -2.399282693862915, 0.76220703125, -0.191162109375, -0.5859375
430, 8937576, -5.302558898925781, 2.2746965885162354, 8.016007423400879, -2.7392141819000244, -1.942018747329712, -2.343088150024414, 0.7626953125, -0.190673828125, -0.58642578125
431, 8954243, -5.280625820159912, 2.2768473625183105, 8.020832061767578, -2.7344884872436523, -2.063448667526245, -2.213423490524292, 0.76220703125, -0.189697265625, -0.5869140625
432, 8970910, -5.268026828765869, 2.29002046585083, 8.013445854187012, -2.646406888961792, -1.8462661504745483, -2.2114264965057373, 0.76220703125, -0.191650390625, -0.583984375
433, 8987577, -5.284790515899658, 2.285086154937744, 8.005117416381836, -2.6149673461914062, -1.7844114303588867, -2.320664644241333, 0.759521484375, -0.191650390625, -0.58544921875
434, 9004244, -5.287525177001953, 2.2719709873199463, 8.016531944274902, -2.7311336994171143, -1.8001887798309326, -2.412025213241577, 0.760009765625, -0.191162109375, -0.5859375
435, 9020911, -5.287801265716553, 2.299699306488037, 8.011855125427246, -2.7726263999938965, -1.7626663446426392, -2.3747076988220215, 0.761962890625, -0.190185546875, -0.5869140625
436, 9037578, -5.2834248542785645, 2.299640655517578, 7.981498718261719, -2.780118227005005, -1.834458589553833, -2.2724742889404297, 0.761474609375, -0.190185546875, -0.58544921875
437, 9054245, -5.271637439727783, 2.281381607055664, 8.028687477111816, -2.769091844558716, -1.7748196125030518, -2.334469795227051, 0.76220703125, -0.191162109375, -0.5849609375
438, 9070912, -5.290229797363281, 2.2810897827148438, 8.004526138305664, -2.770359754562378, -1.6635067462921143, -2.4485490322113037, 0.761962890625, -0.188720703125, -0.588134765625
439, 9087579, -5.30597448348999, 2.3129565715789795, 8.003098487854004, -2.854829788208008, -1.9551708698272705, -2.486429452896118, 0.760498046875, -0.191162109375, -0.58740234375
440, 9104246, -5.309411525726318, 2.277721643447876, 7.999373435974121, -3.074791669845581, -2.05002760887146, -2.388883590698242, 0.76171875, -0.190673828125, -0.58447265625
441, 9120913, -5.302244663238525, 2.273786783218384, 8.042283058166504, -3.114786386489868, -2.0683279037475586, -2.4217190742492676, 0.761474609375, -0.189208984375, -0.5869140625
442, 9137580, -5.284820079803467, 2.2839126586914062, 8.00961685180664, -3.1403861045837402, -2.0499637126922607, -2.259795904159546, 0.760009765625, -0.189208984375, -0.5859375
443, 9154247, -5.293344497680664, 2.2620365619659424, 8.03629207611084, -3.0526366233825684, -1.8992198705673218, -2.248385190963745, 0.760009765625, -0.187255859375, -0.587158203125
444, 9170914, -5.307101249694824, 2.259537696838379, 8.027850151062012, -2.9875805377960205, -2.004411458969116, -2.1902315616607666, 0.761962890625, -0.187744140625, -0.587646484375
445, 9187581, -5.264302730560303, 2.282052993774414, 8.012702941894531, -3.0265629291534424, -2.134382963180542, -2.1307461261749268, 0.761962890625, -0.188232421875, -0.5869140625
446, 9204248, -5.274891376495361, 2.236717939376831, 8.045429229736328, -3.0289833545684814, -1.9956260919570923, -2.1921908855438232, 0.760009765625, -0.188720703125, -0.58642578125
447, 9220915, -5.28648042678833, 2.2405872344970703, 8.0220365524292, -2.8758199214935303, -1.9424033164978027, -2.1275575160980225, 0.76220703125, -0.188232421875, -0.5859375
448, 9237582, -5.298556327819824, 2.251821756362915, 7.999125957489014, -2.8394877910614014, -2.1822917461395264, -2.051628589630127, 0.762451171875, -0.189208984375, -0.588134765625
449, 9254249, -5.292953014373779, 2.27679443359375, 8.020788192749023, -2.9058890342712402, -2.3521552085876465, -2.090188503265381, 0.760986328125, -0.188720703125, -0.58642578125
450, 9270916, -5.2687177658081055, 2.2678062915802, 8.032160758972168, -3.022272825241089, -2.4144833087921143, -2.208249807357788, 0.761962890625, -0.188720703125, -0.589111328125
451, 9287583, -5.26104211807251, 2.2436683177948, 8.078204154968262, -2.9503653049468994, -2.376269578933716, -2.142118215560913, 0.760009765625, -0.187744140625, -0.589111328125
452, 9304250, -5.242832660675049, 2.261101484298706, 8.068876266479492, -2.800466537475586, -2.348876476287842, -2.218226194381714, 0.759521484375, -0.187255859375, -0.587646484375
453, 9320917, -5.285139560699463, 2.2579386234283447, 8.028227806091309, -2.897308349609375, -2.1507368087768555, -2.1913328170776367, 0.760986328125, -0.186767578125, -0.588134765625
454, 9337584, -5.293310642242432, 2.2460153102874756, 8.040104866027832, -2.6848127841949463, -2.284332275390625, -2.1116132736206055, 0.757080078125, -0.190185546875, -0.590087890625
455, 9354251, -5.290025234222412, 2.248338460922241, 8.042130470275879, -2.8967323303222656, -2.433910608291626, -2.1007280349731445, 0.759521484375, -0.188232421875, -0.589111328125
456, 9370918, -5.254462718963623, 2.2296054363250732, 8.054303169250488, -2.8792388439178467, -2.4895544052124023, -2.0574936866760254, 0.759521484375, -0.187255859375, -0.589599609375
457, 9387585, -5.250032901763916, 2.235708713531494, 8.066312789916992, -2.748767852783203, -2.3837485313415527, -1.9559009075164795, 0.760009765625, -0.188232421875, -0.589111328125
458, 9404252, -5.274472236633301, 2.261464834213257, 8.023689270019531, -2.5105700492858887, -2.397528648376465, -1.8988107442855835, 0.758056640625, -0.187744140625, -0.586669921875
459, 9420919, -5.265079975128174, 2.265467882156372, 8.008028030395508, -2.7461299896240234, -2.2596936225891113, -1.966556191444397, 0.7626953125, -0.189697265625, -0.588623046875
460, 9437586, -5.254644870758057, 2.2529091835021973, 8.044259071350098, -2.3469815254211426, -2.5091612339019775, -1.7806848287582397, 0.759521484375, -0.187744140625, -0.590576171875
461, 9454253, -5.226301193237305, 2.2480030059814453, 8.056439399719238, -2.374117851257324, -2.1982738971710205, -1.7247462272644043, 0.758544921875, -0.190185546875, -0.590087890625
462, 9470920, -5.2431511878967285, 2.2259678840637207, 8.036983489990234, -2.247706413269043, -1.9592690467834473, -1.667258620262146, 0.758544921875, -0.18701171875, -0.589111328125
463, 9487587, -5.247267723083496, 2.269664764404297, 8.05725383758545, -2.1475350856781006, -1.9449257850646973, -1.6632758378982544, 0.758544921875, -0.187744140625, -0.590087890625
464, 9504254, -5.223695755004883, 2.280423164367676, 8.026993751525879, -2.2757394313812256, -2.094696044921875, -1.8037742376327515, 0.758544921875, -0.188232421875, -0.591064453125
465, 9520921, -5.275723934173584, 2.2448642253875732, 8.021236419677734, -2.4390077590942383, -1.963226318359375, -1.899066686630249, 0.759033203125, -0.1875, -0.591552734375
466, 9537588, -5.2229509353637695, 2.245204448699951, 8.053060531616211, -2.53173828125, -1.760911226272583, -1.9982513189315796, 0.759521484375, -0.187255859375, -0.590087890625
467, 9554255, -5.249859809875488, 2.2546164989471436, 8.058866500854492, -2.221350908279419, -1.787138819694519, -1.86965012550354, 0.759033203125, -0.190673828125, -0.588623046875
468, 9570922, -5.267309188842773, 2.270540714263916, 8.02099609375, -2.2275750637054443, -1.9672731161117554, -1.7844880819320679, 0.757568359375, -0.189208984375, -0.5927734375
469, 9587589, -5.251777648925781, 2.2707746028900146, 8.040260314941406, -2.2180469036102295, -1.985265851020813, -1.7612316608428955, 0.758056640625, -0.189208984375, -0.591552734375
470, 9604256, -5.221131324768066, 2.2565369606018066, 8.046640396118164, -2.209709882736206, -1.9875966310501099, -1.7830533981323242, 0.7568359375, -0.188232421875, -0.589111328125
471, 9620923, -5.202591419219971, 2.275233745574951, 8.046103477478027, -2.1497762203216553, -1.8877966403961182, -1.896287441253662, 0.75732421875, -0.18798828125, -0.59326171875
472, 9637590, -5.188945293426514, 2.2811508178710938, 8.055147171020508, -2.2339138984680176, -1.587731122970581, -2.0925190448760986, 0.75732421875, -0.190673828125, -0.591796875
473, 9654257, -5.216378688812256, 2.2866342067718506, 8.052038192749023, -2.346430540084839, -1.294209599494934, -2.230686664581299, 0.758056640625, -0.190673828125, -0.59228515625
474, 9670924, -5.24921178817749, 2.2661235332489014, 8.041535377502441, -2.253533363342285, -1.0715073347091675, -2.2090954780578613, 0.757568359375, -0.188720703125, -0.588134765625
475, 9687591, -5.263924598693848, 2.2418065071105957, 8.0452299118042, -2.1719565391540527, -1.07379949092865, -2.16400408744812, 0.757568359375, -0.188232421875, -0.588623046875
476, 9704258, -5.210290431976318, 2.2740156650543213, 8.024494171142578, -2.099306583404541, -1.043256402015686, -2.2151269912719727, 0.759033203125, -0.189697265625, -0.588623046875
477, 9720925, -5.2355637550354, 2.2789883613586426, 8.048173904418945, -2.240393877029419, -0.8391615748405457, -2.295102596282959, 0.75732421875, -0.190673828125, -0.591064453125
478, 9737592, -5.2580976486206055, 2.2596826553344727, 8.05545711517334, -2.159240245819092, -0.7920599579811096, -2.3493378162384033, 0.759033203125, -0.189208984375, -0.591552734375
479, 9754259, -5.310820579528809, 2.229419708251953, 8.05467414855957, -2.064063310623169, -1.1219514608383179, -2.158881425857544, 0.758544921875, -0.188720703125, -0.591064453125
480, 9770926, -5.248181343078613, 2.2697694301605225, 8.02163028717041, -1.931402325630188, -1.17130708694458, -1.9603577852249146, 0.757080078125, -0.188720703125, -0.587158203125
481, 9787593, -5.2589545249938965, 2.2583117485046387, 8.06821060180664, -1.9086453914642334, -1.0029420852661133, -1.9829351902008057, 0.758544921875, -0.189697265625, -0.587646484375
482, 9804260, -5.244997501373291, 2.2798268795013428, 8.017992973327637, -1.8028907775878906, -1.0248922109603882, -2.1531059741973877, 0.760009765625, -0.188232421875, -0.590087890625
483, 9820927, -5.25191068649292, 2.2783117294311523, 8.025468826293945, -1.823828935623169, -0.9436357617378235, -2.171675205230713, 0.759033203125, -0.189208984375, -0.588134765625
484, 9837594, -5.247860431671143, 2.2846689224243164, 8.03860855102539, -1.8887957334518433, -0.9124395251274109, -2.1458189487457275, 0.757568359375, -0.191162109375, -0.589111328125
485, 9854261, -5.26475191116333, 2.276323080062866, 8.048632621765137, -1.9690022468566895, -0.9890089631080627, -2.211387872695923, 0.759033203125, -0.189208984375, -0.587646484375
486, 9870928, -5.261266231536865, 2.2886993885040283, 8.020845413208008, -1.9380621910095215, -1.1177256107330322, -2.2187390327453613, 0.759033203125, -0.191162109375, -0.588623046875
487, 9887595, -5.221220970153809, 2.3021674156188965, 8.031998634338379, -2.055009365081787, -0.939217746257782, -2.2844221591949463, 0.759521484375, -0.188232421875, -0.590087890625
488, 9904262, -5.275357246398926, 2.2746660709381104, 8.02574348449707, -2.204677104949951, -1.0485711097717285, -2.4485867023468018, 0.757080078125, -0.192138671875, -0.587646484375
489, 9920929, -5.292747974395752, 2.261605978012085, 8.050365447998047, -2.035569429397583, -1.105738639831543, -2.3361213207244873, 0.760009765625, -0.190185546875, -0.588623046875
490, 9937596, -5.294384956359863, 2.256498098373413, 8.032407760620117, -2.0180625915527344, -1.297206163406372, -2.0673162937164307, 0.759521484375, -0.192138671875, -0.588623046875
491, 9954263, -5.251744747161865, 2.303274154663086, 8.031608581542969, -2.16172456741333, -1.4893271923065186, -2.022891044616699, 0.759033203125, -0.191650390625, -0.589599609375
492, 9970930, -5.231438159942627, 2.297365665435791, 8.027582168579102, -2.364743709564209, -1.3484444618225098, -2.15091609954834, 0.760009765625, -0.191650390625, -0.588134765625
493, 9987597, -5.260612487792969, 2.2890825271606445, 8.030339241027832, -2.2962934970855713, -1.221469521522522, -2.3363261222839355, 0.760009765625, -0.190185546875, -0.589111328125
494, 10004264, -5.248483180999756, 2.2943596839904785, 8.035326957702637, -2.2971389293670654, -1.0910111665725708, -2.3788177967071533, 0.759521484375, -0.190185546875, -0.587646484375
495, 10020931, -5.252119064331055, 2.2780685424804688, 8.003071784973145, -2.430197238922119, -1.029809832572937, -2.4848930835723877, 0.759521484375, -0.189208984375, -0.588623046875
496, 10037598, -5.283227920532227, 2.2703709602355957, 8.000264167785645, -2.3947877883911133, -1.2220460176467896, -2.428250551223755, 0.761474609375, -0.190673828125, -0.588134765625
497, 10054265, -5.2790632247924805, 2.3119027614593506, 7.99768590927124, -2.3840558528900146, -1.2858086824417114, -2.475851535797119, 0.760498046875, -0.191650390625, -0.5849609375
498, 10070932, -5.259071350097656, 2.284878730773926, 8.013622283935547, -2.4922308921813965, -1.1694501638412476, -2.6016738414764404, 0.761474609375, -0.190673828125, -0.591064453125
499, 10087599, -5.271476745605469, 2.270965099334717, 8.022262573242188, -2.416161298751831, -1.0324609279632568, -2.603210687637329, 0.760009765625, -0.189697265625, -0.58642578125
500, 10104266, -5.305069446563721, 2.288034439086914, 8.01679515838623, -2.424574851989746, -1.0043507814407349, -2.6633880138397217, 0.760986328125, -0.189208984375, -0.5869140625
501, 10120933, -5.2570624351501465, 2.283520460128784, 8.000543594360352, -2.3171939849853516, -1.2532166242599487, -2.5027709007263184, 0.759033203125, -0.191650390625, -0.587158203125
502, 10137600, -5.255229949951172, 2.2847213745117188, 8.034128189086914, -2.4220008850097656, -0.945019006729126, -2.697709083557129, 0.7626953125, -0.189208984375, -0.589111328125
503, 10154267, -5.285984516143799, 2.2456326484680176, 8.04982852935791, -2.2465410232543945, -0.6835644841194153, -2.6058616638183594, 0.761962890625, -0.189697265625, -0.588134765625
504, 10170934, -5.298311233520508, 2.268016815185547, 8.01697826385498, -2.026399850845337, -0.8036880493164062, -2.3868346214294434, 0.760986328125, -0.191162109375, -0.5849609375
505, 10187601, -5.301008701324463, 2.3069779872894287, 7.990121364593506, -2.38195538520813, -0.9496933221817017, -2.532686233520508, 0.761474609375, -0.187744140625, -0.5859375
506, 10204268, -5.291361331939697, 2.2655766010284424, 7.986993312835693, -2.455080032348633, -1.1926426887512207, -2.772588014602661, 0.760986328125, -0.191162109375, -0.5869140625
507, 10220935, -5.285231590270996, 2.273111581802368, 8.00576400756836, -2.37953519821167, -1.2788039445877075, -2.7500104904174805, 0.761474609375, -0.190673828125, -0.5849609375
508, 10237602, -5.280839920043945, 2.269035816192627, 8.03581714630127, -2.424254894256592, -1.0991946458816528, -2.6885266304016113, 0.762939453125, -0.189697265625, -0.590576171875
509, 10254269, -5.3033127784729, 2.255034923553467, 8.039451599121094, -2.294257640838623, -1.1056746244430542, -2.6609930992126465, 0.76318359375, -0.190673828125, -0.582275390625
510, 10270936, -5.337686538696289, 2.24079966545105, 8.024435043334961, -2.2910819053649902, -1.1913620233535767, -2.6725447177886963, 0.76220703125, -0.188720703125, -0.58544921875
511, 10287603, -5.296541213989258, 2.2879490852355957, 8.023263931274414, -2.174722909927368, -1.4352203607559204, -2.5010030269622803, 0.7626953125, -0.189208984375, -0.58544921875
512, 10304270, -5.283277988433838, 2.3132357597351074, 8.007036209106445, -2.3464694023132324, -1.4210439920425415, -2.7580912113189697, 0.7626953125, -0.188232421875, -0.58740234375
513, 10320937, -5.290433406829834, 2.2691502571105957, 8.00942325592041, -2.43770170211792, -1.3051722049713135, -2.815540313720703, 0.76220703125, -0.190185546875, -0.58544921875
514, 10337604, -5.288679122924805, 2.275418281555176, 8.002450942993164, -2.4432213306427, -1.2140806913375854, -2.835531234741211, 0.763671875, -0.188232421875, -0.58447265625
515, 10354271, -5.28754186630249, 2.2705743312835693, 8.024818420410156, -2.4469094276428223, -0.9883428812026978, -2.798187732696533, 0.76220703125, -0.186279296875, -0.5869140625
516, 10370938, -5.264243125915527, 2.2669076919555664, 8.008957862854004, -1.818360686302185, -1.3407989740371704, -2.6256215572357178, 0.7626953125, -0.187744140625, -0.5869140625
517, 10387605, -5.352065563201904, 2.2567503452301025, 8.021501541137695, -2.531930923461914, -0.9319437742233276, -2.970061779022217, 0.763671875, -0.187744140625, -0.5859375
518, 10404272, -5.318078994750977, 2.263213872909546, 8.023706436157227, -2.395568609237671, -1.068241834640503, -2.8096237182617188, 0.76318359375, -0.187744140625, -0.5859375
519, 10420939, -5.294004440307617, 2.265474796295166, 8.006795883178711, -2.2683379650115967, -0.8719972372055054, -2.7079925537109375, 0.761962890625, -0.187744140625, -0.58642578125
520, 10437606, -5.277766704559326, 2.266864061355591, 8.019675254821777, -2.11613392829895, -0.4875633418560028, -2.80991792678833, 0.76416015625, -0.188232421875, -0.5869140625
521, 10454273, -5.296413898468018, 2.2513062953948975, 8.02307415008545, -1.9170079231262207, -0.3897612392902374, -2.77065372467041, 0.7626953125, -0.18603515625, -0.58642578125
522, 10470940, -5.340660572052002, 2.2632508277893066, 8.012206077575684, -1.9030362367630005, -0.27788496017456055, -2.7254981994628906, 0.7646484375, -0.186279296875, -0.58447265625
523, 10487607, -5.316665172576904, 2.275320291519165, 8.009947776794434, -1.9281494617462158, -0.4208294451236725, -2.6720192432403564, 0.76416015625, -0.189697265625, -0.58349609375
524, 10504274, -5.331216335296631, 2.2664713859558105, 7.987719535827637, -1.966415286064148, -0.41286394000053406, -3.0407397747039795, 0.763671875, -0.185791015625, -0.58349609375
525, 10520941, -5.3466691970825195, 2.259506940841675, 8.016646385192871, -1.9919384717941284, -0.3518160581588745, -2.9309895038604736, 0.763671875, -0.187744140625, -0.5830078125
526, 10537608, -5.3522868156433105, 2.235184907913208, 8.004938125610352, -2.036388874053955, -0.46314162015914917, -2.8360047340393066, 0.765625, -0.185791015625, -0.5830078125
527, 10554275, -5.303961277008057, 2.290839672088623, 7.994713306427002, -1.6572953462600708, -0.665084958076477, -2.4555535316467285, 0.76611328125, -0.188232421875, -0.582275390625
528, 10570942, -5.366966724395752, 2.230692148208618, 7.988107204437256, -1.7473111152648926, -0.6223245859146118, -2.6247894763946533, 0.76513671875, -0.186767578125, -0.5830078125
529, 10587609, -5.306802272796631, 2.31125807762146, 8.020267486572266, -1.9363071918487549, -0.6045876741409302, -2.712512731552124, 0.76513671875, -0.186279296875, -0.582275390625
530, 10604276, -5.334400177001953, 2.2305703163146973, 8.028876304626465, -1.8452669382095337, -0.28747692704200745, -2.7737655639648438, 0.7646484375, -0.187255859375, -0.581787109375
531, 10620943, -5.338860988616943, 2.2405776977539062, 7.984498023986816, -1.6824086904525757, -0.17631782591342926, -2.5924150943756104, 0.769287109375, -0.186767578125, -0.583251953125
532, 10637610, -5.332930088043213, 2.261331796646118, 7.993865013122559, -1.5305765867233276, 0.040141504257917404, -2.4569239616394043, 0.767333984375, -0.186279296875, -0.580322265625
533, 10654277, -5.315526962280273, 2.2878077030181885, 7.974909782409668, -1.4481933116912842, 0.298496812582016, -2.5162558555603027, 0.765625, -0.186767578125, -0.580322265625
534, 10670944, -5.356038570404053, 2.257582902908325, 8.004504203796387, -1.288677453994751, 0.3638860285282135, -2.620422601699829, 0.76611328125, -0.189208984375, -0.579345703125
535, 10687611, -5.342038631439209, 2.250473737716675, 7.942964553833008, -0.7751554846763611, 0.19585390388965607, -2.4968793392181396, 0.767822265625, -0.186279296875, -0.579833984375
536, 10704278, -5.397763252258301, 2.2899112701416016, 7.976956844329834, -1.2609771490097046, 0.2654564082622528, -2.553842306137085, 0.768798828125, -0.188720703125, -0.57861328125
537, 10720945, -5.355736255645752, 2.292246103286743, 7.943009376525879, -1.2611563205718994, 0.2525860071182251, -2.6323065757751465, 0.769287109375, -0.188720703125, -0.579833984375
538, 10737612, -5.346456050872803, 2.287900686264038, 7.970632553100586, -1.500981092453003, 0.44950932264328003, -2.688462734222412, 0.770751953125, -0.186767578125, -0.57763671875
539, 10754279, -5.363357067108154, 2.2743380069732666, 7.988265037536621, -1.2422288656234741, 0.40983521938323975, -2.6823155879974365, 0.769287109375, -0.188232421875, -0.57666015625
540, 10770946, -5.432356834411621, 2.2738022804260254, 7.9585418701171875, -1.331373691558838, 0.4554770290851593, -2.624814748764038, 0.769775390625, -0.188720703125, -0.57666015625
541, 10787613, -5.414179801940918, 2.277954578399658, 7.928165912628174, -1.5331249237060547, 0.1284669041633606, -2.702075719833374, 0.771240234375, -0.187744140625, -0.57763671875
542, 10804280, -5.420285701751709, 2.2707912921905518, 7.9236159324646, -1.6467301845550537, -0.28647810220718384, -2.5224924087524414, 0.769287109375, -0.187744140625, -0.578125
543, 10820947, -5.394454002380371, 2.3110761642456055, 7.926140308380127, -1.793746829032898, -0.4898300766944885, -2.470472812652588, 0.769775390625, -0.187744140625, -0.576171875
544, 10837614, -5.392278671264648, 2.2922377586364746, 7.942454814910889, -1.8140193223953247, -0.4235187768936157, -2.5099034309387207, 0.77197265625, -0.187744140625, -0.57666015625
545, 10854281, -5.438727855682373, 2.25062894821167, 7.931687355041504, -1.440637469291687, -0.5450510382652283, -2.2260382175445557, 0.770751953125, -0.188720703125, -0.57470703125
546, 10870948, -5.418158531188965, 2.28473162651062, 7.952334880828857, -1.5309607982635498, -0.4018760919570923, -2.2389726638793945, 0.770263671875, -0.188720703125, -0.572998046875
547, 10887615, -5.359601974487305, 2.257289171218872, 7.977413654327393, -1.5226495265960693, -0.26105743646621704, -2.234003782272339, 0.77197265625, -0.187744140625, -0.5751953125
548, 10904282, -5.422814846038818, 2.3182902336120605, 7.961554050445557, -1.2320860624313354, -0.10147751122713089, -2.3970539569854736, 0.7724609375, -0.1884765625, -0.57470703125
549, 10920949, -5.412281513214111, 2.302154541015625, 7.932060241699219, -1.2575067281723022, -0.0911812111735344, -2.5254251956939697, 0.7724609375, -0.186279296875, -0.57568359375
550, 10937616, -5.405351161956787, 2.309954881668091, 7.945041179656982, -1.0573434829711914, -0.12087912857532501, -2.578430414199829, 0.771484375, -0.188232421875, -0.572509765625
551, 10954283, -5.422669887542725, 2.310272693634033, 7.909945487976074, -1.3114984035491943, 0.008676301687955856, -2.5365536212921143, 0.770263671875, -0.188720703125, -0.57470703125
552, 10970950, -5.43868350982666, 2.309612989425659, 7.913182735443115, -1.2490674257278442, 0.14537127315998077, -2.619385242462158, 0.77294921875, -0.18896484375, -0.574462890625
553, 10987617, -5.454104423522949, 2.3075473308563232, 7.907710075378418, -1.350403904914856, -0.04876657947897911, -2.5695300102233887, 0.77099609375, -0.189453125, -0.573486328125
554, 11004284, -5.471397399902344, 2.29931902885437, 7.905020236968994, -1.5503751039505005, -0.40888115763664246, -2.471407890319824, 0.7744140625, -0.18896484375, -0.571533203125
555, 11020951, -5.459282398223877, 2.315911054611206, 7.86342191696167, -1.9211446046829224, -0.8713440895080566, -2.3471479415893555, 0.7734375, -0.1884765625, -0.572021484375
556, 11037618, -5.444947719573975, 2.300663709640503, 7.881319046020508, -2.1710989475250244, -1.3652466535568237, -2.293975830078125, 0.7734375, -0.18798828125, -0.571533203125
557, 11054285, -5.45022439956665, 2.3093228340148926, 7.917769432067871, -2.2555055618286133, -1.5476346015930176, -2.201744318008423, 0.7734375, -0.189453125, -0.571533203125
558, 11070952, -5.425966739654541, 2.289038896560669, 7.8995537757873535, -2.1337809562683105, -1.4705402851104736, -2.1751201152801514, 0.7734375, -0.189453125, -0.571044921875
559, 11087619, -5.436402320861816, 2.3072926998138428, 7.909608364105225, -2.0648701190948486, -1.407430648803711, -2.173506498336792, 0.77294921875, -0.19189453125, -0.573974609375
560, 11104286, -5.4431047439575195, 2.2945001125335693, 7.913461208343506, -1.9192874431610107, -1.6243315935134888, -2.1162619590759277, 0.77294921875, -0.1884765625, -0.572021484375
561, 11120953, -5.43643045425415, 2.3286144733428955, 7.924213886260986, -1.8955574035644531, -1.3366756439208984, -2.0491697788238525, 0.77392578125, -0.189453125, -0.571533203125
562, 11137620, -5.427724361419678, 2.324925661087036, 7.9070868492126465, -1.7862809896469116, -1.209892749786377, -2.026963233947754, 0.77099609375, -0.18994140625, -0.570556640625
563, 11154287, -5.441990852355957, 2.2935585975646973, 7.901004791259766, -1.7861273288726807, -1.049864649772644, -2.04532790184021, 0.77294921875, -0.189453125, -0.572998046875
564, 11170954, -5.437160491943359, 2.316084861755371, 7.9213151931762695, -1.6803725957870483, -1.093098759651184, -1.866794466972351, 0.77392578125, -0.18798828125, -0.571533203125
565, 11187621, -5.445287227630615, 2.321186065673828, 7.8967814445495605, -1.3621729612350464, -0.9398451447486877, -1.844152808189392, 0.77294921875, -0.18994140625, -0.572021484375
566, 11204288, -5.428536415100098, 2.3353872299194336, 7.921765327453613, -1.2923014163970947, -0.9899437427520752, -1.7816451787948608, 0.7734375, -0.19091796875, -0.572509765625
567, 11220955, -5.423973560333252, 2.3304035663604736, 7.9181437492370605, -1.2669450044631958, -0.87905353307724, -1.735004186630249, 0.775390625, -0.19189453125, -0.571044921875
568, 11237622, -5.446771144866943, 2.313077449798584, 7.902539253234863, -1.0660903453826904, -0.7218939661979675, -1.6988648176193237, 0.7734375, -0.19189453125, -0.5693359375
569, 11254289, -5.430211067199707, 2.3312795162200928, 7.880486011505127, -0.9568902850151062, -0.7417820692062378, -1.5048867464065552, 0.7744140625, -0.19091796875, -0.571533203125
570, 11270956, -5.44013786315918, 2.3625316619873047, 7.889724254608154, -1.2163727283477783, -0.5841232538223267, -1.6681039333343506, 0.77294921875, -0.1923828125, -0.5693359375
571, 11287623, -5.448647975921631, 2.353487253189087, 7.895718574523926, -1.3126124143600464, -0.4692758321762085, -1.9991610050201416, 0.775390625, -0.1923828125, -0.571044921875
572, 11304290, -5.46650505065918, 2.321409225463867, 7.921435356140137, -1.7954500913619995, -0.5760936737060547, -2.205291986465454, 0.7744140625, -0.19287109375, -0.56884765625
573, 11320957, -5.485605716705322, 2.342521905899048, 7.8703203201293945, -1.8564597368240356, -0.8766202926635742, -2.162787675857544, 0.7724609375, -0.1923828125, -0.5693359375
574, 11337624, -5.485048770904541, 2.3500816822052, 7.854520797729492, -1.9383695125579834, -1.2925834655761719, -2.1199636459350586, 0.775390625, -0.193359375, -0.5703125
575, 11354291, -5.466831207275391, 2.356492280960083, 7.884756088256836, -2.1686272621154785, -1.607568383216858, -2.089906692504883, 0.77490234375, -0.19287109375, -0.56884765625
576, 11370958, -5.465818405151367, 2.3355507850646973, 7.894851207733154, -2.2327868938446045, -1.8316153287887573, -2.048375368118286, 0.775634765625, -0.193359375, -0.571044921875
577, 11387625, -5.457160472869873, 2.3236372470855713, 7.891432762145996, -2.207852840423584, -1.9146260023117065, -1.9941792488098145, 0.776123046875, -0.19189453125, -0.5693359375
578, 11404292, -5.459903240203857, 2.338261365890503, 7.905053615570068, -2.1307973861694336, -1.8937901258468628, -1.9321448802947998, 0.77490234375, -0.1923828125, -0.57080078125
579, 11420959, -5.453494071960449, 2.345407247543335, 7.8709716796875, -2.076613664627075, -1.9211187362670898, -1.7833095788955688, 0.77490234375, -0.1923828125, -0.571044921875
580, 11437626, -5.45538330078125, 2.3717715740203857, 7.8658952713012695, -2.1172993183135986, -1.9824485778808594, -1.7809405326843262, 0.7734375, -0.1904296875, -0.5693359375
581, 11454293, -5.465482711791992, 2.337966203689575, 7.88357400894165, -2.1628260612487793, -2.040358781814575, -1.7760868072509766, 0.7744140625, -0.19189453125, -0.56689453125
582, 11470960, -5.459114074707031, 2.3337390422821045, 7.884210586547852, -2.135650634765625, -2.2117717266082764, -1.6992616653442383, 0.77392578125, -0.19384765625, -0.56787109375
583, 11487627, -5.455158710479736, 2.3354432582855225, 7.8922576904296875, -2.128620147705078, -2.2981762886047363, -1.534456729888916, 0.77294921875, -0.19384765625, -0.571533203125
584, 11504294, -5.455214023590088, 2.364253520965576, 7.869632720947266, -2.3070642948150635, -2.444348096847534, -1.5170402526855469, 0.77392578125, -0.194091796875, -0.5693359375
585, 11520961, -5.459740161895752, 2.3492796421051025, 7.912383079528809, -2.453171730041504, -2.6070146560668945, -1.5162079334259033, 0.7744140625, -0.194580078125, -0.5703125
586, 11537628, -5.44566535949707, 2.352674961090088, 7.8924760818481445, -2.5293569564819336, -2.694328546524048, -1.4695289134979248, 0.7734375, -0.194580078125, -0.570556640625
587, 11554295, -5.430425643920898, 2.302119255065918, 7.894059658050537, -2.5197770595550537, -2.820828914642334, -1.5818272829055786, 0.775390625, -0.193603515625, -0.57080078125
588, 11570962, -5.449164867401123, 2.378965139389038, 7.888359546661377, -2.2397665977478027, -2.686439275741577, -1.1211062669754028, 0.77392578125, -0.1923828125, -0.56982421875
589, 11587629, -5.415489673614502, 2.386260509490967, 7.896859645843506, -2.198030948638916, -2.6187448501586914, -1.3055179119110107, 0.771484375, -0.196044921875, -0.570556640625
590, 11604296, -5.423018932342529, 2.381107807159424, 7.913809776306152, -2.304771900177002, -2.698925733566284, -1.4078149795532227, 0.7705078125, -0.195556640625, -0.5693359375
591, 11620963, -5.415595531463623, 2.3965883255004883, 7.931534767150879, -2.3453681468963623, -2.5109922885894775, -1.581200122833252, 0.77099609375, -0.196044921875, -0.571533203125
592, 11637630, -5.403635025024414, 2.3729476928710938, 7.908409595489502, -2.375552177429199, -2.4374325275421143, -1.5571752786636353, 0.77392578125, -0.195068359375, -0.571533203125
593, 11654297, -5.370345115661621, 2.4083445072174072, 7.927913665771484, -2.4137539863586426, -2.3047590255737305, -1.8411564826965332, 0.7744140625, -0.196533203125, -0.571533203125
594, 11670964, -5.416900157928467, 2.364222288131714, 7.928472995758057, -2.3546907901763916, -1.9468470811843872, -1.9270102977752686, 0.7724609375, -0.197021484375, -0.572021484375
595, 11687631, -5.411613464355469, 2.338111400604248, 7.930256366729736, -2.2496020793914795, -1.759259581565857, -1.9064302444458008, 0.7724609375, -0.195068359375, -0.570556640625
596, 11704298, -5.425495624542236, 2.3512823581695557, 7.8886260986328125, -2.140824794769287, -1.704179286956787, -1.7876511812210083, 0.771484375, -0.1943359375, -0.570068359375
597, 11720965, -5.396493434906006, 2.355180263519287, 7.924746036529541, -2.035543918609619, -1.570289134979248, -1.8228302001953125, 0.7705078125, -0.19384765625, -0.571044921875
598, 11737632, -5.419582366943359, 2.3480985164642334, 7.893819332122803, -1.9308264255523682, -1.5161055326461792, -1.8843650817871094, 0.770263671875, -0.1943359375, -0.572021484375
599, 11754299, -5.422255039215088, 2.3769476413726807, 7.900139331817627, -1.817823052406311, -1.5168097019195557, -1.9357565641403198, 0.77294921875, -0.196533203125, -0.571044921875
600, 11770966, -5.427791595458984, 2.357062339782715, 7.886224746704102, -1.7515373229980469, -1.5856437683105469, -1.677452564239502, 0.771484375, -0.197509765625, -0.5703125
601, 11787633, -5.429561614990234, 2.3923733234405518, 7.890244483947754, -1.8357645273208618, -1.7836298942565918, -1.514568567276001, 0.769775390625, -0.197021484375, -0.572021484375
602, 11804300, -5.428636074066162, 2.373438835144043, 7.88765287399292, -1.8014051914215088, -2.0085864067077637, -1.5762442350387573, 0.77099609375, -0.197021484375, -0.572021484375
603, 11820967, -5.430598258972168, 2.3757212162017822, 7.8979668617248535, -1.8601738214492798, -2.0506553649902344, -1.3993884325027466, 0.7724609375, -0.196044921875, -0.5703125
604, 11837634, -5.407208442687988, 2.3671162128448486, 7.915346145629883, -2.009917974472046, -2.1007792949676514, -1.4034093618392944, 0.771484375, -0.195556640625, -0.571044921875
605, 11854301, -5.405577182769775, 2.394840955734253, 7.9109883308410645, -2.0274882316589355, -1.9939486980438232, -1.4886356592178345, 0.7724609375, -0.197021484375, -0.5703125
606, 11870968, -5.4142937660217285, 2.4016451835632324, 7.899574279785156, -2.196058511734009, -1.9695268869400024, -1.5712623596191406, 0.77099609375, -0.197998046875, -0.571533203125
607, 11887635, -5.412526607513428, 2.376441240310669, 7.908984661102295, -2.1596498489379883, -2.000019073486328, -1.5410009622573853, 0.77099609375, -0.198486328125, -0.570556640625
608, 11904302, -5.393361568450928, 2.3707261085510254, 7.921171188354492, -2.1434884071350098, -2.065587282180786, -1.7140274047851562, 0.769775390625, -0.200439453125, -0.570556640625
609, 11920969, -5.42772912979126, 2.3741564750671387, 7.9192094802856445, -2.0264766216278076, -2.0195231437683105, -1.694075107574463, 0.77099609375, -0.197998046875, -0.573486328125
610, 11937636, -5.4304351806640625, 2.408952236175537, 7.8942341804504395, -2.228356122970581, -2.141464948654175, -1.5395408868789673, 0.77197265625, -0.197509765625, -0.572021484375
611, 11954303, -5.405126094818115, 2.3884477615356445, 7.884742259979248, -2.2890584468841553, -2.353295087814331, -1.4968191385269165, 0.769775390625, -0.198974609375, -0.574951171875
612, 11970970, -5.361109256744385, 2.408944845199585, 7.917857646942139, -2.256005048751831, -2.461419105529785, -1.5801115036010742, 0.7705078125, -0.197509765625, -0.572998046875
613, 11987637, -5.35219669342041, 2.3871068954467773, 7.93311071395874, -2.5457489490509033, -2.356637477874756, -1.9584498405456543, 0.77099609375, -0.197509765625, -0.573974609375
614, 12004304, -5.330336570739746, 2.419330358505249, 7.911535739898682, -2.319716691970825, -1.7247593402862549, -2.0926599502563477, 0.769287109375, -0.197509765625, -0.573974609375
615, 12020971, -5.371321201324463, 2.3986594676971436, 7.908357620239258, -2.1576263904571533, -1.2132736444473267, -2.138801336288452, 0.769287109375, -0.198486328125, -0.574951171875
616, 12037638, -5.426290988922119, 2.4490973949432373, 7.862511157989502, -2.0390524864196777, -1.2401156425476074, -2.1271603107452393, 0.769287109375, -0.197509765625, -0.573486328125
617, 12054305, -5.41840124130249, 2.4126551151275635, 7.838537216186523, -2.2513558864593506, -1.539284586906433, -1.9347575902938843, 0.771484375, -0.200927734375, -0.572509765625
618, 12070972, -5.385411739349365, 2.269500255584717, 7.901617527008057, -2.1490466594696045, -1.281198501586914, -1.6987367868423462, 0.771484375, -0.198486328125, -0.571533203125
619, 12087639, -5.414731502532959, 2.384154796600342, 7.854455471038818, -1.009306788444519, -0.41456714272499084, -1.47874915599823, 0.7705078125, -0.199951171875, -0.573486328125
620, 12104306, -5.302824020385742, 2.225656509399414, 7.904637336730957, -2.1273398399353027, -2.1238181591033936, -0.47949540615081787, 0.77099609375, -0.199462890625, -0.572021484375
621, 12120973, -5.64923095703125, 2.816117525100708, 7.599778175354004, -3.8279201984405518, -2.0410375595092773, -0.8753268122673035, 0.7705078125, -0.197998046875, -0.572021484375
622, 12137640, -5.348843097686768, 2.7932167053222656, 8.00741195678711, -4.215569972991943, -6.87694787979126, 1.6456869840621948, 0.767333984375, -0.200927734375, -0.573974609375
623, 12154307, -5.35245943069458, 2.148775577545166, 7.922152996063232, -5.895200252532959, -7.276493549346924, -2.8991153240203857, 0.766845703125, -0.200927734375, -0.574462890625
624, 12170974, -5.368286609649658, 2.245496988296509, 7.916232585906982, -5.68211555480957, -7.3235697746276855, -2.2994191646575928, 0.766357421875, -0.199462890625, -0.5751953125
625, 12187641, -5.382473945617676, 2.228903293609619, 7.9513068199157715, -5.018002986907959, -7.7188496589660645, -1.909145474433899, 0.767333984375, -0.199951171875, -0.576171875
626, 12204308, -5.273374557495117, 2.2685513496398926, 8.07280445098877, -3.4305660724639893, -6.066113471984863, -0.5791289210319519, 0.765625, -0.199951171875, -0.580810546875
627, 12220975, -5.19429349899292, 2.431652069091797, 8.109101295471191, -2.333265781402588, -3.268436908721924, -1.31947660446167, 0.765625, -0.198486328125, -0.581298828125
628, 12237642, -5.2137956619262695, 2.3621888160705566, 8.127309799194336, -1.3995418548583984, -0.8733417987823486, -2.0836570262908936, 0.765625, -0.200439453125, -0.580322265625
629, 12254309, -5.286491870880127, 2.314263105392456, 8.071983337402344, -0.393718421459198, 0.8422031402587891, -2.2483723163604736, 0.76513671875, -0.200439453125, -0.581298828125
630, 12270976, -5.338603496551514, 2.3794825077056885, 7.993452548980713, 0.30587324500083923, 1.8598980903625488, -2.0330848693847656, 0.765625, -0.200927734375, -0.5791015625
631, 12287643, -5.356451988220215, 2.5489213466644287, 7.90667200088501, -0.08619954437017441, 1.9273494482040405, -2.3974640369415283, 0.768310546875, -0.199462890625, -0.5771484375
632, 12304310, -5.3130059242248535, 2.5550498962402344, 7.931818008422852, -0.6526755690574646, 1.977434515953064, -2.872387170791626, 0.766357421875, -0.200927734375, -0.57763671875
633, 12320977, -5.159375190734863, 2.560387134552002, 7.953158855438232, -1.1878273487091064, 2.820681571960449, -3.76180100440979, 0.769287109375, -0.200439453125, -0.57861328125
634, 12337644, -5.185484886169434, 2.4714813232421875, 7.975395202636719, -1.6261377334594727, 4.669829368591309, -4.811999320983887, 0.769775390625, -0.198974609375, -0.575439453125
635, 12354311, -5.283801555633545, 2.448317289352417, 7.883242607116699, -1.8497366905212402, 5.616039752960205, -5.647998332977295, 0.769775390625, -0.201416015625, -0.573974609375
636, 12370978, -5.3397088050842285, 2.488947629928589, 7.8798136711120605, -2.3017754554748535, 5.725713729858398, -6.447575092315674, 0.7705078125, -0.198486328125, -0.571044921875
637, 12387645, -5.420736789703369, 2.458566665649414, 7.866456508636475, -3.13033390045166, 5.4970316886901855, -7.329421520233154, 0.77392578125, -0.194580078125, -0.5703125
638, 12404312, -5.492587566375732, 2.3608956336975098, 7.853692054748535, -3.6888186931610107, 5.15526819229126, -7.675167560577393, 0.775146484375, -0.194091796875, -0.56884765625
639, 12420979, -5.500117778778076, 2.3656721115112305, 7.854984760284424, -3.9621834754943848, 5.202510356903076, -7.790616989135742, 0.776611328125, -0.194580078125, -0.56689453125
640, 12437646, -5.445456027984619, 2.326967477798462, 7.887843132019043, -3.6098554134368896, 6.069155693054199, -8.284917831420898, 0.779052734375, -0.18994140625, -0.56640625
641, 12454313, -5.479297161102295, 2.2616779804229736, 7.8943610191345215, -3.3442001342773438, 7.392794609069824, -8.859333992004395, 0.78271484375, -0.189453125, -0.566162109375
642, 12470980, -5.5424065589904785, 2.1600966453552246, 7.831790924072266, -2.885105609893799, 9.11169147491455, -8.652409553527832, 0.783203125, -0.1875, -0.562255859375
643, 12487647, -5.432079315185547, 2.216982841491699, 7.906876087188721, -2.351337194442749, 11.959122657775879, -8.500899314880371, 0.785400390625, -0.1865234375, -0.560546875
644, 12504314, -5.353353023529053, 2.279682159423828, 8.073494911193848, -1.4299585819244385, 15.613384246826172, -9.046992301940918, 0.787353515625, -0.1865234375, -0.555419921875
645, 12520981, -5.361316680908203, 2.327169179916382, 8.053013801574707, -0.895741879940033, 21.353559494018555, -10.577885627746582, 0.79345703125, -0.1845703125, -0.55029296875
646, 12537648, -5.3233113288879395, 2.501258373260498, 8.028403282165527, -0.5325666069984436, 28.002952575683594, -14.440693855285645, 0.797607421875, -0.1806640625, -0.545166015625
647, 12554315, -5.253372669219971, 2.563253879547119, 8.121460914611816, 1.247455358505249, 38.35889434814453, -18.87666893005371, 0.804443359375, -0.1787109375, -0.534912109375
648, 12570982, -5.356381893157959, 2.402120351791382, 8.1602201461792, 4.180609703063965, 52.050621032714844, -22.452795028686523, 0.811279296875, -0.172607421875, -0.52294921875
649, 12587649, -5.425987720489502, 2.43440318107605, 8.1576509475708, 5.666348934173584, 69.25270080566406, -25.05039405822754, 0.822998046875, -0.17041015625, -0.5068359375
650, 12604316, -5.672963619232178, 2.388476610183716, 8.05937385559082, 7.130852699279785, 88.74006652832031, -29.191808700561523, 0.837646484375, -0.1640625, -0.48681640625
651, 12620983, -5.860184192657471, 2.4240260124206543, 7.917366981506348, 10.111385345458984, 109.23523712158203, -34.18893051147461, 0.853515625, -0.16064453125, -0.46044921875
652, 12637650, -6.088044166564941, 2.438972234725952, 7.599938869476318, 13.307389259338379, 133.39715576171875, -40.3579216003418, 0.872314453125, -0.15087890625, -0.42919921875
653, 12654317, -6.308372497558594, 2.4514048099517822, 7.602055549621582, 12.728660583496094, 158.78321838378906, -47.51071548461914, 0.892578125, -0.14404296875, -0.388427734375
654, 12670984, -6.667681694030762, 2.4973299503326416, 7.594518184661865, 4.916962623596191, 184.66200256347656, -58.1513786315918, 0.91552734375, -0.128662109375, -0.341064453125
655, 12687651, -6.736788272857666, 2.632835865020752, 7.615731716156006, -3.1322522163391113, 219.29856872558594, -71.240234375, 0.936279296875, -0.1103515625, -0.2861328125
656, 12704318, -6.9592461585998535, 2.677183151245117, 6.987879753112793, -13.065193176269531, 256.51800537109375, -94.14979553222656, 0.96044921875, -0.0869140625, -0.218017578125
657, 12720985, -8.136542320251465, 2.267956256866455, 6.810257434844971, -23.3377628326416, 295.2421569824219, -119.81123352050781, 0.978515625, -0.053466796875, -0.138671875
658, 12737652, -10.62368106842041, 3.5810203552246094, 8.31904411315918, -29.307443618774414, 320.7977600097656, -131.7362060546875, 0.99169921875, -0.01611328125, -0.048095703125
659, 12754319, -12.990793228149414, 4.355665683746338, 7.996843338012695, -26.450294494628906, 333.94873046875, -137.95712280273438, 0.99365234375, 0.022705078125, 0.043701171875
660, 12770986, -18.388164520263672, 5.096461772918701, 9.866765975952148, -26.293819427490234, 329.1087951660156, -149.66896057128906, 0.98681640625, 0.064697265625, 0.14111328125
661, 12787653, -19.159765243530273, 3.9709062576293945, 11.461699485778809, -16.0026798248291, 303.39794921875, -149.1807098388672, 0.969970703125, 0.105712890625, 0.22607421875
662, 12804320, -16.912639617919922, 5.716243743896484, 13.026707649230957, -20.11520767211914, 259.99761962890625, -142.732666015625, 0.94970703125, 0.145751953125, 0.298828125
663, 12820987, -11.957344055175781, 6.025806903839111, 13.367527961730957, -27.56618309020996, 232.4844512939453, -143.96044921875, 0.922607421875, 0.1826171875, 0.365478515625
