sep=,
DeviceTag:,B,,,,,,,,,,,,,,,,,
FirmwareVersion:,2.2.1,,,,,,,,,,,,,,,,,
AppVersion:,2022.0.1,,,,,,,,,,,,,,,,,
SyncStatus:,Synced,,,,,,,,,,,,,,,,,
OutputRate:,60Hz,,,,,,,,,,,,,,,,,
FilterProfile:,General,,,,,,,,,,,,,,,,,
Measurement Mode:,Inertial Mode - Rate quantities (with mag),,,,,,,,,,,,,,,,,
StartTime:,2022-08-16 15:09:38.992 +0300,,,,,,,,,,,,,,,,,
© Xsens Technologies B. V. 2005-2022,,,,,,,,,,,,,,,,,,,

PacketCounter,SampleTimeFine,Acc_X,Acc_Y,Acc_Z,Gyr_X,Gyr_Y,Gyr_Z,Mag_X,Mag_Y,Mag_Z
1, 1804100, -5.378274440765381, -1.7850233316421509, 7.865609169006348, -0.40838170051574707, -0.4663304388523102, -1.6796809434890747, 0.729736328125, 0.055419921875, -0.6220703125
2, 1820767, -5.381886005401611, -1.7600263357162476, 7.895954608917236, -0.5208470225334167, -0.5258159041404724, -1.6971486806869507, 0.732666015625, 0.05908203125, -0.618896484375
3, 1837434, -5.376067161560059, -1.7698307037353516, 7.878787994384766, -0.5467926859855652, -0.6196863651275635, -1.7476181983947754, 0.729736328125, 0.055908203125, -0.62158203125
4, 1854101, -5.374719619750977, -1.7830612659454346, 7.848593711853027, -0.5011764764785767, -0.597992479801178, -1.6921156644821167, 0.72900390625, 0.058349609375, -0.62109375
5, 1870768, -5.350225448608398, -1.7805922031402588, 7.862024784088135, -0.4595174789428711, -0.5379051566123962, -1.675903081893921, 0.729736328125, 0.05859375, -0.6220703125
6, 1887435, -5.350505352020264, -1.7786340713500977, 7.897621154785156, -0.5747105479240417, -0.29066571593284607, -1.6195805072784424, 0.731689453125, 0.057861328125, -0.618408203125
7, 1904102, -5.391082286834717, -1.7637238502502441, 7.873318672180176, -0.5883621573448181, -0.1637035757303238, -1.6865195035934448, 0.730712890625, 0.057861328125, -0.619384765625
8, 1920769, -5.384956359863281, -1.7633814811706543, 7.857809066772461, -0.45803195238113403, -0.29690244793891907, -1.7324559688568115, 0.730712890625, 0.0595703125, -0.62060546875
9, 1937436, -5.38304328918457, -1.7824031114578247, 7.862512111663818, -0.5831243395805359, -0.49474769830703735, -1.7635879516601562, 0.72900390625, 0.057861328125, -0.62109375
10, 1954103, -5.374373435974121, -1.7706050872802734, 7.841348171234131, -0.5618530511856079, -0.46364113688468933, -1.5975282192230225, 0.730224609375, 0.057861328125, -0.62158203125
11, 1970770, -5.3835129737854, -1.7664515972137451, 7.86221170425415, -0.5261617302894592, -0.42586231231689453, -1.881098985671997, 0.72998046875, 0.05859375, -0.618896484375
12, 1987437, -5.36561393737793, -1.7667216062545776, 7.89451789855957, -0.5786293148994446, -0.10519136488437653, -1.7247720956802368, 0.730712890625, 0.057373046875, -0.62109375
13, 2004104, -5.391413688659668, -1.763197660446167, 7.866020679473877, -0.7823526859283447, -0.07300899177789688, -1.6398531198501587, 0.7275390625, 0.057373046875, -0.6220703125
14, 2020771, -5.391647815704346, -1.7950650453567505, 7.825906276702881, -0.5561156868934631, -0.3254093527793884, -1.7987030744552612, 0.729248046875, 0.056884765625, -0.6220703125
15, 2037438, -5.365663051605225, -1.8014963865280151, 7.898794651031494, -0.4842209219932556, -0.43788760900497437, -1.5911378860473633, 0.73046875, 0.060546875, -0.618896484375
16, 2054105, -5.3756794929504395, -1.7625012397766113, 7.854856967926025, -0.4217642843723297, -0.33488601446151733, -1.4608073234558105, 0.733154296875, 0.05810546875, -0.620361328125
17, 2070772, -5.362199783325195, -1.768651008605957, 7.867272853851318, -0.4510396718978882, -0.33319565653800964, -1.549222707748413, 0.729248046875, 0.058349609375, -0.623046875
18, 2087439, -5.395754337310791, -1.7668497562408447, 7.839849948883057, -0.5301957130432129, -0.2532711923122406, -1.668603539466858, 0.731201171875, 0.05810546875, -0.619384765625
19, 2104106, -5.397433280944824, -1.7778912782669067, 7.8629150390625, -0.4131969213485718, -0.32250234484672546, -1.701554298400879, 0.72900390625, 0.057861328125, -0.619873046875
20, 2120773, -5.397068023681641, -1.7765021324157715, 7.863338470458984, -0.281099408864975, -0.5886566638946533, -1.6100783348083496, 0.730712890625, 0.060546875, -0.62109375
21, 2137440, -5.368731498718262, -1.7786777019500732, 7.839981555938721, -0.21015220880508423, -0.6800300478935242, -1.5190764665603638, 0.730712890625, 0.056396484375, -0.620361328125
22, 2154107, -5.388309955596924, -1.7698239088058472, 7.8599653244018555, -0.300923615694046, -0.5091933012008667, -1.6394051313400269, 0.729736328125, 0.058349609375, -0.620361328125
23, 2170774, -5.3726911544799805, -1.7602795362472534, 7.857492923736572, -0.33984214067459106, -0.48947152495384216, -1.6574875116348267, 0.7294921875, 0.058349609375, -0.618408203125
24, 2187441, -5.382052421569824, -1.7812645435333252, 7.865253925323486, -0.3623172342777252, -0.35421082377433777, -1.5861047506332397, 0.732666015625, 0.05810546875, -0.619384765625
25, 2204108, -5.379214763641357, -1.7637306451797485, 7.858089447021484, -0.3490499258041382, -0.3617153763771057, -1.6223725080490112, 0.731201171875, 0.057373046875, -0.618896484375
26, 2220775, -5.395932197570801, -1.773763656616211, 7.861958026885986, -0.367183655500412, -0.3096831440925598, -1.5632200241088867, 0.729248046875, 0.056396484375, -0.618408203125
27, 2237442, -5.39889669418335, -1.7729032039642334, 7.843188762664795, -0.4575452506542206, -0.3966894745826721, -1.59404456615448, 0.731689453125, 0.05810546875, -0.620361328125
28, 2254109, -5.383500099182129, -1.7752628326416016, 7.847736358642578, -0.41089174151420593, -0.5527220964431763, -1.5989497900009155, 0.730712890625, 0.05859375, -0.620361328125
29, 2270776, -5.373830795288086, -1.7810580730438232, 7.844147682189941, -0.3735484480857849, -0.6382044553756714, -1.5326895713806152, 0.731689453125, 0.057861328125, -0.618408203125
30, 2287443, -5.370336532592773, -1.7613145112991333, 7.86656379699707, -0.362496554851532, -0.53396075963974, -1.5026074647903442, 0.731201171875, 0.057861328125, -0.618896484375
31, 2304110, -5.386745929718018, -1.7697982788085938, 7.880386829376221, -0.3899405598640442, -0.327612042427063, -1.522457242012024, 0.730712890625, 0.057861328125, -0.62158203125
32, 2320777, -5.385988712310791, -1.7766741514205933, 7.860873222351074, -0.40794628858566284, -0.31910863518714905, -1.558084487915039, 0.731689453125, 0.057861328125, -0.62158203125
33, 2337444, -5.384764671325684, -1.7799495458602905, 7.865668773651123, -0.4512573182582855, -0.26482251286506653, -1.5654993057250977, 0.731689453125, 0.057861328125, -0.619384765625
34, 2354111, -5.387572765350342, -1.7532557249069214, 7.857725620269775, -0.3935391306877136, -0.22822196781635284, -1.541487693786621, 0.731689453125, 0.05810546875, -0.618896484375
35, 2370778, -5.409688949584961, -1.7566312551498413, 7.8580851554870605, -0.4600105285644531, -0.4180313050746918, -1.6321886777877808, 0.730712890625, 0.056884765625, -0.619873046875
36, 2387445, -5.413306713104248, -1.7832496166229248, 7.862793922424316, -0.4728488326072693, -0.5332563519477844, -1.5743869543075562, 0.730224609375, 0.0595703125, -0.619873046875
37, 2404112, -5.382915019989014, -1.7869298458099365, 7.817012786865234, -0.38696950674057007, -0.6493459939956665, -1.5511820316314697, 0.732666015625, 0.055419921875, -0.617919921875
38, 2420779, -5.374934196472168, -1.7704211473464966, 7.865131855010986, -0.21133039891719818, -0.6344010233879089, -1.5335476398468018, 0.728759765625, 0.057861328125, -0.62158203125
39, 2437446, -5.381373405456543, -1.7771226167678833, 7.882466793060303, -0.371076762676239, -0.41182658076286316, -1.622308373451233, 0.731201171875, 0.057861328125, -0.619384765625
40, 2454113, -5.376227378845215, -1.7670700550079346, 7.8407979011535645, -0.3397909104824066, -0.29870814085006714, -1.6435542106628418, 0.732177734375, 0.05908203125, -0.618896484375
41, 2470780, -5.383139133453369, -1.7686513662338257, 7.859094142913818, -0.372805655002594, -0.26218441128730774, -1.6071584224700928, 0.732666015625, 0.055419921875, -0.619873046875
42, 2487447, -5.390198230743408, -1.7686928510665894, 7.866072177886963, -0.33400240540504456, -0.22087109088897705, -1.5439335107803345, 0.732177734375, 0.05810546875, -0.618408203125
43, 2504114, -5.415994644165039, -1.774503469467163, 7.851621150970459, -0.38070714473724365, -0.3164832890033722, -1.5262479782104492, 0.731689453125, 0.0595703125, -0.618896484375
44, 2520781, -5.3966498374938965, -1.7732452154159546, 7.819131851196289, -0.412198007106781, -0.3883140981197357, -1.4670953750610352, 0.731201171875, 0.057373046875, -0.618896484375
45, 2537448, -5.387147903442383, -1.7659220695495605, 7.862268447875977, -0.37854287028312683, -0.5553344488143921, -1.5369923114776611, 0.732666015625, 0.057861328125, -0.618408203125
46, 2554115, -5.393669128417969, -1.7770442962646484, 7.837807655334473, -0.27016276121139526, -0.5850580930709839, -1.6404935121536255, 0.731689453125, 0.057373046875, -0.620849609375
47, 2570782, -5.381213665008545, -1.7704998254776, 7.845174789428711, -0.3499335050582886, -0.5079638361930847, -1.4957302808761597, 0.731201171875, 0.05859375, -0.619384765625
48, 2587449, -5.4005022048950195, -1.7618001699447632, 7.8467841148376465, -0.3152923583984375, -0.3973042368888855, -1.638636589050293, 0.733154296875, 0.055908203125, -0.620361328125
49, 2604116, -5.389997959136963, -1.7651368379592896, 7.866708755493164, -0.3289823532104492, -0.4474923014640808, -1.6250362396240234, 0.730224609375, 0.056396484375, -0.620361328125
50, 2620783, -5.378880977630615, -1.7742305994033813, 7.8548760414123535, -0.45915889739990234, -0.34034156799316406, -1.5179367065429688, 0.731689453125, 0.057861328125, -0.617919921875
51, 2637450, -5.398216247558594, -1.7875282764434814, 7.840178966522217, -0.4134274423122406, -0.26292717456817627, -1.545406460762024, 0.732666015625, 0.05810546875, -0.617431640625
52, 2654117, -5.407548904418945, -1.7790493965148926, 7.84380578994751, -0.49492698907852173, -0.28403201699256897, -1.5416154861450195, 0.734619140625, 0.057373046875, -0.619873046875
53, 2670784, -5.409966945648193, -1.7634013891220093, 7.843238353729248, -0.4772414267063141, -0.4646015763282776, -1.689183235168457, 0.731689453125, 0.057373046875, -0.617431640625
54, 2687451, -5.410459041595459, -1.7717543840408325, 7.8277387619018555, -0.35885950922966003, -0.6151145696640015, -1.7785073518753052, 0.732666015625, 0.056396484375, -0.619384765625
55, 2704118, -5.393974781036377, -1.7769888639450073, 7.8007073402404785, -0.2631320059299469, -0.8001406192779541, -1.6796549558639526, 0.732666015625, 0.057861328125, -0.617431640625
56, 2720785, -5.392025470733643, -1.779514193534851, 7.847509860992432, -0.22259996831417084, -0.8300819396972656, -1.6514556407928467, 0.72900390625, 0.057373046875, -0.618408203125
57, 2737452, -5.412249565124512, -1.7703062295913696, 7.854108810424805, -0.14204803109169006, -0.7995132207870483, -1.6310808658599854, 0.731201171875, 0.057861328125, -0.620849609375
58, 2754119, -5.399749279022217, -1.7658593654632568, 7.855623722076416, -0.2309241145849228, -0.7514767050743103, -1.6163151264190674, 0.730224609375, 0.057373046875, -0.618408203125
59, 2770786, -5.400979518890381, -1.7631099224090576, 7.840182304382324, -0.3544798195362091, -0.6884053349494934, -1.6054810285568237, 0.731201171875, 0.056396484375, -0.619384765625
60, 2787453, -5.385501384735107, -1.7663496732711792, 7.857791900634766, -0.23228158056735992, -0.5887719988822937, -1.6454366445541382, 0.732666015625, 0.057861328125, -0.618896484375
61, 2804120, -5.403135299682617, -1.7702856063842773, 7.8515119552612305, -0.2492627650499344, -0.7443050146102905, -1.5736056566238403, 0.733642578125, 0.05810546875, -0.620361328125
62, 2820787, -5.4128217697143555, -1.765087604522705, 7.8350372314453125, -0.23228269815444946, -0.8389046788215637, -1.6223671436309814, 0.7294921875, 0.056396484375, -0.615966796875
63, 2837454, -5.395534038543701, -1.759347915649414, 7.8336639404296875, -0.06143205612897873, -0.8212071657180786, -1.6346408128738403, 0.732177734375, 0.056884765625, -0.617919921875
64, 2854121, -5.4006757736206055, -1.7672839164733887, 7.8456010818481445, -0.10761173814535141, -0.8986214399337769, -1.7488861083984375, 0.730712890625, 0.056396484375, -0.619873046875
65, 2870788, -5.403411865234375, -1.7730929851531982, 7.869631767272949, -0.19659027457237244, -0.861777663230896, -1.6539785861968994, 0.731689453125, 0.055908203125, -0.618896484375
66, 2887455, -5.393792629241943, -1.758362054824829, 7.874660015106201, -0.17694531381130219, -0.7046308517456055, -1.686583161354065, 0.733642578125, 0.057373046875, -0.619873046875
67, 2904122, -5.400893211364746, -1.778006911277771, 7.878154277801514, -0.2871183454990387, -0.6086729764938354, -1.574822187423706, 0.731201171875, 0.05908203125, -0.620849609375
68, 2920789, -5.394866943359375, -1.7730987071990967, 7.810760498046875, -0.22436726093292236, -0.6737805008888245, -1.6455903053283691, 0.732666015625, 0.057373046875, -0.620361328125
69, 2937456, -5.3808088302612305, -1.7812610864639282, 7.855746746063232, -0.1809409111738205, -0.8565783500671387, -1.5258638858795166, 0.734130859375, 0.056884765625, -0.618896484375
70, 2954123, -5.384541034698486, -1.7512693405151367, 7.839208126068115, -0.16894137859344482, -0.712455689907074, -1.62074613571167, 0.729248046875, 0.054931640625, -0.618408203125
71, 2970790, -5.384522914886475, -1.7620829343795776, 7.837389945983887, -0.18865033984184265, -0.7267218828201294, -1.5965291261672974, 0.730224609375, 0.055908203125, -0.618896484375
72, 2987457, -5.402346611022949, -1.7747118473052979, 7.8467936515808105, -0.3254605531692505, -0.7125837206840515, -1.7120168209075928, 0.733154296875, 0.056884765625, -0.61767578125
73, 3004124, -5.381538391113281, -1.776611328125, 7.841342449188232, -0.25861141085624695, -0.6883796453475952, -1.574847936630249, 0.731201171875, 0.05859375, -0.618408203125
74, 3020791, -5.401858806610107, -1.7714976072311401, 7.853914260864258, -0.12472102791070938, -0.6865099668502808, -1.5909584760665894, 0.732666015625, 0.055419921875, -0.618408203125
75, 3037458, -5.3935956954956055, -1.7560137510299683, 7.845556259155273, -0.1989082396030426, -0.6498199105262756, -1.6271108388900757, 0.733154296875, 0.055419921875, -0.620849609375
76, 3054125, -5.390345573425293, -1.7598330974578857, 7.851074695587158, -0.2367253452539444, -0.5910897850990295, -1.669102668762207, 0.730224609375, 0.055908203125, -0.620849609375
77, 3070792, -5.402677059173584, -1.7726777791976929, 7.8449387550354, -0.1380140334367752, -0.5983895063400269, -1.665978193283081, 0.733154296875, 0.055908203125, -0.621337890625
78, 3087459, -5.392871379852295, -1.7719566822052002, 7.848053455352783, -0.14633814990520477, -0.711379885673523, -1.5943264961242676, 0.731201171875, 0.054931640625, -0.620361328125
79, 3104126, -5.393226146697998, -1.7698415517807007, 7.8430657386779785, -0.1970769166946411, -0.6662503480911255, -1.5645004510879517, 0.730712890625, 0.056884765625, -0.617919921875
80, 3120793, -5.399336814880371, -1.7508996725082397, 7.84037971496582, -0.05313354358077049, -0.7635401487350464, -1.5239299535751343, 0.730224609375, 0.057373046875, -0.620849609375
81, 3137460, -5.40020227432251, -1.7520841360092163, 7.860317230224609, -0.09073299169540405, -0.7626309990882874, -1.6358064413070679, 0.731689453125, 0.056396484375, -0.618408203125
82, 3154127, -5.393789768218994, -1.7417904138565063, 7.844640254974365, -0.23527824878692627, -0.8341799974441528, -1.6844191551208496, 0.732666015625, 0.05810546875, -0.621826171875
83, 3170794, -5.413816928863525, -1.7539228200912476, 7.867325305938721, -0.22787617146968842, -0.8585760593414307, -1.649176001548767, 0.731689453125, 0.055908203125, -0.620361328125
84, 3187461, -5.38664436340332, -1.7497848272323608, 7.859707832336426, -0.20176400244235992, -0.8356269598007202, -1.6413383483886719, 0.731689453125, 0.056884765625, -0.619873046875
85, 3204128, -5.394842624664307, -1.7649250030517578, 7.878573894500732, -0.3266259431838989, -0.8979812264442444, -1.6003199815750122, 0.730712890625, 0.055419921875, -0.618896484375
86, 3220795, -5.398804664611816, -1.7591345310211182, 7.8541483879089355, -0.25502562522888184, -0.8838300704956055, -1.70029878616333, 0.731689453125, 0.055419921875, -0.620849609375
87, 3237462, -5.380074977874756, -1.7513893842697144, 7.861324787139893, -0.27750080823898315, -0.8275976181030273, -1.5571755170822144, 0.730224609375, 0.056396484375, -0.62109375
88, 3254129, -5.398152828216553, -1.7418785095214844, 7.858428001403809, -0.2812146246433258, -0.9303300380706787, -1.6170321702957153, 0.729736328125, 0.054931640625, -0.618896484375
89, 3270796, -5.385234832763672, -1.7340747117996216, 7.880596160888672, -0.2368534356355667, -0.7790998816490173, -1.6317977905273438, 0.731689453125, 0.054931640625, -0.621337890625
90, 3287463, -5.373684883117676, -1.7663190364837646, 7.859501838684082, -0.3267667889595032, -0.6716417670249939, -1.6782976388931274, 0.732177734375, 0.054443359375, -0.621826171875
91, 3304130, -5.393366813659668, -1.7541855573654175, 7.861894607543945, -0.2840576469898224, -0.6123741269111633, -1.6048662662506104, 0.731201171875, 0.055419921875, -0.618896484375
92, 3320797, -5.395875930786133, -1.759977102279663, 7.83119010925293, -0.2149161696434021, -0.7481085658073425, -1.5584686994552612, 0.732177734375, 0.05322265625, -0.620361328125
93, 3337464, -5.389074802398682, -1.733044147491455, 7.884810924530029, -0.2574204206466675, -0.729910671710968, -1.5232511758804321, 0.731689453125, 0.054443359375, -0.620361328125
94, 3354131, -5.388655185699463, -1.7408978939056396, 7.856979846954346, -0.3595254719257355, -0.5172612071037292, -1.5009169578552246, 0.730712890625, 0.056884765625, -0.620361328125
95, 3370798, -5.403294563293457, -1.7470886707305908, 7.849414348602295, -0.2149289846420288, -0.6334277391433716, -1.6073122024536133, 0.730712890625, 0.05322265625, -0.620849609375
96, 3387465, -5.374701976776123, -1.7881993055343628, 7.859793186187744, -0.15804316103458405, -0.6597447395324707, -1.635345220565796, 0.731689453125, 0.055908203125, -0.620849609375
97, 3404132, -5.383732795715332, -1.7244468927383423, 7.860452651977539, -0.18173491954803467, -0.6517407894134521, -1.4343496561050415, 0.732177734375, 0.054443359375, -0.61669921875
98, 3420799, -5.39569091796875, -1.7443612813949585, 7.8470611572265625, -0.22158828377723694, -0.7755141854286194, -1.559249997138977, 0.730712890625, 0.053955078125, -0.618408203125
99, 3437466, -5.402741432189941, -1.7548187971115112, 7.859946250915527, -0.12018758803606033, -0.7891016602516174, -1.522700548171997, 0.730224609375, 0.055908203125, -0.619873046875
100, 3454133, -5.398153781890869, -1.763467788696289, 7.8484344482421875, -0.06990987062454224, -0.8683858513832092, -1.5335861444473267, 0.732177734375, 0.053466796875, -0.619873046875
101, 3470800, -5.388782501220703, -1.746930718421936, 7.864063262939453, 0.15363135933876038, -0.9204307794570923, -1.415575385093689, 0.731689453125, 0.055908203125, -0.618896484375
102, 3487467, -5.371537208557129, -1.7173992395401, 7.89585018157959, 0.19036000967025757, -0.9472729563713074, -1.4530725479125977, 0.730712890625, 0.05322265625, -0.619384765625
103, 3504134, -5.395464897155762, -1.737047553062439, 7.845333576202393, 0.0804302841424942, -0.8865067958831787, -1.4543660879135132, 0.731201171875, 0.055419921875, -0.621337890625
104, 3520801, -5.386578559875488, -1.743814468383789, 7.841883659362793, 0.020560594275593758, -0.7845297455787659, -1.517693281173706, 0.731689453125, 0.055419921875, -0.620361328125
105, 3537468, -5.389650821685791, -1.7496267557144165, 7.859119892120361, -0.0626230537891388, -0.7843888998031616, -1.5760518312454224, 0.732666015625, 0.055419921875, -0.621826171875
106, 3554135, -5.398154258728027, -1.7454713582992554, 7.828636169433594, -0.05408122017979622, -0.8027276992797852, -1.5833901166915894, 0.732177734375, 0.054931640625, -0.620361328125
107, 3570802, -5.405855178833008, -1.7337013483047485, 7.860008239746094, -0.11875328421592712, -0.8190301656723022, -1.5772173404693604, 0.730224609375, 0.056884765625, -0.618408203125
108, 3587469, -5.386669158935547, -1.7053133249282837, 7.8435235023498535, -0.24237294495105743, -0.8834587931632996, -1.6499443054199219, 0.728759765625, 0.05322265625, -0.6220703125
109, 3604136, -5.3932294845581055, -1.731414794921875, 7.870156764984131, -0.23748090863227844, -0.9716815948486328, -1.7719887495040894, 0.730712890625, 0.054443359375, -0.620361328125
110, 3620803, -5.383647918701172, -1.7441494464874268, 7.884584426879883, -0.2326657474040985, -0.9848595261573792, -1.706663727760315, 0.731201171875, 0.052734375, -0.621337890625
111, 3637470, -5.389465808868408, -1.7440937757492065, 7.847827911376953, -0.1873696893453598, -0.9741148948669434, -1.684009313583374, 0.730224609375, 0.0517578125, -0.620849609375
112, 3654137, -5.384605407714844, -1.7286863327026367, 7.860899448394775, -0.09649582952260971, -1.0253018140792847, -1.5893830060958862, 0.729736328125, 0.0517578125, -0.62255859375
113, 3670804, -5.379308700561523, -1.743180751800537, 7.884862422943115, -0.004469416104257107, -1.0849411487579346, -1.6346535682678223, 0.729248046875, 0.054443359375, -0.62158203125
114, 3687471, -5.388819217681885, -1.7196691036224365, 7.857835292816162, -0.11757509410381317, -0.9972175359725952, -1.752907395362854, 0.731201171875, 0.056396484375, -0.62158203125
115, 3704138, -5.377974510192871, -1.7346234321594238, 7.857879161834717, -0.2270565927028656, -1.0705597400665283, -1.8041586875915527, 0.730224609375, 0.054443359375, -0.620361328125
116, 3720805, -5.3903374671936035, -1.7353672981262207, 7.869082927703857, -0.16466405987739563, -1.1463476419448853, -1.7601689100265503, 0.731689453125, 0.052734375, -0.620361328125
117, 3737472, -5.379268646240234, -1.7475119829177856, 7.866840362548828, -0.2701883912086487, -1.2123386859893799, -1.7212247848510742, 0.728759765625, 0.0537109375, -0.619384765625
118, 3754139, -5.383692741394043, -1.7286348342895508, 7.904331684112549, -0.17670200765132904, -1.0893080234527588, -1.733160138130188, 0.732177734375, 0.054443359375, -0.621826171875
119, 3770806, -5.3928117752075195, -1.7238891124725342, 7.859655857086182, -0.2140965610742569, -1.2019656896591187, -1.7165632247924805, 0.728271484375, 0.054443359375, -0.623046875
120, 3787473, -5.37185525894165, -1.7342021465301514, 7.897416114807129, -0.2312314659357071, -1.2219820022583008, -1.8624788522720337, 0.730712890625, 0.0537109375, -0.6240234375
121, 3804140, -5.381193161010742, -1.7300714254379272, 7.895908355712891, -0.28757938742637634, -0.9418686032295227, -1.6237937211990356, 0.731201171875, 0.05322265625, -0.6240234375
122, 3820807, -5.386102676391602, -1.7297039031982422, 7.8618059158325195, -0.2996813952922821, -1.081060767173767, -1.7494369745254517, 0.729736328125, 0.052734375, -0.6220703125
123, 3837474, -5.381678581237793, -1.7378950119018555, 7.8696675300598145, -0.3494724631309509, -1.1383051872253418, -1.7087767124176025, 0.731689453125, 0.054443359375, -0.622314453125
124, 3854141, -5.373227119445801, -1.7404121160507202, 7.885698318481445, -0.23352377116680145, -1.149152159690857, -1.664351463317871, 0.729736328125, 0.054931640625, -0.620361328125
125, 3870808, -5.358542442321777, -1.7383098602294922, 7.892676830291748, -0.1984984129667282, -1.183101773262024, -1.71265709400177, 0.729248046875, 0.0537109375, -0.62158203125
126, 3887475, -5.361934185028076, -1.7122008800506592, 7.896308422088623, -0.2079750895500183, -1.071315050125122, -1.7164603471755981, 0.730224609375, 0.052734375, -0.621826171875
127, 3904142, -5.376028537750244, -1.7487162351608276, 7.879140377044678, -0.13007406890392303, -1.0283371210098267, -1.7664438486099243, 0.729248046875, 0.0537109375, -0.62158203125
128, 3920809, -5.353030681610107, -1.7439262866973877, 7.896688461303711, -0.14536486566066742, -0.8924359679222107, -1.7226588726043701, 0.730712890625, 0.054931640625, -0.625
129, 3937476, -5.3726701736450195, -1.7353622913360596, 7.863226890563965, -0.07289372384548187, -0.9721298217773438, -1.669230580329895, 0.730224609375, 0.0537109375, -0.6220703125
130, 3954143, -5.358941555023193, -1.7485979795455933, 7.894335746765137, -0.006723333150148392, -0.9233121275901794, -1.6742125749588013, 0.729736328125, 0.054443359375, -0.62353515625
131, 3970810, -5.359923839569092, -1.7331753969192505, 7.874226093292236, -0.05510571971535683, -0.9862425327301025, -1.6554638147354126, 0.728271484375, 0.0537109375, -0.62353515625
132, 3987477, -5.372121334075928, -1.7430131435394287, 7.876677989959717, 0.1356128305196762, -0.9582734107971191, -1.5445994138717651, 0.727294921875, 0.0537109375, -0.62255859375
133, 4004144, -5.376145362854004, -1.7238858938217163, 7.892840385437012, 0.15961191058158875, -1.006617546081543, -1.533906102180481, 0.729248046875, 0.05224609375, -0.62353515625
134, 4020811, -5.377983093261719, -1.7226821184158325, 7.878730773925781, 0.15068213641643524, -1.1102361679077148, -1.5690383911132812, 0.72607421875, 0.052734375, -0.62109375
135, 4037478, -5.367521286010742, -1.7381389141082764, 7.889877796173096, 0.05816002935171127, -1.117443561553955, -1.5187816619873047, 0.729248046875, 0.0537109375, -0.62109375
136, 4054145, -5.3580851554870605, -1.7451119422912598, 7.874417304992676, 0.4297875165939331, -1.0545902252197266, -1.408442497253418, 0.727294921875, 0.05224609375, -0.62158203125
137, 4070812, -5.400585174560547, -1.6804450750350952, 7.852541446685791, -0.029954051598906517, -1.1251530647277832, -1.566126823425293, 0.730224609375, 0.05224609375, -0.62255859375
138, 4087479, -5.365854740142822, -1.7070626020431519, 7.869461536407471, -0.027687329798936844, -1.1284828186035156, -1.772680640220642, 0.730224609375, 0.053955078125, -0.6240234375
139, 4104146, -5.366835594177246, -1.7136179208755493, 7.892488479614258, -0.20280134677886963, -1.1832683086395264, -1.706369161605835, 0.728759765625, 0.05078125, -0.62353515625
140, 4120813, -5.365139484405518, -1.7183057069778442, 7.885086536407471, -0.18724165856838226, -1.2813265323638916, -1.7643053531646729, 0.727294921875, 0.052734375, -0.6240234375
141, 4137480, -5.361308574676514, -1.7119308710098267, 7.898416042327881, -0.08112822473049164, -1.3484448194503784, -1.8317179679870605, 0.729736328125, 0.05322265625, -0.62451171875
142, 4154147, -5.329526901245117, -1.7321630716323853, 7.896186828613281, -0.0321311391890049, -1.3778352737426758, -1.8096654415130615, 0.727294921875, 0.05419921875, -0.6240234375
143, 4170814, -5.328954696655273, -1.699467420578003, 7.9214935302734375, 0.15994489192962646, -1.2209316492080688, -1.6053653955459595, 0.730224609375, 0.0517578125, -0.625
144, 4187481, -5.342700958251953, -1.7193922996520996, 7.890126705169678, 0.07185002416372299, -0.9363361597061157, -1.6285192966461182, 0.730224609375, 0.052734375, -0.62353515625
145, 4204148, -5.338843822479248, -1.7208117246627808, 7.895198822021484, -0.02341000735759735, -0.8329889178276062, -1.7038847208023071, 0.729736328125, 0.052734375, -0.6240234375
146, 4220815, -5.358066082000732, -1.6972235441207886, 7.875169277191162, 0.01691078394651413, -0.8757109642028809, -1.7245029211044312, 0.728271484375, 0.0517578125, -0.6240234375
147, 4237482, -5.3421406745910645, -1.7230337858200073, 7.877081394195557, -0.05878114327788353, -0.8630070686340332, -1.7439814805984497, 0.727783203125, 0.05078125, -0.623046875
148, 4254149, -5.3417067527771, -1.7205779552459717, 7.896615028381348, 0.014413546770811081, -0.6004129648208618, -1.592777132987976, 0.726318359375, 0.0537109375, -0.626220703125
149, 4270816, -5.342292785644531, -1.6999980211257935, 7.876410007476807, -0.036907900124788284, -0.487947553396225, -1.5233154296875, 0.729736328125, 0.05078125, -0.6240234375
150, 4287483, -5.3470377922058105, -1.7004643678665161, 7.888637065887451, -0.24875052273273468, -0.6057915091514587, -1.7038719654083252, 0.728759765625, 0.05322265625, -0.62255859375
151, 4304150, -5.351742744445801, -1.6927286386489868, 7.914949893951416, -0.3317740559577942, -0.6088522672653198, -1.7599766254425049, 0.726806640625, 0.052734375, -0.62060546875
152, 4320817, -5.3535284996032715, -1.7004507780075073, 7.911838531494141, -0.3848435580730438, -0.7279000282287598, -1.724118709564209, 0.729248046875, 0.05029296875, -0.623046875
153, 4337484, -5.350409507751465, -1.6971325874328613, 7.883132457733154, -0.4631800651550293, -0.933249831199646, -1.721429467201233, 0.728271484375, 0.0498046875, -0.6259765625
154, 4354151, -5.346145153045654, -1.7012115716934204, 7.896295547485352, -0.3709743320941925, -1.0727880001068115, -1.7653298377990723, 0.727294921875, 0.05126953125, -0.62548828125
155, 4370818, -5.342432022094727, -1.711318016052246, 7.92080545425415, -0.2583425045013428, -1.0075780153274536, -1.6944464445114136, 0.727294921875, 0.05224609375, -0.625
156, 4387485, -5.341126918792725, -1.714837670326233, 7.8980021476745605, -0.2591876983642578, -0.9685826301574707, -1.7159099578857422, 0.725830078125, 0.0517578125, -0.6240234375
157, 4404152, -5.326342582702637, -1.715634822845459, 7.915604114532471, -0.3220028281211853, -0.8675661087036133, -1.7624738216400146, 0.728759765625, 0.05224609375, -0.6240234375
158, 4420819, -5.3437299728393555, -1.691899299621582, 7.915529727935791, -0.29534003138542175, -0.7451118230819702, -1.6665540933609009, 0.725830078125, 0.05224609375, -0.624755859375
159, 4437486, -5.326298713684082, -1.7139323949813843, 7.883727073669434, -0.3420447111129761, -0.634426474571228, -1.7094552516937256, 0.729736328125, 0.0498046875, -0.62451171875
160, 4454153, -5.340670585632324, -1.724724292755127, 7.8843584060668945, -0.31542038917541504, -0.6129375696182251, -1.6745966672897339, 0.726806640625, 0.05029296875, -0.62353515625
161, 4470820, -5.363698482513428, -1.7053109407424927, 7.9170756340026855, -0.22444407641887665, -0.6258718967437744, -1.5881282091140747, 0.726806640625, 0.052734375, -0.6240234375
162, 4487487, -5.3513922691345215, -1.7032661437988281, 7.892980575561523, -0.17396146059036255, -0.730576753616333, -1.6240756511688232, 0.72509765625, 0.0537109375, -0.62353515625
163, 4504154, -5.335193634033203, -1.7095142602920532, 7.855952262878418, -0.19811420142650604, -0.875928521156311, -1.7239009141921997, 0.725830078125, 0.05029296875, -0.62451171875
164, 4520821, -5.346953868865967, -1.7074856758117676, 7.902523040771484, -0.16702038049697876, -0.8269315361976624, -1.7410613298416138, 0.726806640625, 0.05126953125, -0.626708984375
165, 4537488, -5.345984935760498, -1.7313435077667236, 7.918483734130859, -0.23343412578105927, -0.7649616599082947, -1.680129051208496, 0.728759765625, 0.05126953125, -0.6259765625
166, 4554155, -5.367031097412109, -1.7070564031600952, 7.876318454742432, -0.15162719786167145, -0.7103426456451416, -1.5827624797821045, 0.728271484375, 0.049072265625, -0.62548828125
167, 4570822, -5.350019931793213, -1.7133901119232178, 7.899538993835449, -0.21905256807804108, -1.0118039846420288, -1.6972637176513672, 0.728759765625, 0.0517578125, -0.628173828125
168, 4587489, -5.360074520111084, -1.7012782096862793, 7.9185357093811035, -0.2273639291524887, -1.0087560415267944, -1.7260397672653198, 0.7236328125, 0.0517578125, -0.625732421875
169, 4604156, -5.350846290588379, -1.6790779829025269, 7.91075325012207, -0.31631678342819214, -0.9913906455039978, -1.6958677768707275, 0.725830078125, 0.05224609375, -0.62451171875
170, 4620823, -5.342417240142822, -1.6946450471878052, 7.921328067779541, -0.32001787424087524, -1.0463043451309204, -1.6679118871688843, 0.72509765625, 0.05078125, -0.623046875
171, 4637490, -5.3411383628845215, -1.7329715490341187, 7.918623924255371, -0.37133291363716125, -1.0605452060699463, -1.7546107769012451, 0.726806640625, 0.0498046875, -0.62548828125
172, 4654157, -5.343313694000244, -1.6952072381973267, 7.921826362609863, -0.3341048061847687, -0.9825286865234375, -1.5737465620040894, 0.726806640625, 0.050048828125, -0.627197265625
173, 4670824, -5.359657287597656, -1.6759825944900513, 7.892032623291016, -0.271994024515152, -1.1945891380310059, -1.6210917234420776, 0.726318359375, 0.0498046875, -0.62353515625
174, 4687491, -5.329348087310791, -1.7022804021835327, 7.888346195220947, -0.28168848156929016, -1.318913221359253, -1.6250618696212769, 0.729248046875, 0.05224609375, -0.62451171875
175, 4704158, -5.322432518005371, -1.7107501029968262, 7.917755603790283, -0.1415870040655136, -1.237259864807129, -1.7171907424926758, 0.729248046875, 0.05029296875, -0.625
176, 4720825, -5.322841644287109, -1.7060898542404175, 7.897889614105225, -0.31325605511665344, -1.0752722024917603, -1.5402706861495972, 0.725830078125, 0.050048828125, -0.62451171875
177, 4737492, -5.3555588722229, -1.6973665952682495, 7.931553840637207, -0.2274407595396042, -1.157130479812622, -1.6206178665161133, 0.725830078125, 0.049072265625, -0.62451171875
178, 4754159, -5.3024492263793945, -1.694422721862793, 7.895467281341553, -0.31623998284339905, -1.0539495944976807, -1.645603060722351, 0.72509765625, 0.05224609375, -0.625732421875
179, 4770826, -5.337299346923828, -1.6933857202529907, 7.9214372634887695, -0.3392529785633087, -1.012047290802002, -1.655771017074585, 0.727783203125, 0.05126953125, -0.627197265625
180, 4787493, -5.3381805419921875, -1.6966346502304077, 7.905707359313965, -0.3122956156730652, -1.1268818378448486, -1.6565011739730835, 0.72314453125, 0.049560546875, -0.62353515625
181, 4804160, -5.344000339508057, -1.706804871559143, 7.882821559906006, -0.1648305207490921, -1.2145799398422241, -1.820397138595581, 0.725341796875, 0.05126953125, -0.626708984375
182, 4820827, -5.307336807250977, -1.7157691717147827, 7.910195827484131, -0.03337334841489792, -1.2923656702041626, -1.7089178562164307, 0.725830078125, 0.05126953125, -0.625732421875
183, 4837494, -5.305973052978516, -1.7046970129013062, 7.927093029022217, 0.1926138699054718, -1.2100334167480469, -1.4729349613189697, 0.728271484375, 0.05224609375, -0.628173828125
184, 4854161, -5.3345441818237305, -1.6840307712554932, 7.943166732788086, 0.22313141822814941, -1.0753235816955566, -1.4944497346878052, 0.725830078125, 0.05078125, -0.625732421875
185, 4870828, -5.3035688400268555, -1.692763090133667, 7.926884651184082, 0.12194845080375671, -0.9302275776863098, -1.6028426885604858, 0.727294921875, 0.049072265625, -0.629638671875
186, 4887495, -5.29424524307251, -1.6844260692596436, 7.930413246154785, -0.037983641028404236, -0.8003072738647461, -1.5978741645812988, 0.72412109375, 0.05078125, -0.627197265625
187, 4904162, -5.319908618927002, -1.6947377920150757, 7.9444050788879395, -0.26761430501937866, -0.5388271808624268, -1.6357167959213257, 0.72412109375, 0.05126953125, -0.627197265625
188, 4920829, -5.336293697357178, -1.6954320669174194, 7.933511734008789, -0.2298099845647812, -0.5655412673950195, -1.579573631286621, 0.726318359375, 0.050048828125, -0.626220703125
189, 4937496, -5.34189510345459, -1.6908077001571655, 7.911497592926025, -0.18831737339496613, -0.661716878414154, -1.520574688911438, 0.726318359375, 0.0517578125, -0.627197265625
190, 4954163, -5.3254265785217285, -1.6934576034545898, 7.906983852386475, -0.23840300738811493, -0.7252107858657837, -1.6914242506027222, 0.727294921875, 0.05126953125, -0.626220703125
191, 4970830, -5.322225093841553, -1.6832727193832397, 7.893750190734863, -0.1696200966835022, -0.8200802206993103, -1.7257323265075684, 0.7255859375, 0.0537109375, -0.627197265625
192, 4987497, -5.339669704437256, -1.676863670349121, 7.905922889709473, -0.21547964215278625, -0.9545851945877075, -1.6909887790679932, 0.727783203125, 0.05078125, -0.626220703125
193, 5004164, -5.312352657318115, -1.696315050125122, 7.92716121673584, -0.15772300958633423, -0.9419838190078735, -1.741458535194397, 0.727294921875, 0.049560546875, -0.627685546875
194, 5020831, -5.324530601501465, -1.6772481203079224, 7.918060779571533, -0.23913295567035675, -0.8155595064163208, -1.6094635725021362, 0.723876953125, 0.050048828125, -0.628173828125
195, 5037498, -5.315517902374268, -1.690241813659668, 7.936530113220215, -0.27883264422416687, -0.7367748618125916, -1.6511098146438599, 0.72314453125, 0.0517578125, -0.627197265625
196, 5054165, -5.32777738571167, -1.6824934482574463, 7.9287519454956055, -0.3758535087108612, -0.7218298316001892, -1.7434433698654175, 0.727294921875, 0.048095703125, -0.626708984375
197, 5070832, -5.320808410644531, -1.6728229522705078, 7.920321464538574, -0.40151742100715637, -0.6718466281890869, -1.7756385803222656, 0.725830078125, 0.05078125, -0.628662109375
198, 5087499, -5.322031497955322, -1.6962014436721802, 7.89668083190918, -0.4183449447154999, -0.5133296251296997, -1.7340179681777954, 0.724609375, 0.05126953125, -0.626220703125
199, 5104166, -5.321220874786377, -1.6784999370574951, 7.917665481567383, -0.3789655268192291, -0.5973522067070007, -1.6664904356002808, 0.725341796875, 0.049560546875, -0.628173828125
200, 5120833, -5.326435565948486, -1.698941707611084, 7.915948390960693, -0.3249483108520508, -0.6284075379371643, -1.718816876411438, 0.726318359375, 0.0517578125, -0.626708984375
201, 5137500, -5.33591890335083, -1.6946923732757568, 7.901615142822266, -0.25689539313316345, -0.8442457318305969, -1.740715742111206, 0.725341796875, 0.049560546875, -0.625732421875
202, 5154167, -5.306482791900635, -1.6992499828338623, 7.949390888214111, -0.24894262850284576, -0.680554986000061, -1.8321788311004639, 0.727783203125, 0.049560546875, -0.628173828125
203, 5170834, -5.329959869384766, -1.689390778541565, 7.922999858856201, -0.3577454090118408, -0.5424385666847229, -1.6593060493469238, 0.724609375, 0.05078125, -0.625732421875
204, 5187501, -5.3291521072387695, -1.7020354270935059, 7.90941047668457, -0.3697321116924286, -0.5534136295318604, -1.8065916299819946, 0.725341796875, 0.050048828125, -0.629150390625
205, 5204168, -5.303422451019287, -1.70414137840271, 7.920163154602051, -0.29259949922561646, -0.6173173189163208, -1.6352429389953613, 0.72314453125, 0.05078125, -0.62890625
206, 5220835, -5.325582027435303, -1.6717002391815186, 7.897788047790527, -0.2927194833755493, -0.5898702144622803, -1.6386194229125977, 0.72412109375, 0.05126953125, -0.625244140625
207, 5237502, -5.321181774139404, -1.6760151386260986, 7.928716659545898, -0.29950207471847534, -0.6440567970275879, -1.7068428993225098, 0.726318359375, 0.05029296875, -0.626708984375
208, 5254169, -5.33473014831543, -1.6717175245285034, 7.89756965637207, -0.2518112361431122, -0.8342311382293701, -1.8504916429519653, 0.724365234375, 0.050537109375, -0.62939453125
209, 5270836, -5.315013408660889, -1.7013970613479614, 7.935941219329834, -0.25891876220703125, -0.8821397423744202, -1.7782511711120605, 0.726318359375, 0.05224609375, -0.627197265625
210, 5287503, -5.309577941894531, -1.6798137426376343, 7.908138751983643, -0.22575029730796814, -0.8189147710800171, -1.666054606437683, 0.724853515625, 0.05078125, -0.627685546875
211, 5304170, -5.314601898193359, -1.6864084005355835, 7.924108505249023, -0.31063079833984375, -0.8020488619804382, -1.6186072826385498, 0.726318359375, 0.049072265625, -0.62548828125
212, 5320837, -5.303943634033203, -1.7121142148971558, 7.947314262390137, -0.312936007976532, -0.5956489443778992, -1.6126269102096558, 0.726318359375, 0.049072265625, -0.628173828125
213, 5337504, -5.318305015563965, -1.6997514963150024, 7.982424259185791, -0.48749932646751404, -0.3049704134464264, -1.4551727771759033, 0.726318359375, 0.05029296875, -0.628173828125
214, 5354171, -5.371367931365967, -1.6893014907836914, 7.874881744384766, -0.5144951343536377, -0.4369911551475525, -1.5618882179260254, 0.724853515625, 0.05029296875, -0.626708984375
215, 5370838, -5.353168964385986, -1.6596146821975708, 7.909449577331543, -0.4648320972919464, -1.17205011844635, -1.7614238262176514, 0.725830078125, 0.048095703125, -0.626220703125
216, 5387505, -5.360655307769775, -1.6897432804107666, 7.89874267578125, -0.4625525176525116, -1.6764792203903198, -1.7868701219558716, 0.72412109375, 0.05078125, -0.628662109375
217, 5404172, -5.353515625, -1.693480372428894, 7.896539688110352, -0.24759799242019653, -1.8137249946594238, -1.664851188659668, 0.723876953125, 0.049560546875, -0.6298828125
218, 5420839, -5.3268327713012695, -1.6628750562667847, 7.945202350616455, -0.35326313972473145, -2.1019957065582275, -1.8793957233428955, 0.724365234375, 0.05029296875, -0.626708984375
219, 5437506, -5.260958671569824, -1.6916579008102417, 7.891138076782227, -0.6212488412857056, -2.016308307647705, -1.9038686752319336, 0.72412109375, 0.050048828125, -0.625244140625
220, 5454173, -5.376348972320557, -1.6772899627685547, 7.960914611816406, -0.556307852268219, -1.7821316719055176, -1.8343943357467651, 0.72314453125, 0.050537109375, -0.62939453125
221, 5470840, -5.267214298248291, -1.685874581336975, 7.923787593841553, -0.4245048463344574, -1.9277782440185547, -1.8705978393554688, 0.724365234375, 0.048583984375, -0.62939453125
222, 5487507, -5.287410736083984, -1.7122023105621338, 7.928445816040039, -0.3138708472251892, -2.0376436710357666, -1.8610955476760864, 0.723876953125, 0.050048828125, -0.628662109375
223, 5504174, -5.270008563995361, -1.7194021940231323, 7.927484512329102, -0.12858857214450836, -1.762512445449829, -1.7565702199935913, 0.72216796875, 0.050048828125, -0.6298828125
224, 5520841, -5.262331962585449, -1.6834584474563599, 7.932336330413818, -0.009092508815228939, -1.7096731662750244, -1.73684823513031, 0.723876953125, 0.049560546875, -0.6298828125
225, 5537508, -5.281179904937744, -1.6834162473678589, 7.960850238800049, 0.021738780662417412, -1.3986326456069946, -1.7194830179214478, 0.7197265625, 0.051025390625, -0.626953125
226, 5554175, -5.237103462219238, -1.7184993028640747, 7.96428108215332, 0.09269236028194427, -1.3279097080230713, -1.6768057346343994, 0.723876953125, 0.05078125, -0.6298828125
227, 5570842, -5.267043590545654, -1.7090296745300293, 7.900726318359375, 0.25019127130508423, -1.0264034271240234, -1.3854678869247437, 0.723876953125, 0.050048828125, -0.62890625
228, 5587509, -5.28621768951416, -1.6853573322296143, 7.9270429611206055, 0.24409542977809906, -0.9277431964874268, -1.3826119899749756, 0.72314453125, 0.05126953125, -0.62939453125
229, 5604176, -5.288881778717041, -1.6843230724334717, 7.986558437347412, 0.17561988532543182, -0.7926490306854248, -1.482347846031189, 0.72119140625, 0.049560546875, -0.6279296875
230, 5620843, -5.277953147888184, -1.658550500869751, 7.927670001983643, -0.10505048930644989, -0.5897452235221863, -1.5677533149719238, 0.723876953125, 0.050537109375, -0.630859375
231, 5637510, -5.297921180725098, -1.6645647287368774, 7.930537700653076, -0.07726071029901505, -0.5719443559646606, -1.7452877759933472, 0.72265625, 0.050537109375, -0.630859375
232, 5654177, -5.294572830200195, -1.6792138814926147, 7.94938850402832, -0.1740254908800125, -0.6518815755844116, -1.776291847229004, 0.72265625, 0.048095703125, -0.62841796875
233, 5670844, -5.281974792480469, -1.6789132356643677, 7.920434951782227, -0.24098989367485046, -0.7742334604263306, -1.7745373249053955, 0.72216796875, 0.050537109375, -0.632568359375
234, 5687511, -5.274967670440674, -1.6933141946792603, 7.93891716003418, -0.20061145722866058, -0.823960542678833, -1.7257835865020752, 0.72216796875, 0.049560546875, -0.63037109375
235, 5704178, -5.301529407501221, -1.6370841264724731, 7.953790664672852, -0.1486048847436905, -0.8174676895141602, -1.512545108795166, 0.72265625, 0.050048828125, -0.630859375
236, 5720845, -5.314662456512451, -1.6688660383224487, 7.934998035430908, -0.08859432488679886, -0.8741357922554016, -1.7463505268096924, 0.72119140625, 0.051025390625, -0.62939453125
237, 5737512, -5.273609638214111, -1.6817866563796997, 7.960529804229736, -0.20109811425209045, -1.005144715309143, -1.7594258785247803, 0.72265625, 0.049560546875, -0.62939453125
238, 5754179, -5.272307395935059, -1.6986478567123413, 7.916146278381348, -0.3492162823677063, -0.8557841777801514, -1.7563778162002563, 0.723388671875, 0.050048828125, -0.6298828125
239, 5770846, -5.279191970825195, -1.6905217170715332, 7.955931186676025, -0.3196592926979065, -0.7694950699806213, -1.6995818614959717, 0.72314453125, 0.050537109375, -0.6298828125
240, 5787513, -5.281514644622803, -1.6760995388031006, 7.934689521789551, -0.22087109088897705, -0.8629558086395264, -1.7281912565231323, 0.72216796875, 0.048583984375, -0.630859375
241, 5804180, -5.287295341491699, -1.6699250936508179, 7.945021152496338, -0.26615434885025024, -0.9157692790031433, -1.748642921447754, 0.7236328125, 0.05078125, -0.630859375
242, 5820847, -5.26532506942749, -1.6741552352905273, 7.92686128616333, -0.18138913810253143, -0.9813248515129089, -1.6791300773620605, 0.72314453125, 0.049560546875, -0.62939453125
243, 5837514, -5.293382167816162, -1.6804320812225342, 7.961271286010742, -0.22390620410442352, -0.9737820029258728, -1.6430546045303345, 0.721923828125, 0.047607421875, -0.63232421875
244, 5854181, -5.290724277496338, -1.6816059350967407, 7.959322929382324, -0.16886448860168457, -1.0413480997085571, -1.624715805053711, 0.722900390625, 0.048583984375, -0.63037109375
245, 5870848, -5.271745204925537, -1.6829719543457031, 7.946084499359131, -0.1275128424167633, -0.918509840965271, -1.5430244207382202, 0.72119140625, 0.050537109375, -0.63037109375
246, 5887515, -5.27627420425415, -1.6633033752441406, 7.963937282562256, -0.1735772341489792, -0.8642364144325256, -1.6408262252807617, 0.722412109375, 0.048095703125, -0.630859375
247, 5904182, -5.284486293792725, -1.663045048713684, 7.93486213684082, -0.17018356919288635, -0.8899900317192078, -1.6912577152252197, 0.72119140625, 0.047607421875, -0.62841796875
248, 5920849, -5.259247779846191, -1.6767340898513794, 7.944629669189453, -0.142496258020401, -0.9509482383728027, -1.692346215248108, 0.7216796875, 0.049560546875, -0.630859375
249, 5937516, -5.279847621917725, -1.6793678998947144, 7.982481479644775, -0.18470598757266998, -0.6087242364883423, -1.609438180923462, 0.720703125, 0.049560546875, -0.630859375
250, 5954183, -5.285912990570068, -1.649019479751587, 7.977858543395996, -0.22170357406139374, -0.6372824311256409, -1.6055066585540771, 0.723388671875, 0.050048828125, -0.63134765625
251, 5970850, -5.2794952392578125, -1.6652475595474243, 7.932945251464844, -0.14358478784561157, -0.7887302041053772, -1.6501492261886597, 0.72119140625, 0.046630859375, -0.63134765625
252, 5987517, -5.283553600311279, -1.7011210918426514, 7.964143753051758, -0.1298435926437378, -0.8400582075119019, -1.59853994846344, 0.722412109375, 0.046142578125, -0.630859375
253, 6004184, -5.275510787963867, -1.6689046621322632, 7.974481105804443, -0.05100768804550171, -0.8911042213439941, -1.611115574836731, 0.72216796875, 0.049560546875, -0.6328125
254, 6020851, -5.291479110717773, -1.647565484046936, 7.955867290496826, -0.12682126462459564, -0.7751426100730896, -1.646294355392456, 0.7216796875, 0.046630859375, -0.63134765625
255, 6037518, -5.285725116729736, -1.6777455806732178, 7.957058906555176, -0.05301828682422638, -0.8007168769836426, -1.6198365688323975, 0.724365234375, 0.048583984375, -0.63134765625
256, 6054185, -5.264395236968994, -1.6862735748291016, 7.977024078369141, -0.0637500137090683, -0.8751987814903259, -1.5782930850982666, 0.72119140625, 0.048095703125, -0.633544921875
257, 6070852, -5.286557674407959, -1.669561505317688, 7.966125011444092, -0.13303236663341522, -0.6677743792533875, -1.58464515209198, 0.721923828125, 0.047119140625, -0.63134765625
258, 6087519, -5.291397571563721, -1.6620393991470337, 7.917032718658447, -0.10182329267263412, -0.804623007774353, -1.4891992807388306, 0.72265625, 0.049072265625, -0.6318359375
259, 6104186, -5.283092498779297, -1.6649537086486816, 7.9378662109375, -0.05424769967794418, -0.889221727848053, -1.5859767198562622, 0.723388671875, 0.0458984375, -0.63330078125
260, 6120853, -5.277188777923584, -1.6658992767333984, 7.967428207397461, -0.11593586951494217, -0.8554641008377075, -1.6637881994247437, 0.72021484375, 0.047607421875, -0.633056640625
261, 6137520, -5.2887282371521, -1.6623040437698364, 7.9751763343811035, -0.11868922412395477, -0.883548378944397, -1.617672324180603, 0.7216796875, 0.049072265625, -0.630859375
262, 6154187, -5.275257587432861, -1.6739706993103027, 7.950729846954346, -0.17465299367904663, -0.9049863219261169, -1.6659650802612305, 0.71923828125, 0.046630859375, -0.62939453125
263, 6170854, -5.277515888214111, -1.66025710105896, 7.967781066894531, -0.1939585655927658, -1.0051382780075073, -1.7257516384124756, 0.72265625, 0.048583984375, -0.6298828125
264, 6187521, -5.2750115394592285, -1.6655105352401733, 7.956845760345459, -0.1773679107427597, -0.9875358939170837, -1.6591904163360596, 0.7216796875, 0.047607421875, -0.6328125
265, 6204188, -5.272295951843262, -1.6611829996109009, 7.980874061584473, -0.07334195822477341, -1.0348553657531738, -1.749616265296936, 0.72119140625, 0.049560546875, -0.6318359375
266, 6220855, -5.245352745056152, -1.666274905204773, 7.945681095123291, -0.05080278590321541, -1.0241621732711792, -1.6843420267105103, 0.7197265625, 0.04638671875, -0.632568359375
267, 6237522, -5.243757247924805, -1.6839302778244019, 7.944682598114014, -0.23926101624965668, -0.8951510190963745, -1.7126697301864624, 0.720703125, 0.050048828125, -0.62890625
268, 6254189, -5.236767768859863, -1.6578443050384521, 7.967763900756836, -0.10157997161149979, -0.6763033866882324, -1.5920214653015137, 0.7197265625, 0.049072265625, -0.62939453125
269, 6270856, -5.283317565917969, -1.651637315750122, 7.939062118530273, -0.15395794808864594, -0.6179192662239075, -1.6794248819351196, 0.721923828125, 0.047119140625, -0.63232421875
270, 6287523, -5.261451244354248, -1.65503990650177, 7.94633150100708, -0.24941642582416534, -0.6434933543205261, -1.7257705926895142, 0.723876953125, 0.047607421875, -0.630859375
271, 6304190, -5.270047664642334, -1.666783332824707, 7.956472873687744, -0.31399887800216675, -0.5619170069694519, -1.7840524911880493, 0.72119140625, 0.047119140625, -0.62939453125
272, 6320857, -5.2808403968811035, -1.6463972330093384, 7.985378742218018, -0.47798416018486023, -0.5751587748527527, -1.8170416355133057, 0.7197265625, 0.050048828125, -0.632080078125
273, 6337524, -5.239802360534668, -1.6637747287750244, 7.949475288391113, -0.36793920397758484, -0.5630950927734375, -1.7449289560317993, 0.721435546875, 0.0458984375, -0.63232421875
274, 6354191, -5.269400596618652, -1.6683104038238525, 7.942996025085449, -0.30424046516418457, -0.44550734758377075, -1.6758902072906494, 0.720703125, 0.047119140625, -0.63134765625
275, 6370858, -5.266631126403809, -1.6543552875518799, 7.947469234466553, -0.24822548031806946, -0.5131120681762695, -1.6103090047836304, 0.71923828125, 0.04638671875, -0.63134765625
276, 6387525, -5.250545501708984, -1.6676831245422363, 7.955951690673828, -0.2675246596336365, -0.4949270784854889, -1.6907073259353638, 0.722412109375, 0.047119140625, -0.6298828125
277, 6404192, -5.252048969268799, -1.6482689380645752, 7.9709625244140625, -0.08594342321157455, -0.46301355957984924, -1.6418125629425049, 0.723388671875, 0.050048828125, -0.63232421875
278, 6420859, -5.260100364685059, -1.6828100681304932, 7.9633002281188965, -0.09641197323799133, -0.3149142265319824, -1.4238824844360352, 0.72021484375, 0.047119140625, -0.63134765625
279, 6437526, -5.265692234039307, -1.6445491313934326, 7.985523700714111, -0.060369133949279785, -0.13508138060569763, -1.3922806978225708, 0.723388671875, 0.048095703125, -0.63232421875
280, 6454193, -5.283989906311035, -1.6436253786087036, 7.9714555740356445, -0.09589394927024841, -0.14875856041908264, -1.4042929410934448, 0.720703125, 0.047119140625, -0.6298828125
281, 6470860, -5.304225921630859, -1.6519850492477417, 7.957250595092773, -0.08035984635353088, -0.15143509209156036, -1.5709166526794434, 0.7216796875, 0.048095703125, -0.6318359375
282, 6487527, -5.281859874725342, -1.6463183164596558, 7.953922748565674, -0.09896747767925262, -0.4198305606842041, -1.5550366640090942, 0.72021484375, 0.044921875, -0.63232421875
283, 6504194, -5.266742706298828, -1.679373025894165, 7.952162742614746, -0.030325433239340782, -0.29635173082351685, -1.4495506286621094, 0.720703125, 0.047607421875, -0.633544921875
284, 6520861, -5.285330295562744, -1.6274911165237427, 7.978601932525635, 0.005385069642215967, -0.14047284424304962, -1.3501605987548828, 0.723388671875, 0.047119140625, -0.62939453125
285, 6537528, -5.292659759521484, -1.64792799949646, 7.956271171569824, -0.01899181678891182, -0.25442373752593994, -1.5246983766555786, 0.7216796875, 0.046630859375, -0.6298828125
286, 6554195, -5.296287536621094, -1.6565426588058472, 7.964132308959961, -0.0881204903125763, -0.32779133319854736, -1.4991496801376343, 0.723388671875, 0.047607421875, -0.63232421875
287, 6570862, -5.288141250610352, -1.6315139532089233, 7.937297344207764, -0.0017544700531288981, -0.5857240557670593, -1.6514301300048828, 0.723388671875, 0.047119140625, -0.63232421875
288, 6587529, -5.262068748474121, -1.656302809715271, 7.970144748687744, 0.008663496002554893, -0.7641932964324951, -1.5519118309020996, 0.72021484375, 0.04638671875, -0.6298828125
289, 6604196, -5.264008522033691, -1.636799693107605, 7.970296382904053, 0.0692119225859642, -0.6652770638465881, -1.5211765766143799, 0.720703125, 0.044921875, -0.63037109375
290, 6620863, -5.2816853523254395, -1.646645426750183, 7.9697065353393555, -0.015380427241325378, -0.5455376505851746, -1.434324026107788, 0.72119140625, 0.047607421875, -0.63232421875
291, 6637530, -5.281830787658691, -1.6270583868026733, 7.945680618286133, -0.03451310843229294, -0.49026548862457275, -1.5067821741104126, 0.721923828125, 0.0458984375, -0.6318359375
292, 6654197, -5.28652811050415, -1.643350601196289, 7.929577827453613, 0.049477338790893555, -0.6940017342567444, -1.5955431461334229, 0.7216796875, 0.047119140625, -0.63134765625
293, 6670864, -5.27545690536499, -1.6519876718521118, 7.957485675811768, 0.04704412817955017, -0.846679151058197, -1.4599239826202393, 0.721923828125, 0.04296875, -0.630859375
294, 6687531, -5.2722086906433105, -1.6426784992218018, 7.959340572357178, -0.01864604838192463, -0.7425506114959717, -1.514850378036499, 0.720703125, 0.04638671875, -0.63037109375
295, 6704198, -5.277286052703857, -1.6317492723464966, 7.972543239593506, -0.04611566290259361, -0.5039682388305664, -1.4793126583099365, 0.7216796875, 0.046630859375, -0.63134765625
296, 6720865, -5.274470806121826, -1.6389788389205933, 7.975433349609375, -0.06857801228761673, -0.6463749408721924, -1.5735676288604736, 0.724853515625, 0.04345703125, -0.630859375
297, 6737532, -5.269718170166016, -1.6370806694030762, 7.9544453620910645, -0.1639084815979004, -0.5263025760650635, -1.5460466146469116, 0.722412109375, 0.04443359375, -0.628173828125
298, 6754199, -5.270339012145996, -1.645806074142456, 7.941309452056885, 0.03549279645085335, -0.4804430305957794, -1.468183994293213, 0.71923828125, 0.04345703125, -0.63134765625
299, 6770866, -5.263819217681885, -1.6383408308029175, 7.952850818634033, 0.010161838494241238, -0.3339255452156067, -1.3630695343017578, 0.72119140625, 0.04638671875, -0.63134765625
300, 6787533, -5.285645008087158, -1.625248908996582, 7.972420692443848, 0.09508074074983597, -0.24945487082004547, -1.3619041442871094, 0.723876953125, 0.044921875, -0.630126953125
301, 6804200, -5.271434307098389, -1.6258995532989502, 7.957489013671875, 0.030562356114387512, -0.2647072374820709, -1.4566709995269775, 0.72119140625, 0.04541015625, -0.62939453125
302, 6820867, -5.275146961212158, -1.6376943588256836, 7.950332164764404, 0.1722390055656433, -0.25076115131378174, -1.3435912132263184, 0.722412109375, 0.04296875, -0.63134765625
303, 6837534, -5.290877342224121, -1.6328482627868652, 7.9579572677612305, 0.06463364511728287, -0.1712593287229538, -1.3431428670883179, 0.723388671875, 0.0419921875, -0.629150390625
304, 6854201, -5.2841925621032715, -1.6189149618148804, 7.968043327331543, 0.09200722724199295, -0.0720100998878479, -1.2995115518569946, 0.723388671875, 0.04345703125, -0.63037109375
305, 6870868, -5.303630828857422, -1.6110942363739014, 7.948146343231201, 0.23643724620342255, -0.0918087288737297, -1.2600808143615723, 0.721923828125, 0.044921875, -0.630859375
306, 6887535, -5.274564743041992, -1.6505866050720215, 7.9541425704956055, 0.14219529926776886, -0.10013284534215927, -1.4028716087341309, 0.722412109375, 0.04345703125, -0.63134765625
307, 6904202, -5.283092021942139, -1.5849242210388184, 7.985386371612549, -0.24105395376682281, 0.23677021265029907, -1.2408969402313232, 0.722412109375, 0.04443359375, -0.63134765625
308, 6920869, -5.31536340713501, -1.6127839088439941, 7.940432548522949, 0.015092283487319946, 0.14118361473083496, -1.2129790782928467, 0.722900390625, 0.04296875, -0.6318359375
309, 6937536, -5.320674419403076, -1.6244667768478394, 7.925933361053467, 0.156000554561615, -0.2067585289478302, -1.3032766580581665, 0.723876953125, 0.044921875, -0.63134765625
310, 6954203, -5.2949604988098145, -1.614702820777893, 7.983297824859619, 0.19888900220394135, -0.39549848437309265, -1.252717137336731, 0.722900390625, 0.04150390625, -0.63037109375
311, 6970870, -5.286550045013428, -1.6122125387191772, 7.937592029571533, 0.1499815583229065, -0.2178872525691986, -1.1758406162261963, 0.722900390625, 0.0439453125, -0.63037109375
312, 6987537, -5.316442489624023, -1.6077907085418701, 7.943094730377197, 0.11929754167795181, -0.12428561598062515, -1.1575658321380615, 0.722412109375, 0.0439453125, -0.628662109375
313, 7004204, -5.3149518966674805, -1.5842108726501465, 7.950183391571045, -2.4332063912879676E-4, -0.11818981170654297, -1.251282811164856, 0.724853515625, 0.04345703125, -0.629638671875
314, 7020871, -5.314744472503662, -1.5846387147903442, 7.97769832611084, -0.03191342577338219, -0.12181399762630463, -1.308693766593933, 0.724853515625, 0.04443359375, -0.629150390625
315, 7037538, -5.321329116821289, -1.6024318933486938, 7.95096492767334, -0.17449931800365448, -0.19875454902648926, -1.3549758195877075, 0.724365234375, 0.040283203125, -0.6318359375
316, 7054205, -5.308945655822754, -1.5945155620574951, 7.9395270347595215, -0.23693029582500458, -0.17141298949718475, -1.47874915599823, 0.722900390625, 0.041259765625, -0.630126953125
317, 7070872, -5.290499687194824, -1.6073030233383179, 7.935547351837158, -0.11949605494737625, -0.3066480755805969, -1.4316860437393188, 0.723388671875, 0.0439453125, -0.63037109375
318, 7087539, -5.293829917907715, -1.6074798107147217, 7.949369430541992, -0.09043844044208527, -0.3143446743488312, -1.4382940530776978, 0.724365234375, 0.04296875, -0.629150390625
319, 7104206, -5.302731990814209, -1.607555627822876, 7.958184719085693, -0.09652146697044373, -0.17782898247241974, -1.3529908657073975, 0.725341796875, 0.04150390625, -0.629150390625
320, 7120873, -5.296793460845947, -1.6083904504776, 7.967747211456299, -0.09157820045948029, -0.12496435642242432, -1.3052103519439697, 0.722900390625, 0.04345703125, -0.628662109375
321, 7137540, -5.3028435707092285, -1.607401967048645, 7.9279680252075195, -0.046576689928770065, 0.14402660727500916, -1.3199377059936523, 0.722900390625, 0.04296875, -0.628662109375
322, 7154207, -5.31065559387207, -1.5824440717697144, 7.9505391120910645, -0.07419999688863754, 0.2561846375465393, -1.1807070970535278, 0.72509765625, 0.038818359375, -0.631591796875
323, 7170874, -5.318930625915527, -1.6181585788726807, 7.919144630432129, -0.18968766927719116, 0.31556767225265503, -1.2868845462799072, 0.724853515625, 0.041259765625, -0.629150390625
324, 7187541, -5.334068775177002, -1.5719469785690308, 7.920979022979736, -0.21127918362617493, 0.19976626336574554, -1.3955848217010498, 0.723388671875, 0.0419921875, -0.628662109375
325, 7204208, -5.343338966369629, -1.6022846698760986, 7.934090614318848, -0.2726471722126007, 0.056187864392995834, -1.479197382926941, 0.726318359375, 0.04296875, -0.628173828125
326, 7220875, -5.337831020355225, -1.611956238746643, 7.933061599731445, -0.3064943850040436, 0.03638923913240433, -1.372149109840393, 0.724365234375, 0.040283203125, -0.627685546875
327, 7237542, -5.320600509643555, -1.5926039218902588, 7.937679290771484, -0.19708973169326782, -0.088018037378788, -1.4152553081512451, 0.725830078125, 0.04150390625, -0.629150390625
328, 7254209, -5.327192306518555, -1.6021908521652222, 7.920691013336182, -0.168710857629776, -0.3217211067676544, -1.3555904626846313, 0.72607421875, 0.04150390625, -0.628662109375
329, 7270876, -5.314479827880859, -1.587359070777893, 7.934383869171143, -0.13359585404396057, -0.37196046113967896, -1.4405221939086914, 0.72509765625, 0.037353515625, -0.626953125
330, 7287543, -5.328579425811768, -1.5837234258651733, 7.941644668579102, -0.2055291086435318, -0.5508394837379456, -1.5236226320266724, 0.724365234375, 0.040283203125, -0.626708984375
331, 7304210, -5.319230079650879, -1.5956556797027588, 7.9332661628723145, -0.25181129574775696, -0.5414140224456787, -1.4748817682266235, 0.722900390625, 0.041259765625, -0.628662109375
332, 7320877, -5.311253070831299, -1.5964714288711548, 7.926449775695801, -0.22677482664585114, -0.5333971977233887, -1.5267857313156128, 0.722900390625, 0.040771484375, -0.628662109375
333, 7337544, -5.311337471008301, -1.600134253501892, 7.9400715827941895, -0.3271893858909607, -0.48287612199783325, -1.4920035600662231, 0.725341796875, 0.039794921875, -0.6259765625
334, 7354211, -5.327398777008057, -1.589917540550232, 7.947179794311523, -0.36038345098495483, -0.49496540427207947, -1.46485435962677, 0.724365234375, 0.041259765625, -0.627685546875
335, 7370878, -5.339705944061279, -1.5869300365447998, 7.937795639038086, -0.3668122887611389, -0.42675885558128357, -1.636523723602295, 0.725830078125, 0.04150390625, -0.627197265625
336, 7387545, -5.323066234588623, -1.5911643505096436, 7.930643081665039, -0.3319661617279053, -0.5329362154006958, -1.7205840349197388, 0.72900390625, 0.04052734375, -0.6279296875
337, 7404212, -5.314497947692871, -1.5937470197677612, 7.950850963592529, -0.34610438346862793, -0.3691558539867401, -1.5403093099594116, 0.725830078125, 0.04150390625, -0.628173828125
338, 7420879, -5.332193851470947, -1.5941951274871826, 7.924527645111084, -0.28668293356895447, -0.4402182698249817, -1.5731064081192017, 0.72607421875, 0.040771484375, -0.628662109375
339, 7437546, -5.327941417694092, -1.600450038909912, 7.9338154792785645, -0.2964285910129547, -0.6000927686691284, -1.626329779624939, 0.725830078125, 0.041015625, -0.626953125
340, 7454213, -5.3183135986328125, -1.5753840208053589, 7.95305871963501, -0.29227930307388306, -0.4265923500061035, -1.4870349168777466, 0.72802734375, 0.04052734375, -0.629638671875
341, 7470880, -5.35258674621582, -1.5547268390655518, 7.927148342132568, -0.43304675817489624, -0.4506426453590393, -1.6416717767715454, 0.72607421875, 0.040283203125, -0.626953125
342, 7487547, -5.336611747741699, -1.5925840139389038, 7.936633586883545, -0.4824407994747162, -0.5661942958831787, -1.8036973476409912, 0.725830078125, 0.04150390625, -0.626953125
343, 7504214, -5.34119176864624, -1.5920567512512207, 7.907905101776123, -0.3933470547199249, -0.5798971652984619, -1.7422397136688232, 0.721923828125, 0.040283203125, -0.626708984375
344, 7520881, -5.311807155609131, -1.6040468215942383, 7.930429935455322, -0.4077797830104828, -0.7744511365890503, -1.716960072517395, 0.723388671875, 0.040283203125, -0.627685546875
345, 7537548, -5.328413963317871, -1.5953402519226074, 7.920485496520996, -0.31992825865745544, -0.7585969567298889, -1.580214023590088, 0.725341796875, 0.040283203125, -0.626953125
346, 7554215, -5.341742515563965, -1.5829862356185913, 7.939320087432861, -0.37192198634147644, -0.7945314645767212, -1.7086230516433716, 0.724365234375, 0.039306640625, -0.62646484375
347, 7570882, -5.330172538757324, -1.602046251296997, 7.971760272979736, -0.42846202850341797, -0.7022106051445007, -1.7679036855697632, 0.725341796875, 0.040771484375, -0.629150390625
348, 7587549, -5.325554370880127, -1.5841795206069946, 7.929444789886475, -0.44820940494537354, -0.6991626024246216, -1.6770809888839722, 0.725341796875, 0.04248046875, -0.628173828125
349, 7604216, -5.317110061645508, -1.588721513748169, 7.93985652923584, -0.4030783474445343, -0.787945032119751, -1.7536399364471436, 0.724365234375, 0.039306640625, -0.627197265625
350, 7620883, -5.339911460876465, -1.6033833026885986, 7.944143295288086, -0.4861930310726166, -0.704349160194397, -1.785550832748413, 0.725341796875, 0.041015625, -0.626708984375
351, 7637550, -5.3422064781188965, -1.5831466913223267, 7.956723690032959, -0.48415684700012207, -0.5947652459144592, -1.7972174882888794, 0.725341796875, 0.040283203125, -0.627197265625
352, 7654217, -5.345483303070068, -1.5893911123275757, 7.92634391784668, -0.5401718616485596, -0.6895323395729065, -1.9700266122817993, 0.72509765625, 0.038818359375, -0.628662109375
353, 7670884, -5.325669765472412, -1.5993597507476807, 7.924271106719971, -0.44231849908828735, -0.8402373790740967, -1.7803642749786377, 0.724365234375, 0.039794921875, -0.626708984375
354, 7687551, -5.33922004699707, -1.5964454412460327, 7.902638912200928, -0.4058459997177124, -0.7966061234474182, -1.7889444828033447, 0.725341796875, 0.04150390625, -0.628173828125
355, 7704218, -5.3269853591918945, -1.5855647325515747, 7.9199910163879395, -0.482850581407547, -0.9681345224380493, -1.8596227169036865, 0.725341796875, 0.04150390625, -0.630126953125
356, 7720885, -5.339171886444092, -1.5802983045578003, 7.932244777679443, -0.48753780126571655, -1.0338438749313354, -2.016923189163208, 0.723388671875, 0.039794921875, -0.627685546875
357, 7737552, -5.324902057647705, -1.6103206872940063, 7.91780424118042, -0.5278905630111694, -1.0333572626113892, -2.006153106689453, 0.724853515625, 0.0419921875, -0.627197265625
358, 7754219, -5.324096202850342, -1.6038439273834229, 7.943134307861328, -0.3741247057914734, -0.9863450527191162, -1.85406494140625, 0.724853515625, 0.041259765625, -0.631103515625
359, 7770886, -5.328110694885254, -1.5745058059692383, 7.926783084869385, -0.3081207871437073, -1.1135761737823486, -1.753637671470642, 0.725830078125, 0.040771484375, -0.628173828125
360, 7787553, -5.31915283203125, -1.5716716051101685, 7.9454803466796875, -0.4018632769584656, -1.128098726272583, -1.8526948690414429, 0.725341796875, 0.04150390625, -0.629150390625
361, 7804220, -5.3271636962890625, -1.5818583965301514, 7.9346394538879395, -0.3935519754886627, -1.0714433193206787, -2.027834415435791, 0.723876953125, 0.040771484375, -0.629150390625
362, 7820887, -5.336241245269775, -1.5909749269485474, 7.9278764724731445, -0.3487745523452759, -1.2774015665054321, -1.9295390844345093, 0.723876953125, 0.040283203125, -0.631103515625
363, 7837554, -5.320405960083008, -1.6156164407730103, 7.973412036895752, -0.28930824995040894, -1.2592101097106934, -1.849787712097168, 0.724853515625, 0.039794921875, -0.62548828125
364, 7854221, -5.31027364730835, -1.6074169874191284, 7.943954944610596, 0.00486000906676054, -1.1669145822525024, -1.6219496726989746, 0.724365234375, 0.038818359375, -0.628662109375
365, 7870888, -5.312620162963867, -1.5805468559265137, 7.9349894523620605, -0.14952053129673004, -1.2319132089614868, -1.593154788017273, 0.724365234375, 0.040283203125, -0.629638671875
366, 7887555, -5.31290864944458, -1.5658255815505981, 7.965513229370117, -0.21679869294166565, -1.1093883514404297, -1.6271876096725464, 0.724853515625, 0.0419921875, -0.628173828125
367, 7904222, -5.327234745025635, -1.5789766311645508, 7.934536457061768, -0.4554578959941864, -1.0158894062042236, -1.8400037288665771, 0.724365234375, 0.039306640625, -0.627685546875
368, 7920889, -5.320440292358398, -1.5859506130218506, 7.95964241027832, -0.5108453035354614, -0.9468887448310852, -1.9811168909072876, 0.7255859375, 0.039794921875, -0.630126953125
369, 7937556, -5.313876628875732, -1.5901929140090942, 7.9220075607299805, -0.6329154372215271, -1.0253020524978638, -2.089369058609009, 0.723876953125, 0.0419921875, -0.6318359375
370, 7954223, -5.31666374206543, -1.6145172119140625, 7.957352161407471, -0.4764474928379059, -1.0650273561477661, -2.0390913486480713, 0.724853515625, 0.040283203125, -0.627685546875
371, 7970890, -5.3071112632751465, -1.6191977262496948, 7.9731831550598145, -0.4370935559272766, -1.0103954076766968, -1.839619517326355, 0.723388671875, 0.040771484375, -0.627685546875
372, 7987557, -5.303431987762451, -1.5988723039627075, 7.943767070770264, -0.3992507755756378, -0.9947077035903931, -1.8208198547363281, 0.723388671875, 0.0419921875, -0.628662109375
373, 8004224, -5.287147045135498, -1.58994722366333, 7.9753546714782715, -0.34957489371299744, -1.006719946861267, -1.774562954902649, 0.722900390625, 0.041259765625, -0.63037109375
374, 8020891, -5.316014289855957, -1.591998815536499, 7.932817459106445, -0.3576173484325409, -1.006310224533081, -1.8522337675094604, 0.723388671875, 0.0419921875, -0.629150390625
375, 8037558, -5.296969413757324, -1.594821810722351, 7.932924270629883, -0.3912596106529236, -0.982042133808136, -1.971960186958313, 0.724853515625, 0.041259765625, -0.629150390625
376, 8054225, -5.324255466461182, -1.5866272449493408, 7.937356472015381, -0.5093597173690796, -1.1092731952667236, -1.9616767168045044, 0.723876953125, 0.04296875, -0.630126953125
377, 8070892, -5.304454803466797, -1.6099714040756226, 7.94505500793457, -0.39624127745628357, -1.209585428237915, -1.9701802730560303, 0.723876953125, 0.0439453125, -0.630126953125
378, 8087559, -5.308504104614258, -1.5976545810699463, 7.923762798309326, -0.43293148279190063, -1.2855271100997925, -1.9992506504058838, 0.722900390625, 0.04150390625, -0.630859375
379, 8104226, -5.302856922149658, -1.5880690813064575, 7.9441142082214355, -0.44568660855293274, -1.1436071395874023, -1.8576891422271729, 0.724365234375, 0.04296875, -0.63134765625
380, 8120893, -5.27842378616333, -1.5821646451950073, 7.957244873046875, -0.5183370113372803, -1.2078949213027954, -1.962201714515686, 0.721923828125, 0.04345703125, -0.630859375
381, 8137560, -5.285019874572754, -1.605250597000122, 7.943767070770264, -0.3785557150840759, -1.1092860698699951, -1.9739580154418945, 0.722412109375, 0.0419921875, -0.634765625
382, 8154227, -5.286704063415527, -1.602623701095581, 7.943282604217529, -0.463666707277298, -0.9983574748039246, -1.8972735404968262, 0.724365234375, 0.041259765625, -0.630126953125
383, 8170894, -5.300290584564209, -1.6038342714309692, 7.946343898773193, -0.4307224154472351, -0.9582543969154358, -1.9228415489196777, 0.722412109375, 0.041748046875, -0.635498046875
384, 8187561, -5.2982378005981445, -1.6154003143310547, 7.9506096839904785, -0.47377094626426697, -0.9463636875152588, -1.8961211442947388, 0.724853515625, 0.04296875, -0.63134765625
385, 8204228, -5.297908306121826, -1.6020386219024658, 7.963128089904785, -0.42285287380218506, -0.8824472427368164, -1.8611085414886475, 0.721923828125, 0.0419921875, -0.6298828125
386, 8220895, -5.310503005981445, -1.5919787883758545, 7.963105201721191, -0.4558420181274414, -0.8161872029304504, -1.9746111631393433, 0.722900390625, 0.04296875, -0.6298828125
387, 8237562, -5.301741600036621, -1.6014618873596191, 7.954281806945801, -0.5056203603744507, -0.8152779340744019, -2.0071136951446533, 0.722412109375, 0.0419921875, -0.630859375
388, 8254229, -5.286794662475586, -1.6181107759475708, 7.9426374435424805, -0.5200210213661194, -0.8105458617210388, -2.004533052444458, 0.721435546875, 0.041748046875, -0.630859375
389, 8270896, -5.305253982543945, -1.6218576431274414, 7.948346138000488, -0.38552233576774597, -0.9239269495010376, -1.917802333831787, 0.720458984375, 0.040771484375, -0.63037109375
390, 8287563, -5.276765823364258, -1.6441737413406372, 7.979946613311768, -0.1360546499490738, -0.8316187858581543, -1.7793269157409668, 0.721435546875, 0.041259765625, -0.630859375
391, 8304230, -5.294442653656006, -1.6100661754608154, 7.953526973724365, 0.045782703906297684, -0.8363699316978455, -1.4160877466201782, 0.724365234375, 0.04150390625, -0.63232421875
392, 8320897, -5.28237771987915, -1.5863151550292969, 7.974030494689941, -0.17142578959465027, -0.8610476851463318, -1.7303555011749268, 0.720947265625, 0.04248046875, -0.6318359375
393, 8337564, -5.306888580322266, -1.599179983139038, 7.976798057556152, -0.3065071702003479, -0.6616528034210205, -1.7244261503219604, 0.721923828125, 0.0419921875, -0.6318359375
394, 8354231, -5.281129360198975, -1.601528525352478, 7.9644551277160645, -0.3814754784107208, -0.8158795833587646, -1.8474053144454956, 0.720947265625, 0.04248046875, -0.63037109375
395, 8370898, -5.284657001495361, -1.5986883640289307, 7.987405300140381, -0.455905944108963, -0.7114566564559937, -1.8608520030975342, 0.724853515625, 0.039794921875, -0.629638671875
396, 8387565, -5.286231994628906, -1.615699291229248, 7.964062690734863, -0.5119209885597229, -0.5583824515342712, -1.9324395656585693, 0.723388671875, 0.041259765625, -0.630859375
397, 8404232, -5.284536838531494, -1.6246706247329712, 7.966342926025391, -0.5229471921920776, -0.6054969429969788, -1.8727877140045166, 0.722900390625, 0.04150390625, -0.63037109375
398, 8420899, -5.299816608428955, -1.6051199436187744, 7.953536510467529, -0.43884792923927307, -0.6791974306106567, -1.6779004335403442, 0.723876953125, 0.04345703125, -0.626708984375
399, 8437566, -5.290868759155273, -1.611831545829773, 7.9557576179504395, -0.4853861629962921, -0.6314042210578918, -1.7119653224945068, 0.723388671875, 0.04248046875, -0.63134765625
400, 8454233, -5.300646781921387, -1.6184171438217163, 7.963095664978027, -0.4522305727005005, -0.6905695199966431, -1.7435842752456665, 0.722900390625, 0.04296875, -0.6328125
401, 8470900, -5.277440071105957, -1.60980224609375, 7.9366230964660645, -0.28310996294021606, -0.7440104484558105, -1.7689666748046875, 0.721435546875, 0.041748046875, -0.63134765625
402, 8487567, -5.2888312339782715, -1.603013277053833, 7.951537609100342, -0.2621459662914276, -0.9167168140411377, -1.6817296743392944, 0.722412109375, 0.04248046875, -0.629638671875
403, 8504234, -5.283293724060059, -1.6025404930114746, 7.958643913269043, -0.19331184029579163, -0.9220572113990784, -1.7154488563537598, 0.722900390625, 0.04345703125, -0.63037109375
404, 8520901, -5.300699710845947, -1.6095188856124878, 7.944671630859375, -0.3078005909919739, -0.9779824614524841, -1.7955780029296875, 0.720458984375, 0.041748046875, -0.6318359375
405, 8537568, -5.277666091918945, -1.600319504737854, 7.961624622344971, -0.2844930589199066, -1.122348427772522, -1.8465348482131958, 0.721923828125, 0.039306640625, -0.63037109375
406, 8554235, -5.290903091430664, -1.596754550933838, 7.96964693069458, -0.3052137494087219, -1.0911009311676025, -1.8097039461135864, 0.721923828125, 0.041259765625, -0.630859375
407, 8570902, -5.277410984039307, -1.6252144575119019, 7.961637020111084, -0.25228509306907654, -1.1506761312484741, -1.8115606307983398, 0.723388671875, 0.04345703125, -0.629150390625
408, 8587569, -5.282814025878906, -1.618944525718689, 7.957704067230225, -0.22359885275363922, -1.0579324960708618, -1.656219482421875, 0.723388671875, 0.04248046875, -0.63232421875
409, 8604236, -5.298442363739014, -1.5980480909347534, 7.967092990875244, -0.16631606221199036, -1.265024185180664, -1.7500646114349365, 0.72021484375, 0.04345703125, -0.630859375
410, 8620903, -5.28466796875, -1.59867262840271, 7.9840240478515625, -0.14597958326339722, -1.4027179479599, -1.741458773612976, 0.720947265625, 0.0419921875, -0.63037109375
411, 8637570, -5.276312828063965, -1.6140375137329102, 7.981103420257568, -0.22055096924304962, -1.2870125770568848, -1.7894442081451416, 0.720458984375, 0.04345703125, -0.633544921875
412, 8654237, -5.292685508728027, -1.5812492370605469, 7.9648823738098145, -0.3828074336051941, -1.1372807025909424, -1.9379594326019287, 0.724365234375, 0.0439453125, -0.630859375
413, 8670904, -5.313785076141357, -1.6168240308761597, 7.949192523956299, -0.23600822687149048, -1.3827017545700073, -1.7812480926513672, 0.719482421875, 0.041748046875, -0.63232421875
414, 8687571, -5.251858711242676, -1.5940091609954834, 7.985942363739014, -0.4358641505241394, -1.339249610900879, -1.8893848657608032, 0.7197265625, 0.04541015625, -0.632568359375
415, 8704238, -5.24526834487915, -1.6019788980484009, 7.995072841644287, -0.5144182443618774, -1.115740418434143, -1.9375240802764893, 0.721435546875, 0.0419921875, -0.6318359375
416, 8720905, -5.2702836990356445, -1.5651209354400635, 7.999343395233154, -0.631173849105835, -0.9053322076797485, -2.100522994995117, 0.720458984375, 0.04248046875, -0.630859375
417, 8737572, -5.280109882354736, -1.6030384302139282, 8.000946044921875, -0.7881411910057068, -0.7181928753852844, -2.1978769302368164, 0.720947265625, 0.04443359375, -0.6318359375
418, 8754239, -5.2676005363464355, -1.6219947338104248, 7.94907283782959, -0.8460643291473389, -0.6274983286857605, -2.244082450866699, 0.719970703125, 0.04248046875, -0.63134765625
419, 8770906, -5.293014049530029, -1.6247111558914185, 7.9764580726623535, -0.8705243468284607, -0.8902589678764343, -2.1916401386260986, 0.721435546875, 0.04443359375, -0.6328125
420, 8787573, -5.2729620933532715, -1.621260404586792, 7.931663513183594, -0.7802268266677856, -1.1066861152648926, -2.141106128692627, 0.722412109375, 0.04541015625, -0.6328125
421, 8804240, -5.2784013748168945, -1.6214935779571533, 7.963029384613037, -0.8468963503837585, -1.2001678943634033, -2.0867278575897217, 0.71875, 0.0439453125, -0.634521484375
422, 8820907, -5.2535881996154785, -1.6268996000289917, 7.969708442687988, -0.718820333480835, -1.254561185836792, -2.0902905464172363, 0.720703125, 0.0439453125, -0.63037109375
423, 8837574, -5.240800857543945, -1.6271861791610718, 7.985927581787109, -0.6786213517189026, -1.1855734586715698, -2.060285806655884, 0.722412109375, 0.044921875, -0.636474609375
424, 8854241, -5.246037006378174, -1.6210644245147705, 7.9790496826171875, -0.672128438949585, -1.02211332321167, -2.045443296432495, 0.721435546875, 0.0458984375, -0.635009765625
425, 8870908, -5.254840850830078, -1.6287509202957153, 7.957867622375488, -0.6748818159103394, -0.7449581623077393, -1.9767752885818481, 0.7197265625, 0.04443359375, -0.633056640625
426, 8887575, -5.272761821746826, -1.623948097229004, 7.953104019165039, -0.6283692121505737, -0.8983014822006226, -2.0519230365753174, 0.720947265625, 0.04345703125, -0.634033203125
427, 8904242, -5.263767719268799, -1.6260744333267212, 7.972926139831543, -0.6222350001335144, -0.855118453502655, -2.033545970916748, 0.7197265625, 0.04248046875, -0.63232421875
428, 8920909, -5.255594730377197, -1.6359965801239014, 7.977995872497559, -0.47496187686920166, -0.9974609613418579, -2.0362095832824707, 0.720458984375, 0.04345703125, -0.635009765625
429, 8937576, -5.249047756195068, -1.6495763063430786, 7.954965114593506, -0.45883873105049133, -0.9421760439872742, -1.9252427816390991, 0.7197265625, 0.0458984375, -0.633056640625
430, 8954243, -5.253995418548584, -1.622862696647644, 7.977433204650879, -0.39142611622810364, -0.9200210571289062, -1.8492625951766968, 0.720947265625, 0.04638671875, -0.634033203125
431, 8970910, -5.258286476135254, -1.6093475818634033, 7.96544885635376, -0.33786994218826294, -0.9293696284294128, -1.9731509685516357, 0.7197265625, 0.044921875, -0.635498046875
432, 8987577, -5.266453742980957, -1.6435052156448364, 7.971904277801514, -0.14872011542320251, -0.9372967481613159, -1.844588041305542, 0.71875, 0.04541015625, -0.632080078125
433, 9004244, -5.2501301765441895, -1.6468374729156494, 7.958333969116211, 0.17289209365844727, -1.0151078701019287, -1.6456540822982788, 0.71826171875, 0.04443359375, -0.63134765625
434, 9020911, -5.221141338348389, -1.626388430595398, 7.965599536895752, 0.15368255972862244, -1.0192443132400513, -1.604366421699524, 0.72021484375, 0.0458984375, -0.633544921875
435, 9037578, -5.248324394226074, -1.6321669816970825, 7.97819185256958, -0.027226299047470093, -0.8697175979614258, -1.576973795890808, 0.720947265625, 0.04443359375, -0.63232421875
436, 9054245, -5.231807708740234, -1.5808837413787842, 8.00788688659668, -0.26127511262893677, -0.5169411301612854, -1.6248054504394531, 0.71923828125, 0.044921875, -0.632568359375
437, 9070912, -5.259871959686279, -1.5774458646774292, 8.002049446105957, -0.5914483666419983, -0.35765567421913147, -1.7974989414215088, 0.720947265625, 0.04345703125, -0.634521484375
438, 9087579, -5.294236183166504, -1.6058284044265747, 7.958821773529053, -0.7747329473495483, -0.46120789647102356, -1.9594100713729858, 0.722412109375, 0.04443359375, -0.63134765625
439, 9104246, -5.271605491638184, -1.6175880432128906, 7.954996109008789, -0.7111750245094299, -0.8031117916107178, -2.035902500152588, 0.71826171875, 0.04443359375, -0.635498046875
440, 9120913, -5.279327392578125, -1.6275275945663452, 7.982189178466797, -0.8151241540908813, -1.0217162370681763, -2.0167312622070312, 0.7177734375, 0.0458984375, -0.632080078125
441, 9137580, -5.26076078414917, -1.6288195848464966, 7.998095989227295, -1.0073987245559692, -1.0757845640182495, -2.088446617126465, 0.71630859375, 0.0439453125, -0.635009765625
442, 9154247, -5.266788959503174, -1.623048186302185, 7.975137233734131, -1.166005253791809, -1.112769365310669, -2.0586204528808594, 0.72021484375, 0.04541015625, -0.635498046875
443, 9170914, -5.2942728996276855, -1.607969045639038, 7.962515830993652, -1.2756019830703735, -1.3171586990356445, -2.235361099243164, 0.71826171875, 0.04638671875, -0.633544921875
444, 9187581, -5.234720706939697, -1.663996696472168, 7.963894844055176, -1.1980851888656616, -1.5409879684448242, -2.142848014831543, 0.720458984375, 0.04541015625, -0.634521484375
445, 9204248, -5.223702430725098, -1.642080545425415, 8.001805305480957, -1.1929115056991577, -1.5803805589675903, -2.1499557495117188, 0.71875, 0.047607421875, -0.633056640625
446, 9220915, -5.264252185821533, -1.631865382194519, 7.998865604400635, -1.247428059577942, -1.3689732551574707, -2.2183032035827637, 0.722900390625, 0.047119140625, -0.6337890625
447, 9237582, -5.242188930511475, -1.6552108526229858, 7.960472583770752, -1.1653393507003784, -1.3550654649734497, -2.3544602394104004, 0.71875, 0.046875, -0.635498046875
448, 9254249, -5.239223957061768, -1.6485384702682495, 7.992859840393066, -1.2710556983947754, -1.8038638830184937, -2.362694501876831, 0.71875, 0.047119140625, -0.635498046875
449, 9270916, -5.230320930480957, -1.6585384607315063, 7.995458126068115, -1.2604906558990479, -1.7510123252868652, -2.208442211151123, 0.7197265625, 0.049560546875, -0.63623046875
450, 9287583, -5.23408317565918, -1.6535406112670898, 7.983194351196289, -1.2461603879928589, -1.5887173414230347, -2.324711322784424, 0.71728515625, 0.048583984375, -0.6376953125
451, 9304250, -5.211989402770996, -1.647480845451355, 8.003703117370605, -1.3865820169448853, -1.461153507232666, -2.320241928100586, 0.71875, 0.048583984375, -0.634033203125
452, 9320917, -5.213838577270508, -1.6313583850860596, 8.014819145202637, -1.4384862184524536, -1.0937902927398682, -2.4769656658172607, 0.7177734375, 0.048095703125, -0.63671875
453, 9337584, -5.239859104156494, -1.6392532587051392, 7.98621940612793, -1.763895034790039, -1.0503640174865723, -2.6394269466400146, 0.71875, 0.049072265625, -0.635986328125
454, 9354251, -5.227840423583984, -1.659349799156189, 7.989522933959961, -1.9153434038162231, -0.8702938556671143, -2.7369604110717773, 0.71875, 0.049560546875, -0.63671875
455, 9370918, -5.212242126464844, -1.672257900238037, 8.017420768737793, -1.908927083015442, -0.8958681225776672, -2.7589101791381836, 0.7197265625, 0.048095703125, -0.635986328125
456, 9387585, -5.2422285079956055, -1.6743214130401611, 8.001455307006836, -1.8586238622665405, -0.9732058048248291, -2.7174177169799805, 0.71728515625, 0.051025390625, -0.63525390625
457, 9404252, -5.22921895980835, -1.711717963218689, 7.958802700042725, -1.5530387163162231, -1.251820683479309, -2.5634851455688477, 0.71728515625, 0.051025390625, -0.6357421875
458, 9420919, -5.243896484375, -1.6678317785263062, 7.991873264312744, -1.6065692901611328, -1.541192889213562, -2.475224018096924, 0.71728515625, 0.050048828125, -0.63671875
459, 9437586, -5.207793712615967, -1.6956002712249756, 7.976298809051514, -1.511815071105957, -1.5732471942901611, -2.5136687755584717, 0.716552734375, 0.052734375, -0.63671875
460, 9454253, -5.227027416229248, -1.6586536169052124, 8.036850929260254, -1.6910784244537354, -1.3520174026489258, -2.6457149982452393, 0.71728515625, 0.051025390625, -0.63720703125
461, 9470920, -5.188610553741455, -1.7075064182281494, 8.007787704467773, -1.7160123586654663, -1.1069806814193726, -2.6533732414245605, 0.716064453125, 0.050537109375, -0.63623046875
462, 9487587, -5.214889049530029, -1.705245018005371, 8.003593444824219, -1.7933882474899292, -1.0441913604736328, -2.7732150554656982, 0.71875, 0.05322265625, -0.63671875
463, 9504254, -5.189496040344238, -1.7405421733856201, 7.963913440704346, -1.5580843687057495, -1.072313904762268, -2.711642026901245, 0.71728515625, 0.051513671875, -0.63623046875
464, 9520921, -5.1582159996032715, -1.7558658123016357, 7.975827693939209, -1.2393474578857422, -1.1045221090316772, -2.4866602420806885, 0.716064453125, 0.052734375, -0.63623046875
465, 9537588, -5.210403919219971, -1.7119901180267334, 7.961153030395508, -1.0711358785629272, -1.122348427772522, -2.250126838684082, 0.715087890625, 0.052734375, -0.6328125
466, 9554255, -5.238000869750977, -1.7013003826141357, 7.969814300537109, -0.8115896582603455, -1.0706621408462524, -2.3222908973693848, 0.717041015625, 0.05322265625, -0.6376953125
467, 9570922, -5.176947593688965, -1.7691926956176758, 8.018500328063965, -0.7152986526489258, -1.1319148540496826, -2.3744893074035645, 0.715576171875, 0.0537109375, -0.6357421875
468, 9587589, -5.166935443878174, -1.7236700057983398, 7.992214679718018, -0.8369845747947693, -1.0460737943649292, -2.248667001724243, 0.715576171875, 0.056640625, -0.63671875
469, 9604256, -5.215792655944824, -1.7241824865341187, 7.994153022766113, -0.7988088726997375, -0.934120774269104, -2.1492769718170166, 0.715576171875, 0.0537109375, -0.638427734375
470, 9620923, -5.185578346252441, -1.7400466203689575, 7.9841766357421875, -0.6425842642784119, -1.074055790901184, -2.1060683727264404, 0.716064453125, 0.0546875, -0.638427734375
471, 9637590, -5.132491588592529, -1.7576273679733276, 7.9880690574646, -0.4569818079471588, -1.0853509902954102, -1.9824872016906738, 0.716064453125, 0.05517578125, -0.6357421875
472, 9654257, -5.1585187911987305, -1.7362533807754517, 8.000863075256348, -0.3797595202922821, -0.9646767377853394, -1.671126127243042, 0.716064453125, 0.056640625, -0.637939453125
473, 9670924, -5.172372341156006, -1.7259424924850464, 8.036986351013184, -0.4399493634700775, -0.6052536964416504, -1.6101553440093994, 0.715576171875, 0.05615234375, -0.63623046875
474, 9687591, -5.1703691482543945, -1.7033835649490356, 7.984299659729004, -0.6627926826477051, -0.28656771779060364, -1.644079327583313, 0.715087890625, 0.05517578125, -0.634765625
475, 9704258, -5.1209001541137695, -1.7392085790634155, 7.993810176849365, -0.5393073558807373, 0.04995757341384888, -1.409063458442688, 0.715087890625, 0.0537109375, -0.638427734375
476, 9720925, -5.227787971496582, -1.7215238809585571, 8.006872177124023, -0.6477580070495605, 0.24631735682487488, -1.235364556312561, 0.716064453125, 0.056640625, -0.637451171875
477, 9737592, -5.249521732330322, -1.6911839246749878, 8.01738166809082, -1.0052727460861206, 0.12513722479343414, -1.5454699993133545, 0.714599609375, 0.05615234375, -0.637451171875
478, 9754259, -5.227554798126221, -1.7169697284698486, 7.982115745544434, -0.9127725958824158, -0.20796231925487518, -1.5309224128723145, 0.717529296875, 0.05615234375, -0.63720703125
479, 9770926, -5.255997180938721, -1.6743245124816895, 8.010592460632324, -1.1840111017227173, -0.4877682626247406, -1.6089128255844116, 0.716552734375, 0.0556640625, -0.6357421875
480, 9787593, -5.245807647705078, -1.6939802169799805, 7.9963459968566895, -1.4061373472213745, -0.7785108685493469, -1.7817604541778564, 0.718505859375, 0.056396484375, -0.63671875
481, 9804260, -5.139415264129639, -1.8029451370239258, 7.9965105056762695, -1.1373319625854492, -0.7659605741500854, -1.7020280361175537, 0.716064453125, 0.057373046875, -0.63525390625
482, 9820927, -5.1100969314575195, -1.826069712638855, 7.971832275390625, -0.6959354281425476, -0.46049073338508606, -1.4076610803604126, 0.715576171875, 0.056640625, -0.63623046875
483, 9837594, -5.15304708480835, -1.7616653442382812, 8.000528335571289, -0.41139113903045654, 0.14961016178131104, -1.1371524333953857, 0.715576171875, 0.0556640625, -0.63525390625
484, 9854261, -5.2013468742370605, -1.72954523563385, 8.005522727966309, -0.30737805366516113, 0.5451727509498596, -1.1978803873062134, 0.717041015625, 0.0556640625, -0.63525390625
485, 9870928, -5.220855236053467, -1.7289234399795532, 7.964663982391357, -0.45712268352508545, 0.45739802718162537, -1.3679231405258179, 0.71875, 0.05517578125, -0.63525390625
486, 9887595, -5.257966041564941, -1.7159476280212402, 7.9609880447387695, -0.53759765625, 0.24692562222480774, -1.4401252269744873, 0.7197265625, 0.05517578125, -0.635009765625
487, 9904262, -5.25730037689209, -1.7443866729736328, 7.966217041015625, -0.5451022982597351, 0.06269349157810211, -1.592354416847229, 0.718017578125, 0.05615234375, -0.634765625
488, 9920929, -5.253880977630615, -1.73252534866333, 7.9620208740234375, -0.41862672567367554, -0.24580508470535278, -1.5775117874145508, 0.71923828125, 0.05224609375, -0.634521484375
489, 9937596, -5.227197170257568, -1.732664942741394, 7.949238300323486, -0.31880128383636475, -0.4215594530105591, -1.6173268556594849, 0.718505859375, 0.056396484375, -0.63720703125
490, 9954263, -5.196442604064941, -1.7616478204727173, 7.996358871459961, -0.38319161534309387, -0.48826777935028076, -1.6382396221160889, 0.716552734375, 0.0546875, -0.633056640625
491, 9970930, -5.203051567077637, -1.7216938734054565, 7.988550186157227, -0.3516751825809479, -0.36519870162010193, -1.4604490995407104, 0.7197265625, 0.05615234375, -0.634033203125
492, 9987597, -5.216160774230957, -1.7189468145370483, 7.969985008239746, -0.41428542137145996, -0.24259066581726074, -1.4324029684066772, 0.716064453125, 0.05419921875, -0.634765625
493, 10004264, -5.224275588989258, -1.7449114322662354, 7.960116863250732, -0.30553942918777466, -0.4038083851337433, -1.5107147693634033, 0.716552734375, 0.0556640625, -0.633056640625
494, 10020931, -5.228850841522217, -1.7425739765167236, 7.983695030212402, -0.28892406821250916, -0.43039584159851074, -1.4504985809326172, 0.717529296875, 0.05419921875, -0.633544921875
495, 10037598, -5.20107364654541, -1.7486776113510132, 7.9625654220581055, -0.27316588163375854, -0.44807499647140503, -1.3665335178375244, 0.717529296875, 0.05517578125, -0.63720703125
496, 10054265, -5.1916117668151855, -1.7530031204223633, 8.004921913146973, -0.08910657465457916, -0.09731544554233551, -1.0421935319900513, 0.717041015625, 0.0537109375, -0.6357421875
497, 10070932, -5.190928936004639, -1.7312233448028564, 7.981680393218994, -0.2550256550312042, 0.12547022104263306, -1.0195519924163818, 0.717041015625, 0.0546875, -0.633544921875
498, 10087599, -5.240591526031494, -1.704864501953125, 7.984086990356445, -0.3838447332382202, 0.496815949678421, -1.0152746438980103, 0.718017578125, 0.05517578125, -0.63525390625
499, 10104266, -5.2763471603393555, -1.7249691486358643, 7.963818073272705, -0.3387407660484314, 0.3856184184551239, -1.088283658027649, 0.718505859375, 0.05517578125, -0.63427734375
500, 10120933, -5.224638938903809, -1.7643731832504272, 7.945744037628174, -0.19027674198150635, 0.1734555959701538, -1.0436662435531616, 0.71826171875, 0.05322265625, -0.63525390625
501, 10137600, -5.211071014404297, -1.746466040611267, 7.9608330726623535, -0.02516447938978672, 0.39231613278388977, -0.8315803408622742, 0.718505859375, 0.0556640625, -0.63427734375
502, 10154267, -5.214923858642578, -1.7362465858459473, 7.976469993591309, 0.21220763027668, 0.6980933547019958, -0.6586818695068359, 0.71875, 0.05322265625, -0.63525390625
503, 10170934, -5.213667869567871, -1.7566533088684082, 7.955101013183594, 1.1512333154678345, 0.6046581864356995, -0.043183013796806335, 0.7197265625, 0.052734375, -0.634033203125
504, 10187601, -5.205490589141846, -1.8030774593353271, 7.946165561676025, 2.25896954536438, 0.8178070187568665, 0.9458833336830139, 0.7216796875, 0.05224609375, -0.632568359375
505, 10204268, -5.34011173248291, -1.627090334892273, 7.9710493087768555, 2.087031841278076, 0.6628887057304382, 0.8864619731903076, 0.71728515625, 0.050048828125, -0.631591796875
506, 10220935, -5.2787675857543945, -1.6401225328445435, 7.985107421875, 1.8361934423446655, 0.38128983974456787, 0.45021364092826843, 0.7216796875, 0.05126953125, -0.632568359375
507, 10237602, -5.2509942054748535, -1.6866977214813232, 7.978543281555176, 1.4061051607131958, 0.3574700355529785, 0.22122330963611603, 0.7216796875, 0.048583984375, -0.634521484375
508, 10254269, -5.266298770904541, -1.6295816898345947, 7.994096279144287, 0.8970015048980713, 0.6141733527183533, -0.2633497714996338, 0.72021484375, 0.050537109375, -0.633544921875
509, 10270936, -5.263988971710205, -1.6588231325149536, 7.972001075744629, 0.4685651659965515, 0.7710127234458923, -0.5309897065162659, 0.7197265625, 0.049560546875, -0.63037109375
510, 10287603, -5.290722846984863, -1.631797194480896, 7.941019535064697, 0.2788902819156647, 0.8733866214752197, -0.7803293466567993, 0.720703125, 0.048583984375, -0.632080078125
511, 10304270, -5.309082508087158, -1.6192564964294434, 7.967691421508789, 0.14379608631134033, 0.7450541257858276, -0.8921287059783936, 0.720703125, 0.047119140625, -0.63232421875
512, 10320937, -5.267840385437012, -1.657289981842041, 7.926940441131592, 0.0130048468708992, 0.5336341261863708, -1.0423855781555176, 0.721435546875, 0.047119140625, -0.634033203125
513, 10337604, -5.266496181488037, -1.6830394268035889, 7.927423477172852, -0.06417261809110641, 0.5032447576522827, -1.1678237915039062, 0.7216796875, 0.047607421875, -0.630859375
514, 10354271, -5.251888751983643, -1.668167233467102, 7.95074987411499, -0.10831611603498459, 0.6014054417610168, -1.2905471324920654, 0.721435546875, 0.04638671875, -0.6328125
515, 10370938, -5.288355827331543, -1.6384916305541992, 7.984318733215332, -0.5219100117683411, 0.8267844319343567, -1.319156527519226, 0.72119140625, 0.04638671875, -0.630859375
516, 10387605, -5.306792259216309, -1.6195306777954102, 7.979918003082275, -0.7963628768920898, 0.9276854991912842, -1.5948516130447388, 0.723388671875, 0.046142578125, -0.630859375
517, 10404272, -5.293450832366943, -1.6553568840026855, 7.933516502380371, -0.8667082190513611, 0.8631160259246826, -1.7761256694793701, 0.722412109375, 0.047119140625, -0.62939453125
518, 10420939, -5.268337726593018, -1.6868849992752075, 7.936069011688232, -0.5218586921691895, 0.9611228704452515, -1.5505543947219849, 0.72216796875, 0.048095703125, -0.6298828125
519, 10437606, -5.245763301849365, -1.698836326599121, 7.9640092849731445, -0.8770812749862671, 1.1946210861206055, -1.5687265396118164, 0.724853515625, 0.046142578125, -0.629150390625
520, 10454273, -5.342334270477295, -1.6697818040847778, 7.925234794616699, -0.31430625915527344, 1.2896188497543335, -1.1393554210662842, 0.72119140625, 0.046630859375, -0.62890625
521, 10470940, -5.308267116546631, -1.6534490585327148, 7.93588924407959, -0.31186026334762573, 1.3733465671539307, -1.114780068397522, 0.723876953125, 0.046142578125, -0.627685546875
522, 10487607, -5.294058799743652, -1.6822534799575806, 7.904673099517822, -0.12093036621809006, 1.3214040994644165, -0.8494452238082886, 0.723388671875, 0.047119140625, -0.628662109375
523, 10504274, -5.3034443855285645, -1.6585477590560913, 7.913145065307617, -0.05756454914808273, 1.4585601091384888, -0.6902751326560974, 0.725830078125, 0.04345703125, -0.628173828125
524, 10520941, -5.315530776977539, -1.6449801921844482, 7.956544876098633, -0.17816194891929626, 1.5307111740112305, -0.7935967445373535, 0.726806640625, 0.046630859375, -0.630126953125
525, 10537608, -5.335263729095459, -1.6584968566894531, 7.9336628913879395, -0.6132831573486328, 1.6176785230636597, -0.8662213683128357, 0.725830078125, 0.04541015625, -0.623046875
526, 10554275, -5.320578098297119, -1.690742015838623, 7.907922744750977, -0.3179432153701782, 1.6817359924316406, -0.6899164319038391, 0.724853515625, 0.045654296875, -0.626220703125
527, 10570942, -5.347222805023193, -1.6288142204284668, 7.939719200134277, -0.3994428217411041, 1.6006848812103271, -0.6320061087608337, 0.72802734375, 0.044921875, -0.62646484375
528, 10587609, -5.360423564910889, -1.634377360343933, 7.924014568328857, -0.2956089675426483, 1.640384316444397, -0.8754035830497742, 0.727783203125, 0.045166015625, -0.62451171875
529, 10604276, -5.342638969421387, -1.6589477062225342, 7.935801982879639, -0.25556349754333496, 1.8206979036331177, -0.6759960055351257, 0.727783203125, 0.047119140625, -0.62451171875
530, 10620943, -5.364540100097656, -1.6389641761779785, 7.902611255645752, -0.4400389790534973, 1.9268369674682617, -0.6214025020599365, 0.72900390625, 0.04345703125, -0.621826171875
531, 10637610, -5.3812479972839355, -1.6260100603103638, 7.904499053955078, -0.5361633896827698, 1.9617726802825928, -0.5842384696006775, 0.73095703125, 0.0439453125, -0.622802734375
532, 10654277, -5.341917037963867, -1.6704775094985962, 7.933231830596924, -0.8257534503936768, 1.965448021888733, -0.44591712951660156, 0.73046875, 0.045654296875, -0.623779296875
533, 10670944, -5.345736980438232, -1.6596558094024658, 7.911168098449707, -1.0405415296554565, 2.078566789627075, -0.14992393553256989, 0.729248046875, 0.046142578125, -0.622314453125
534, 10687611, -5.357491493225098, -1.6498993635177612, 7.913516998291016, -1.2895739078521729, 2.0794246196746826, 0.40494319796562195, 0.7294921875, 0.04443359375, -0.621826171875
535, 10704278, -5.436273097991943, -1.6409701108932495, 7.862979412078857, -1.2451869249343872, 2.108213186264038, 0.6059644222259521, 0.73095703125, 0.04443359375, -0.621337890625
536, 10720945, -5.3878984451293945, -1.6514480113983154, 7.892636299133301, -1.2360432147979736, 2.1186888217926025, 0.6291951537132263, 0.73193359375, 0.044189453125, -0.6201171875
537, 10737612, -5.415935039520264, -1.6288710832595825, 7.890161037445068, -1.5415130853652954, 1.8860231637954712, 0.9981460571289062, 0.73046875, 0.04248046875, -0.61669921875
538, 10754279, -5.4455485343933105, -1.609555721282959, 7.821375846862793, -1.530486822128296, 1.6562516689300537, 1.2598694562911987, 0.7294921875, 0.04296875, -0.618896484375
539, 10770946, -5.424285411834717, -1.6544462442398071, 7.827394008636475, -1.4129887819290161, 1.4079493284225464, 1.1583023071289062, 0.7333984375, 0.0419921875, -0.62060546875
540, 10787613, -5.472459316253662, -1.6128839254379272, 7.835424423217773, -1.0966461896896362, 1.004241943359375, 1.0088649988174438, 0.7333984375, 0.04248046875, -0.619140625
541, 10804280, -5.529731750488281, -1.611415982246399, 7.857362270355225, -0.8873904347419739, 0.5797754526138306, 0.8007617592811584, 0.733642578125, 0.0400390625, -0.62060546875
542, 10820947, -5.465853691101074, -1.5740818977355957, 7.826343536376953, -0.528863787651062, 0.08230000734329224, 0.14215686917304993, 0.7333984375, 0.041015625, -0.61962890625
543, 10837614, -5.437620162963867, -1.6334220170974731, 7.88049840927124, -0.03438504785299301, -0.013049670495092869, -0.2769117057323456, 0.734130859375, 0.0390625, -0.619140625
544, 10854281, -5.429973602294922, -1.6707825660705566, 7.903518199920654, 0.333061158657074, 0.19219128787517548, -0.09328144788742065, 0.734130859375, 0.04052734375, -0.61962890625
545, 10870948, -5.391190052032471, -1.6427521705627441, 7.837654113769531, 0.10060027986764908, 0.20492079854011536, 0.2903135418891907, 0.7333984375, 0.04052734375, -0.61865234375
546, 10887615, -5.4712324142456055, -1.6370278596878052, 7.853137016296387, -0.2380572259426117, 0.3754245340824127, 0.8765497803688049, 0.735595703125, 0.041015625, -0.61865234375
547, 10904282, -5.4604597091674805, -1.5665721893310547, 7.862797260284424, 0.3251468241214752, 0.7442858219146729, 0.43616506457328796, 0.7333984375, 0.037841796875, -0.616455078125
548, 10920949, -5.33610725402832, -1.6275017261505127, 7.862078666687012, 0.5395122766494751, 1.215841293334961, -0.4007875323295593, 0.735107421875, 0.038330078125, -0.616455078125
549, 10937616, -5.447943210601807, -1.6190743446350098, 7.934291362762451, 0.6571770906448364, 2.0414795875549316, -0.43152278661727905, 0.737060546875, 0.038330078125, -0.618408203125
550, 10954283, -5.4840569496154785, -1.5451263189315796, 7.857383728027344, 0.33393198251724243, 2.4991142749786377, -0.23472756147384644, 0.736572265625, 0.03955078125, -0.617919921875
551, 10970950, -5.53861665725708, -1.5501374006271362, 7.840497016906738, 0.10879633575677872, 2.387033224105835, -0.4993579685688019, 0.734619140625, 0.038330078125, -0.619140625
552, 10987617, -5.5575642585754395, -1.5766336917877197, 7.782271385192871, 0.03576173633337021, 1.9848754405975342, -0.7574828267097473, 0.7392578125, 0.036376953125, -0.61474609375
553, 11004284, -5.563958168029785, -1.562673807144165, 7.759253978729248, -0.006390369031578302, 1.4715840816497803, -0.9240550398826599, 0.737060546875, 0.034912109375, -0.615966796875
554, 11020951, -5.56343412399292, -1.5632643699645996, 7.743391036987305, -0.12825560569763184, 0.5971025228500366, -1.0767451524734497, 0.737060546875, 0.036865234375, -0.61474609375
555, 11037618, -5.530985355377197, -1.5624686479568481, 7.771200180053711, -0.027546456083655357, -0.2676399350166321, -1.2616816759109497, 0.736083984375, 0.038330078125, -0.614990234375
556, 11054285, -5.482120513916016, -1.5908023118972778, 7.832102298736572, -0.06979461014270782, -0.7956713438034058, -1.2003135681152344, 0.738525390625, 0.036865234375, -0.61279296875
557, 11070952, -5.488015174865723, -1.6089978218078613, 7.817039966583252, 0.03738173097372055, -0.6184570789337158, -1.1472312211990356, 0.73974609375, 0.036865234375, -0.615234375
558, 11087619, -5.501658916473389, -1.5743297338485718, 7.8588972091674805, 0.020791109651327133, -0.5742879509925842, -0.979404091835022, 0.737060546875, 0.035400390625, -0.61181640625
559, 11104286, -5.513386249542236, -1.5562394857406616, 7.8141703605651855, 0.08752500265836716, -0.4998190104961395, -1.2044371366500854, 0.738037109375, 0.033203125, -0.61328125
560, 11120953, -5.487476825714111, -1.569169282913208, 7.807871341705322, -0.03583216667175293, -0.3107588589191437, -1.356986403465271, 0.73974609375, 0.033935546875, -0.61474609375
561, 11137620, -5.501428127288818, -1.5658403635025024, 7.8241071701049805, -0.0708831399679184, -0.3320942521095276, -1.32315194606781, 0.737548828125, 0.034912109375, -0.61279296875
562, 11154287, -5.514277935028076, -1.5748627185821533, 7.821653842926025, -0.023525264114141464, -0.42947372794151306, -1.3386733531951904, 0.7412109375, 0.033447265625, -0.6142578125
563, 11170954, -5.481338024139404, -1.592023491859436, 7.809414863586426, -0.06359633058309555, -0.5559363961219788, -1.2317147254943848, 0.738037109375, 0.035400390625, -0.611328125
564, 11187621, -5.511867046356201, -1.5649957656860352, 7.831381320953369, 0.07151706516742706, -0.6168050169944763, -1.1575530767440796, 0.737060546875, 0.033935546875, -0.61376953125
565, 11204288, -5.472340106964111, -1.570191502571106, 7.834041118621826, -0.11402177810668945, -0.5970934629440308, -1.1815719604492188, 0.73876953125, 0.034423828125, -0.61279296875
566, 11220955, -5.511984348297119, -1.5699023008346558, 7.851538181304932, -0.10512733459472656, -0.43547993898391724, -1.1662486791610718, 0.738037109375, 0.036376953125, -0.611328125
567, 11237622, -5.508773326873779, -1.570111870765686, 7.84237813949585, -0.14049845933914185, -0.2552945613861084, -1.2453662157058716, 0.73828125, 0.033447265625, -0.61376953125
568, 11254289, -5.499393463134766, -1.5583301782608032, 7.783751487731934, -0.20098286867141724, -0.2728393077850342, -1.2411531209945679, 0.737060546875, 0.034912109375, -0.6123046875
569, 11270956, -5.509288787841797, -1.5664794445037842, 7.81958532333374, -0.1983831524848938, -0.3688100576400757, -1.1173796653747559, 0.73876953125, 0.033203125, -0.61474609375
570, 11287623, -5.498916149139404, -1.558868408203125, 7.831946849822998, -0.2612111270427704, -0.27779534459114075, -1.1948837041854858, 0.737548828125, 0.03125, -0.6123046875
571, 11304290, -5.504403114318848, -1.554211139678955, 7.820878982543945, -0.12650112807750702, -0.23059111833572388, -1.3223323822021484, 0.73779296875, 0.033203125, -0.615234375
572, 11320957, -5.51914119720459, -1.552622675895691, 7.826794147491455, -0.11866362392902374, -0.3102722465991974, -1.4627923965454102, 0.73876953125, 0.0302734375, -0.61328125
573, 11337624, -5.53384256362915, -1.534515619277954, 7.806851387023926, -0.03663896769285202, -0.5177222490310669, -1.8022758960723877, 0.73779296875, 0.033203125, -0.61474609375
574, 11354291, -5.533188343048096, -1.5584903955459595, 7.790478229522705, 0.013132911175489426, -1.004145860671997, -1.7978450059890747, 0.7392578125, 0.033935546875, -0.612060546875
575, 11370958, -5.515268802642822, -1.5398333072662354, 7.816667079925537, 0.024159183725714684, -1.3002928495407104, -1.8720195293426514, 0.7392578125, 0.033935546875, -0.61474609375
576, 11387625, -5.4909491539001465, -1.5884538888931274, 7.832353591918945, 0.04653187096118927, -1.4714112281799316, -1.6912707090377808, 0.737548828125, 0.033203125, -0.61279296875
577, 11404292, -5.5120954513549805, -1.5569037199020386, 7.798156261444092, 0.0947093591094017, -1.510009527206421, -1.599538803100586, 0.737548828125, 0.034423828125, -0.61572265625
578, 11420959, -5.527479648590088, -1.5397124290466309, 7.838528633117676, 0.05581647902727127, -1.4387295246124268, -1.6570007801055908, 0.7392578125, 0.03173828125, -0.61474609375
579, 11437626, -5.5084919929504395, -1.5301543474197388, 7.807901382446289, -0.05062349885702133, -1.5841326713562012, -1.8553709983825684, 0.73876953125, 0.03271484375, -0.61474609375
580, 11454293, -5.525540828704834, -1.5240662097930908, 7.808714389801025, -0.406576007604599, -1.7953479290008545, -2.086846113204956, 0.73974609375, 0.03173828125, -0.613037109375
581, 11470960, -5.48768949508667, -1.5813789367675781, 7.86220121383667, -0.4813266396522522, -1.8323583602905273, -2.1248295307159424, 0.736572265625, 0.03271484375, -0.615966796875
582, 11487627, -5.526218414306641, -1.5289713144302368, 7.785909175872803, -0.23109057545661926, -1.9888004064559937, -2.130887031555176, 0.73828125, 0.03271484375, -0.61328125
583, 11504294, -5.461395263671875, -1.535719394683838, 7.837981224060059, -0.14385372400283813, -2.43717622756958, -2.0749871730804443, 0.73779296875, 0.0322265625, -0.61572265625
584, 11520961, -5.499686241149902, -1.5672837495803833, 7.829794406890869, -0.1680833399295807, -2.5165374279022217, -2.070082187652588, 0.735107421875, 0.0322265625, -0.6142578125
585, 11537628, -5.4545207023620605, -1.5756783485412598, 7.857271671295166, 0.06513950228691101, -2.3261070251464844, -2.0297040939331055, 0.737060546875, 0.033203125, -0.616943359375
586, 11554295, -5.492397308349609, -1.548595666885376, 7.82053279876709, 0.09572108089923859, -2.4274826049804688, -1.9949477910995483, 0.7373046875, 0.033935546875, -0.617919921875
587, 11570962, -5.49896240234375, -1.5231969356536865, 7.854061126708984, -0.017852051183581352, -2.59674334526062, -2.071094036102295, 0.737548828125, 0.034912109375, -0.615234375
588, 11587629, -5.451601982116699, -1.5516093969345093, 7.83579683303833, -0.1980886161327362, -2.6576120853424072, -2.2674922943115234, 0.736572265625, 0.033203125, -0.618896484375
589, 11604296, -5.397874355316162, -1.5968891382217407, 7.8802642822265625, 0.1670268028974533, -2.3261067867279053, -2.244581699371338, 0.733642578125, 0.0341796875, -0.617919921875
590, 11620963, -5.439075469970703, -1.566859483718872, 7.881069660186768, 0.17317387461662292, -1.832473635673523, -1.9629061222076416, 0.734130859375, 0.03369140625, -0.617919921875
591, 11637630, -5.4451165199279785, -1.5286097526550293, 7.878611087799072, 0.15961195528507233, -1.5405399799346924, -1.886733889579773, 0.734130859375, 0.0322265625, -0.617919921875
592, 11654297, -5.423517227172852, -1.5355958938598633, 7.873019695281982, -0.017314186319708824, -1.2420239448547363, -1.835867166519165, 0.735595703125, 0.03173828125, -0.616455078125
593, 11670964, -5.45382022857666, -1.5495799779891968, 7.865477561950684, -0.15245960652828217, -1.0457921028137207, -1.9549918174743652, 0.732666015625, 0.033203125, -0.61865234375
594, 11687631, -5.444751739501953, -1.5675036907196045, 7.868638515472412, -0.12387580424547195, -0.9802748560905457, -1.7731926441192627, 0.7373046875, 0.033203125, -0.617431640625
595, 11704298, -5.452103137969971, -1.5251845121383667, 7.857147216796875, -0.11940639466047287, -1.0272870063781738, -2.0140163898468018, 0.733642578125, 0.0322265625, -0.617919921875
596, 11720965, -5.443188667297363, -1.5503398180007935, 7.864830493927002, -0.09034879505634308, -0.8338086009025574, -1.903049111366272, 0.734619140625, 0.03271484375, -0.619384765625
597, 11737632, -5.45725154876709, -1.586111307144165, 7.879072666168213, -0.13558083772659302, -0.7922264337539673, -1.6835227012634277, 0.737060546875, 0.03369140625, -0.616943359375
598, 11754299, -5.450879096984863, -1.5696004629135132, 7.835737705230713, 0.10976962000131607, -0.6850372552871704, -1.3992729187011719, 0.733154296875, 0.03271484375, -0.619140625
599, 11770966, -5.467218399047852, -1.5516669750213623, 7.854451656341553, 0.1752741038799286, -0.699969470500946, -1.476623296737671, 0.732666015625, 0.03125, -0.6201171875
600, 11787633, -5.455949306488037, -1.5254485607147217, 7.835880279541016, 0.24926920235157013, -1.1183913946151733, -1.775011420249939, 0.734619140625, 0.033203125, -0.616455078125
601, 11804300, -5.4641218185424805, -1.5148330926895142, 7.849020004272461, 0.09016311168670654, -1.4302259683609009, -1.9711021184921265, 0.735107421875, 0.0341796875, -0.617919921875
602, 11820967, -5.4522786140441895, -1.4853895902633667, 7.832604885101318, -0.5960075259208679, -1.5267218351364136, -2.359787702560425, 0.733642578125, 0.03369140625, -0.61865234375
603, 11837634, -5.463776588439941, -1.5321159362792969, 7.89146614074707, -0.3356800377368927, -1.5731446743011475, -2.313249349594116, 0.732666015625, 0.03369140625, -0.619140625
604, 11854301, -5.497231960296631, -1.5051394701004028, 7.865148544311523, -0.7626309990882874, -2.054983615875244, -2.427866220474243, 0.732177734375, 0.0341796875, -0.61962890625
605, 11870968, -5.466177940368652, -1.4499523639678955, 7.821956157684326, -1.4263582229614258, -2.498582601547241, -2.935483932495117, 0.732666015625, 0.0341796875, -0.6181640625
606, 11887635, -5.41843318939209, -1.515482783317566, 7.8358659744262695, -2.731466770172119, -2.550269603729248, -3.528930902481079, 0.734619140625, 0.034912109375, -0.62060546875
607, 11904302, -5.438492298126221, -1.5548155307769775, 7.920584678649902, -2.3199923038482666, -2.125643014907837, -3.9556448459625244, 0.73046875, 0.03466796875, -0.62060546875
608, 11920969, -5.408416748046875, -1.614497184753418, 7.868536472320557, -2.321509838104248, -1.8069506883621216, -3.8070082664489746, 0.733642578125, 0.034912109375, -0.6220703125
609, 11937636, -5.437882423400879, -1.5556647777557373, 7.875699996948242, -2.2226061820983887, -1.9656723737716675, -4.072035312652588, 0.7314453125, 0.037353515625, -0.62060546875
610, 11954303, -5.444596290588379, -1.5870901346206665, 7.843173503875732, -2.410680055618286, -2.054945230484009, -4.46823787689209, 0.733154296875, 0.037353515625, -0.62109375
611, 11970970, -5.468958854675293, -1.5707917213439941, 7.918876647949219, -2.7115652561187744, -1.6950101852416992, -4.853184223175049, 0.7314453125, 0.037841796875, -0.622314453125
612, 11987637, -5.33775520324707, -1.5821858644485474, 7.857531547546387, -3.7451794147491455, -1.2149513959884644, -5.105469703674316, 0.7314453125, 0.039794921875, -0.622314453125
613, 12004304, -5.268482685089111, -1.6845802068710327, 7.921812057495117, -4.06582498550415, 0.1352158635854721, -4.939871788024902, 0.73193359375, 0.04248046875, -0.62060546875
614, 12020971, -5.207369327545166, -1.7340965270996094, 7.966326713562012, -4.901310920715332, 2.485283613204956, -4.896239757537842, 0.73046875, 0.04345703125, -0.620361328125
615, 12037638, -5.108641147613525, -1.731333613395691, 7.961257457733154, -4.724852561950684, 5.76330041885376, -3.992828369140625, 0.732421875, 0.044189453125, -0.6201171875
616, 12054305, -5.14043664932251, -1.7951271533966064, 8.010645866394043, -5.074018478393555, 9.527153968811035, -2.869814395904541, 0.734375, 0.046630859375, -0.6181640625
617, 12070972, -5.118956565856934, -1.6651811599731445, 8.097513198852539, -5.094844818115234, 15.576936721801758, -1.8985048532485962, 0.734375, 0.045166015625, -0.614990234375
618, 12087639, -4.8050737380981445, -1.5727640390396118, 8.617701530456543, -2.8820245265960693, 25.859060287475586, -3.2041308879852295, 0.742431640625, 0.04833984375, -0.61328125
619, 12104306, -4.53297233581543, -2.826456069946289, 8.579761505126953, -4.7688069343566895, 41.87089920043945, 0.7902399897575378, 0.75, 0.0478515625, -0.601318359375
620, 12120973, -4.090616703033447, -0.5500138401985168, 9.74686336517334, -3.931243896484375, 68.81301879882812, 2.4163808822631836, 0.759033203125, 0.04736328125, -0.589111328125
621, 12137640, -4.28235387802124, -3.983499765396118, 8.750141143798828, -14.417848587036133, 95.50904083251953, 15.440208435058594, 0.774169921875, 0.046630859375, -0.566162109375
622, 12154307, -4.892593860626221, -1.9832167625427246, 9.658356666564941, -18.016910552978516, 129.82025146484375, 31.766807556152344, 0.79736328125, 0.042236328125, -0.5380859375
623, 12170974, -5.779111385345459, -2.051680326461792, 10.091044425964355, -24.03977394104004, 161.06094360351562, 45.479888916015625, 0.819091796875, 0.035400390625, -0.5029296875
624, 12187641, -6.9098711013793945, -4.221654415130615, 10.512222290039062, -15.660390853881836, 174.23533630371094, 57.95479202270508, 0.84765625, 0.02294921875, -0.458740234375
625, 12204308, -6.4316086769104, -3.63887619972229, 9.606707572937012, 16.547468185424805, 174.80087280273438, 67.8759994506836, 0.869140625, 0.003662109375, -0.416748046875
626, 12220975, -6.152510643005371, -2.2545382976531982, 10.754715919494629, 23.1551570892334, 180.17886352539062, 68.55332946777344, 0.892333984375, -0.01806640625, -0.3720703125
627, 12237642, -2.924591541290283, -4.393856525421143, 12.925586700439453, 32.901180267333984, 164.64646911621094, 56.9174919128418, 0.9111328125, -0.036865234375, -0.323486328125
628, 12254309, 0.7771903276443481, -4.712540626525879, 16.731542587280273, 40.266448974609375, 119.28719329833984, 31.585851669311523, 0.92431640625, -0.05126953125, -0.2890625
629, 12270976, 3.3805034160614014, -3.2866339683532715, 18.152509689331055, 33.558143615722656, 60.86944580078125, 1.0747207403182983, 0.931884765625, -0.060302734375, -0.270751953125
630, 12287643, 3.5041730403900146, -2.5828566551208496, 18.618125915527344, 13.356988906860352, -2.8114242553710938, -24.063426971435547, 0.936279296875, -0.053466796875, -0.26611328125
631, 12304310, 3.769742012023926, -2.119943141937256, 17.238197326660156, 5.202951431274414, -59.0047492980957, -33.002811431884766, 0.9287109375, -0.04638671875, -0.27978515625
632, 12320977, 2.7815425395965576, -1.563354253768921, 15.90747356414795, 3.3097445964813232, -102.44487762451172, -33.48646545410156, 0.923095703125, -0.039794921875, -0.3046875
633, 12337644, 0.7675862312316895, -1.460753321647644, 14.871369361877441, -2.131558656692505, -135.6893310546875, -33.278297424316406, 0.91162109375, -0.03125, -0.33642578125
634, 12354311, -1.8407038450241089, -1.8647657632827759, 14.191051483154297, -7.188936233520508, -160.34788513183594, -33.65604782104492, 0.8955078125, -0.021728515625, -0.376708984375
635, 12370978, -4.474983215332031, -2.5945470333099365, 13.240909576416016, -8.310751914978027, -179.27357482910156, -34.85960388183594, 0.873046875, -0.012451171875, -0.424560546875
636, 12387645, -6.546230792999268, -3.0707340240478516, 11.823197364807129, -7.170494079589844, -191.22369384765625, -38.17215347290039, 0.8466796875, 7.32421875E-4, -0.470703125
637, 12404312, -7.880860805511475, -3.3422093391418457, 10.200421333312988, -3.906647205352783, -193.70761108398438, -41.22077178955078, 0.819091796875, 0.008056640625, -0.51806640625
638, 12420979, -8.676384925842285, -3.3810806274414062, 9.210408210754395, -4.978790283203125, -188.25086975097656, -43.24019241333008, 0.786865234375, 0.0205078125, -0.562744140625
639, 12437646, -9.302467346191406, -3.4622275829315186, 8.819965362548828, -10.119339942932129, -180.0365447998047, -46.11310958862305, 0.75341796875, 0.0302734375, -0.60498046875
640, 12454313, -10.308406829833984, -3.130971908569336, 9.047144889831543, -20.361270904541016, -173.61204528808594, -50.462921142578125, 0.719482421875, 0.04345703125, -0.64111328125
641, 12470980, -12.129868507385254, -2.7698211669921875, 9.823648452758789, -34.588050842285156, -173.16517639160156, -56.823974609375, 0.684326171875, 0.06201171875, -0.677001953125
642, 12487647, -13.375679969787598, -2.789790153503418, 9.44752311706543, -41.45134735107422, -184.32591247558594, -61.705379486083984, 0.64599609375, 0.081787109375, -0.708740234375
643, 12504314, -12.687544822692871, -2.6979868412017822, 7.635665416717529, -32.074729919433594, -192.35780334472656, -59.245872497558594, 0.601806640625, 0.101318359375, -0.74365234375
644, 12520981, -11.858019828796387, -2.17937970161438, 5.634178161621094, -21.357324600219727, -184.00218200683594, -52.30904006958008, 0.556640625, 0.113037109375, -0.7734375
645, 12537648, -12.115805625915527, -1.8327102661132812, 3.9200143814086914, -22.369531631469727, -166.54638671875, -48.12775421142578, 0.516845703125, 0.1259765625, -0.801025390625
646, 12554315, -13.077752113342285, -1.190554141998291, 1.938459873199463, -28.831218719482422, -145.32852172851562, -46.36124801635742, 0.474609375, 0.136962890625, -0.8193359375
647, 12570982, -13.790045738220215, 0.2534050941467285, -0.9277480840682983, -31.927947998046875, -117.23362731933594, -41.10863494873047, 0.443603515625, 0.152099609375, -0.83837890625
648, 12587649, -14.893486022949219, 2.0496087074279785, -3.3081207275390625, -33.08161163330078, -76.3257064819336, -33.80170440673828, 0.419921875, 0.165771484375, -0.845458984375
649, 12604316, -15.912939071655273, 2.181253671646118, -4.394392967224121, -13.968085289001465, -37.46744918823242, -19.26016616821289, 0.404541015625, 0.17333984375, -0.8486328125
650, 12620983, -14.404057502746582, 2.1141886711120605, -3.7787108421325684, 19.915367126464844, -0.29776084423065186, 4.576054573059082, 0.404052734375, 0.17138671875, -0.853759765625
651, 12637650, -13.071636199951172, 2.0261423587799072, -2.3020408153533936, 34.15549850463867, 40.310508728027344, 22.245956420898438, 0.411865234375, 0.15966796875, -0.847900390625
652, 12654317, -2.0052216053009033, -1.1359854936599731, 7.012720584869385, 21.877212524414062, 98.07746124267578, 37.71738815307617, 0.432373046875, 0.150390625, -0.837890625
653, 12670984, 5.699982166290283, -4.134846210479736, 16.03184700012207, 32.69437026977539, 107.81962585449219, 74.23431396484375, 0.462646484375, 0.131103515625, -0.827880859375
654, 12687651, -3.6273350715637207, -1.1222091913223267, 3.208662509918213, 16.06582260131836, 143.93753051757812, 68.75048065185547, 0.499267578125, 0.114990234375, -0.810546875
655, 12704318, -9.86303997039795, -4.4336934089660645, 10.92324447631836, -16.56005096435547, 167.7530059814453, 4.416257381439209, 0.539306640625, 0.114501953125, -0.7822265625
656, 12720985, -4.839118003845215, -1.6075466871261597, 9.4476318359375, -9.065160751342773, 147.39280700683594, -2.4411165714263916, 0.576171875, 0.11865234375, -0.759521484375
