sep=,
DeviceTag:,A,,,,,,,,,,,,,,,,,
FirmwareVersion:,2.2.1,,,,,,,,,,,,,,,,,
AppVersion:,2022.0.1,,,,,,,,,,,,,,,,,
SyncStatus:,Synced,,,,,,,,,,,,,,,,,
OutputRate:,60Hz,,,,,,,,,,,,,,,,,
FilterProfile:,General,,,,,,,,,,,,,,,,,
Measurement Mode:,Inertial Mode - Rate quantities (with mag),,,,,,,,,,,,,,,,,
StartTime:,2022-08-16 15:39:34.088 +0300,,,,,,,,,,,,,,,,,
© Xsens Technologies B. V. 2005-2022,,,,,,,,,,,,,,,,,,,

PacketCounter,SampleTimeFine,Acc_X,Acc_Y,Acc_Z,Gyr_X,Gyr_Y,Gyr_Z,Mag_X,Mag_Y,Mag_Z
1, 1797173340, -5.355494499206543, 1.6486239433288574, 8.134817123413086, -2.290518045425415, -1.951572299003601, -2.034058094024658, 0.295654296875, -0.1796875, -0.91455078125
2, 1797190007, -5.307867527008057, 1.6536192893981934, 8.149045944213867, -2.389613389968872, -1.935257077217102, -2.2064573764801025, 0.297607421875, -0.1806640625, -0.9150390625
3, 1797206674, -5.335803508758545, 1.6347694396972656, 8.141051292419434, -2.4067869186401367, -1.5784337520599365, -2.253021001815796, 0.295654296875, -0.181396484375, -0.9130859375
4, 1797223341, -5.343636512756348, 1.6282681226730347, 8.141352653503418, -2.3279638290405273, -1.3987735509872437, -2.237461805343628, 0.297607421875, -0.18115234375, -0.91650390625
5, 1797240008, -5.37241268157959, 1.613693356513977, 8.143621444702148, -2.2905821800231934, -1.3712784051895142, -2.217355728149414, 0.297607421875, -0.181884765625, -0.916015625
6, 1797256675, -5.374797344207764, 1.6149660348892212, 8.126684188842773, -2.3157079219818115, -1.6635321378707886, -2.0903801918029785, 0.296142578125, -0.1806640625, -0.91650390625
7, 1797273342, -5.349006175994873, 1.6413426399230957, 8.14432144165039, -2.3048481941223145, -1.874247670173645, -2.055572748184204, 0.295654296875, -0.183349609375, -0.913330078125
8, 1797290009, -5.323940277099609, 1.6518725156784058, 8.130566596984863, -2.325953483581543, -1.843230962753296, -2.1314761638641357, 0.296630859375, -0.182861328125, -0.91552734375
9, 1797306676, -5.349730968475342, 1.6272257566452026, 8.164484024047852, -2.221658706665039, -1.8364434242248535, -2.124342918395996, 0.296142578125, -0.18115234375, -0.913330078125
10, 1797323343, -5.3608317375183105, 1.6258354187011719, 8.141310691833496, -2.3297059535980225, -1.779570460319519, -2.1288509368896484, 0.297607421875, -0.1806640625, -0.913330078125
11, 1797340010, -5.362109661102295, 1.6271151304244995, 8.159481048583984, -2.310509204864502, -1.8537577390670776, -2.101048231124878, 0.296142578125, -0.18017578125, -0.9140625
12, 1797356677, -5.340887546539307, 1.6433446407318115, 8.149026870727539, -2.346853256225586, -2.185570001602173, -2.1129324436187744, 0.297119140625, -0.1796875, -0.912353515625
13, 1797373344, -5.327027797698975, 1.650300145149231, 8.150118827819824, -2.4934732913970947, -2.0883443355560303, -2.1629798412323, 0.297119140625, -0.181884765625, -0.91748046875
14, 1797390011, -5.3416900634765625, 1.6448692083358765, 8.156060218811035, -2.5120301246643066, -2.067854404449463, -2.2570555210113525, 0.296630859375, -0.181884765625, -0.9150390625
15, 1797406678, -5.341954708099365, 1.63006591796875, 8.173880577087402, -2.4961371421813965, -1.9385101795196533, -2.2235028743743896, 0.294677734375, -0.1806640625, -0.9169921875
16, 1797423345, -5.340409278869629, 1.6103124618530273, 8.147382736206055, -2.3895368576049805, -1.707829236984253, -2.174659252166748, 0.295166015625, -0.18017578125, -0.9140625
17, 1797440012, -5.356175899505615, 1.6407862901687622, 8.143839836120605, -2.371377468109131, -1.83384370803833, -2.009265184402466, 0.296630859375, -0.182373046875, -0.91552734375
18, 1797456679, -5.356330394744873, 1.6207354068756104, 8.131912231445312, -2.4013824462890625, -1.825416922569275, -1.9124871492385864, 0.298095703125, -0.183349609375, -0.91650390625
19, 1797473346, -5.342182159423828, 1.6501309871673584, 8.138161659240723, -2.4352686405181885, -2.0702106952667236, -2.0041937828063965, 0.296630859375, -0.181396484375, -0.91455078125
20, 1797490013, -5.351260185241699, 1.6472784280776978, 8.149110794067383, -2.5560197830200195, -2.196903944015503, -2.0036306381225586, 0.297607421875, -0.181396484375, -0.91455078125
21, 1797506680, -5.3271894454956055, 1.6161812543869019, 8.13973331451416, -2.566495418548584, -2.3011348247528076, -1.998226284980774, 0.295654296875, -0.1796875, -0.9140625
22, 1797523347, -5.326675891876221, 1.6239619255065918, 8.164532661437988, -2.5767531394958496, -2.3646931648254395, -1.9157406091690063, 0.295166015625, -0.18115234375, -0.911865234375
23, 1797540014, -5.357989311218262, 1.6337491273880005, 8.165314674377441, -2.5187277793884277, -2.4440536499023438, -1.8189374208450317, 0.295166015625, -0.18115234375, -0.91455078125
24, 1797556681, -5.347227573394775, 1.6287881135940552, 8.149680137634277, -2.6144423484802246, -2.38800048828125, -2.006396770477295, 0.294677734375, -0.1806640625, -0.916015625
25, 1797573348, -5.322633266448975, 1.6361387968063354, 8.169872283935547, -2.5179977416992188, -2.246490240097046, -2.054292678833008, 0.294677734375, -0.181640625, -0.91552734375
26, 1797590015, -5.3094024658203125, 1.6307802200317383, 8.156901359558105, -2.4835739135742188, -2.2023849487304688, -2.008368968963623, 0.297607421875, -0.182861328125, -0.916015625
27, 1797606682, -5.310971260070801, 1.6291149854660034, 8.146952629089355, -2.488222599029541, -2.140876054763794, -1.890729546546936, 0.293212890625, -0.18115234375, -0.9150390625
28, 1797623349, -5.331060886383057, 1.6355602741241455, 8.148810386657715, -2.4632375240325928, -1.9884166717529297, -1.984151840209961, 0.294189453125, -0.1806640625, -0.9140625
29, 1797640016, -5.323048114776611, 1.6513442993164062, 8.144180297851562, -2.4418253898620605, -1.9886853694915771, -2.038271427154541, 0.29296875, -0.1806640625, -0.9130859375
30, 1797656683, -5.33039665222168, 1.6420049667358398, 8.155760765075684, -2.4323225021362305, -1.9886208772659302, -2.1131372451782227, 0.294677734375, -0.181884765625, -0.91357421875
31, 1797673350, -5.325870037078857, 1.6419469118118286, 8.145882606506348, -2.3226876258850098, -1.8957369327545166, -2.1677565574645996, 0.29248046875, -0.181640625, -0.916015625
32, 1797690017, -5.330763339996338, 1.617069125175476, 8.152339935302734, -2.3750271797180176, -1.8761430978775024, -1.9360511302947998, 0.295654296875, -0.182373046875, -0.91455078125
33, 1797706684, -5.32145357131958, 1.636932611465454, 8.158596992492676, -2.4185428619384766, -1.9769799709320068, -1.9555935859680176, 0.293701171875, -0.181640625, -0.91552734375
34, 1797723351, -5.323334693908691, 1.6302403211593628, 8.154853820800781, -2.4192991256713867, -2.195354461669922, -2.0318045616149902, 0.294189453125, -0.1806640625, -0.91357421875
35, 1797740018, -5.307431221008301, 1.630467176437378, 8.174123764038086, -2.5132336616516113, -2.046480417251587, -2.027066230773926, 0.294189453125, -0.1806640625, -0.9150390625
36, 1797756685, -5.338483810424805, 1.628032922744751, 8.160623550415039, -2.5623462200164795, -2.0586724281311035, -2.1185293197631836, 0.294189453125, -0.18115234375, -0.91455078125
37, 1797773352, -5.29948091506958, 1.6351505517959595, 8.179622650146484, -2.4297616481781006, -1.790481448173523, -2.1499812602996826, 0.29345703125, -0.18115234375, -0.916015625
38, 1797790019, -5.3095293045043945, 1.6362605094909668, 8.157809257507324, -2.348876476287842, -1.6130621433258057, -2.1058120727539062, 0.294677734375, -0.183349609375, -0.916015625
39, 1797806686, -5.350989818572998, 1.6331634521484375, 8.143531799316406, -2.423614501953125, -1.6539273262023926, -2.091494560241699, 0.294189453125, -0.1806640625, -0.9150390625
40, 1797823353, -5.339866638183594, 1.6470842361450195, 8.17275619506836, -2.4411208629608154, -1.907057762145996, -2.1493279933929443, 0.294189453125, -0.1796875, -0.9140625
41, 1797840020, -5.35203742980957, 1.6096760034561157, 8.14848518371582, -2.626941442489624, -2.2110679149627686, -2.104032516479492, 0.29345703125, -0.17919921875, -0.91650390625
42, 1797856687, -5.326931476593018, 1.627864956855774, 8.14201545715332, -2.5847437381744385, -2.3445992469787598, -2.125546455383301, 0.2919921875, -0.1826171875, -0.91455078125
43, 1797873354, -5.304757595062256, 1.6464916467666626, 8.157665252685547, -2.419363260269165, -2.3343546390533447, -2.1093599796295166, 0.2939453125, -0.17919921875, -0.917724609375
44, 1797890021, -5.315392971038818, 1.6204006671905518, 8.182705879211426, -2.435255527496338, -2.10304594039917, -2.0435094833374023, 0.2919921875, -0.184326171875, -0.917724609375
45, 1797906688, -5.314855098724365, 1.619227409362793, 8.191987991333008, -2.30466890335083, -1.9146772623062134, -1.9827046394348145, 0.29296875, -0.18212890625, -0.91455078125
46, 1797923355, -5.3201584815979, 1.6323045492172241, 8.184523582458496, -2.4128575325012207, -1.7454159259796143, -1.9767370223999023, 0.29296875, -0.18212890625, -0.9150390625
47, 1797940022, -5.327133655548096, 1.6170194149017334, 8.185112953186035, -2.2226574420928955, -1.8885653018951416, -1.9610235691070557, 0.293212890625, -0.1796875, -0.91357421875
48, 1797956689, -5.297573566436768, 1.6417447328567505, 8.17447280883789, -2.1453192234039307, -1.8974909782409668, -1.8283753395080566, 0.294189453125, -0.18115234375, -0.916015625
49, 1797973356, -5.315915584564209, 1.6514908075332642, 8.172772407531738, -2.223515272140503, -1.8428337574005127, -1.8418604135513306, 0.29248046875, -0.18115234375, -0.916015625
50, 1797990023, -5.296995162963867, 1.650036096572876, 8.168665885925293, -2.139441728591919, -1.616865634918213, -1.7760103940963745, 0.2919921875, -0.18212890625, -0.9169921875
51, 1798006690, -5.3083577156066895, 1.6424798965454102, 8.157116889953613, -2.2089030742645264, -1.6349865198135376, -1.9109121561050415, 0.2919921875, -0.181640625, -0.91357421875
52, 1798023357, -5.319384574890137, 1.6537567377090454, 8.150595664978027, -2.2805166244506836, -1.7161662578582764, -1.8265825510025024, 0.29052734375, -0.1806640625, -0.9150390625
53, 1798040024, -5.305286884307861, 1.6818842887878418, 8.170650482177734, -2.4659008979797363, -1.7728596925735474, -2.023530960083008, 0.29248046875, -0.18115234375, -0.91650390625
54, 1798056691, -5.320374488830566, 1.6543612480163574, 8.163535118103027, -2.592747926712036, -1.7080597877502441, -2.1773228645324707, 0.291015625, -0.1806640625, -0.91650390625
55, 1798073358, -5.283527851104736, 1.6615577936172485, 8.17719841003418, -2.771601438522339, -1.8511193990707397, -2.3900744915008545, 0.29248046875, -0.18115234375, -0.9169921875
56, 1798090025, -5.302258491516113, 1.6758776903152466, 8.180496215820312, -2.954822301864624, -1.9307365417480469, -2.525233030319214, 0.291015625, -0.181640625, -0.916015625
57, 1798106692, -5.300076961517334, 1.6363743543624878, 8.170310020446777, -2.846928358078003, -1.8618639707565308, -2.4827284812927246, 0.2900390625, -0.18115234375, -0.918212890625
58, 1798123359, -5.312454700469971, 1.6047629117965698, 8.181756019592285, -2.907630443572998, -1.6591650247573853, -2.379368305206299, 0.2919921875, -0.18115234375, -0.91650390625
59, 1798140026, -5.2838029861450195, 1.6353819370269775, 8.194133758544922, -2.774214267730713, -1.6113463640213013, -2.3536667823791504, 0.2919921875, -0.18115234375, -0.917724609375
60, 1798156693, -5.27989387512207, 1.6333009004592896, 8.184659004211426, -2.6610190868377686, -1.2762681245803833, -2.5212631225585938, 0.2919921875, -0.181640625, -0.91552734375
61, 1798173360, -5.327334403991699, 1.6378939151763916, 8.160059928894043, -2.6360976696014404, -1.3302596807479858, -2.419363021850586, 0.293701171875, -0.18115234375, -0.91552734375
62, 1798190027, -5.317856788635254, 1.6343823671340942, 8.161319732666016, -2.536041259765625, -1.2681487798690796, -2.372260808944702, 0.29296875, -0.1796875, -0.917724609375
63, 1798206694, -5.32483434677124, 1.637093424797058, 8.175248146057129, -2.6511967182159424, -1.5129936933517456, -2.3193070888519287, 0.291015625, -0.18017578125, -0.91650390625
64, 1798223361, -5.3315558433532715, 1.6325922012329102, 8.162750244140625, -2.558990716934204, -1.7083929777145386, -2.264188766479492, 0.29248046875, -0.1796875, -0.9169921875
65, 1798240028, -5.31014347076416, 1.6284303665161133, 8.187665939331055, -2.5548155307769775, -1.871827483177185, -2.2635865211486816, 0.29150390625, -0.18212890625, -0.91650390625
66, 1798256695, -5.314314365386963, 1.6208055019378662, 8.187263488769531, -2.467489242553711, -1.8464964628219604, -2.1465492248535156, 0.29296875, -0.1826171875, -0.917724609375
67, 1798273362, -5.309085845947266, 1.623078465461731, 8.177515983581543, -2.5045251846313477, -1.7320845127105713, -2.2068800926208496, 0.2900390625, -0.1806640625, -0.916015625
68, 1798290029, -5.316359043121338, 1.6335030794143677, 8.177183151245117, -2.5271029472351074, -1.721890926361084, -2.283513307571411, 0.29296875, -0.177734375, -0.91650390625
69, 1798306696, -5.281054496765137, 1.6171952486038208, 8.183496475219727, -2.5125420093536377, -1.6179158687591553, -2.168384075164795, 0.29248046875, -0.17919921875, -0.917236328125
70, 1798323363, -5.304003715515137, 1.6133761405944824, 8.199064254760742, -2.309471368789673, -1.367692470550537, -2.274650812149048, 0.2919921875, -0.1806640625, -0.916015625
71, 1798340030, -5.321148872375488, 1.621414065361023, 8.154407501220703, -2.2753937244415283, -1.3519150018692017, -2.113149881362915, 0.29345703125, -0.1806640625, -0.91650390625
72, 1798356697, -5.331124782562256, 1.623878002166748, 8.150277137756348, -2.1891047954559326, -1.4278055429458618, -2.0968220233917236, 0.2919921875, -0.182861328125, -0.91455078125
73, 1798373364, -5.325259208679199, 1.6273589134216309, 8.16529369354248, -2.1683454513549805, -1.6255611181259155, -2.1062090396881104, 0.291015625, -0.1796875, -0.9140625
74, 1798390031, -5.30264139175415, 1.6254205703735352, 8.178702354431152, -2.2896084785461426, -1.7547259330749512, -2.148649215698242, 0.29248046875, -0.18115234375, -0.91748046875
75, 1798406698, -5.3029890060424805, 1.625146746635437, 8.172471046447754, -2.2126681804656982, -1.5784977674484253, -2.1264302730560303, 0.29345703125, -0.18017578125, -0.916015625
76, 1798423365, -5.3117356300354, 1.6321738958358765, 8.190631866455078, -2.0993576049804688, -1.5379016399383545, -2.168332576751709, 0.2919921875, -0.18017578125, -0.9140625
77, 1798440032, -5.3284783363342285, 1.6222553253173828, 8.15794849395752, -2.1552443504333496, -1.534610390663147, -2.1765668392181396, 0.29296875, -0.18017578125, -0.917724609375
78, 1798456699, -5.324204444885254, 1.6252362728118896, 8.149428367614746, -2.2325310707092285, -1.7175875902175903, -1.9688609838485718, 0.29150390625, -0.1806640625, -0.91455078125
79, 1798473366, -5.310042858123779, 1.6410613059997559, 8.188109397888184, -2.180396318435669, -1.8082821369171143, -2.0567126274108887, 0.29248046875, -0.181640625, -0.91455078125
80, 1798490033, -5.287571430206299, 1.6340097188949585, 8.171024322509766, -2.2662243843078613, -1.653082013130188, -2.106708526611328, 0.2919921875, -0.18212890625, -0.91552734375
81, 1798506700, -5.3185529708862305, 1.6229209899902344, 8.181930541992188, -2.3418972492218018, -1.6844192743301392, -2.188464403152466, 0.293212890625, -0.181640625, -0.9150390625
82, 1798523367, -5.289069652557373, 1.6532294750213623, 8.18460464477539, -2.3959527015686035, -1.6378810405731201, -2.251420021057129, 0.291015625, -0.18115234375, -0.91552734375
83, 1798540034, -5.29697847366333, 1.6204882860183716, 8.16811466217041, -2.372645616531372, -1.5631815195083618, -2.2595784664154053, 0.29150390625, -0.1796875, -0.9150390625
84, 1798556701, -5.304400444030762, 1.615682601928711, 8.194336891174316, -2.3103678226470947, -1.4052022695541382, -2.2044336795806885, 0.29248046875, -0.18115234375, -0.916015625
85, 1798573368, -5.329465389251709, 1.6537787914276123, 8.184112548828125, -2.167487621307373, -1.4586818218231201, -2.142310380935669, 0.291015625, -0.17919921875, -0.91552734375
86, 1798590035, -5.321115970611572, 1.639655590057373, 8.18106460571289, -2.158881664276123, -1.537658452987671, -2.175132989883423, 0.29150390625, -0.181640625, -0.91552734375
87, 1798606702, -5.306997776031494, 1.6230942010879517, 8.16738510131836, -2.188156843185425, -1.5681246519088745, -2.0948755741119385, 0.2919921875, -0.18212890625, -0.9130859375
88, 1798623369, -5.313043594360352, 1.6440186500549316, 8.180834770202637, -2.1733531951904297, -1.605941891670227, -2.0470311641693115, 0.293701171875, -0.18115234375, -0.916015625
89, 1798640036, -5.309866905212402, 1.6397547721862793, 8.195642471313477, -2.123945713043213, -1.6112821102142334, -2.0920708179473877, 0.29296875, -0.181640625, -0.916015625
90, 1798656703, -5.292268753051758, 1.637960433959961, 8.186690330505371, -2.274061679840088, -1.4695669412612915, -2.1511080265045166, 0.29248046875, -0.18115234375, -0.91552734375
91, 1798673370, -5.295215129852295, 1.6371046304702759, 8.176481246948242, -2.3242757320404053, -1.4184696674346924, -2.2647900581359863, 0.29296875, -0.1806640625, -0.9169921875
92, 1798690037, -5.33148717880249, 1.6254801750183105, 8.18084716796875, -2.340757369995117, -1.4194557666778564, -2.2219016551971436, 0.29345703125, -0.181640625, -0.91748046875
93, 1798706704, -5.315343856811523, 1.6463563442230225, 8.160666465759277, -2.3352251052856445, -1.537197232246399, -2.063755989074707, 0.29248046875, -0.1806640625, -0.91650390625
94, 1798723371, -5.311683654785156, 1.6583079099655151, 8.169198989868164, -2.3766281604766846, -1.7017461061477661, -2.189117193222046, 0.29345703125, -0.181640625, -0.916015625
95, 1798740038, -5.294395923614502, 1.6541345119476318, 8.170426368713379, -2.414611577987671, -1.7194316387176514, -2.243826150894165, 0.295166015625, -0.181640625, -0.91748046875
96, 1798756705, -5.319793224334717, 1.6375964879989624, 8.154823303222656, -2.377537488937378, -1.619990587234497, -2.247501850128174, 0.29296875, -0.1787109375, -0.916015625
97, 1798773372, -5.331384658813477, 1.6203830242156982, 8.185489654541016, -2.3917653560638428, -1.5304356813430786, -2.191025733947754, 0.29296875, -0.18212890625, -0.91455078125
98, 1798790039, -5.310225009918213, 1.6308128833770752, 8.178203582763672, -2.268298864364624, -1.594902753829956, -2.0612075328826904, 0.29248046875, -0.181640625, -0.91650390625
99, 1798806706, -5.324390411376953, 1.6130526065826416, 8.171653747558594, -2.218200445175171, -1.4915809631347656, -2.027219295501709, 0.2919921875, -0.1806640625, -0.916015625
100, 1798823373, -5.31067419052124, 1.6415448188781738, 8.145855903625488, -2.3593392372131348, -1.4561203718185425, -2.131168842315674, 0.2900390625, -0.181640625, -0.91650390625
101, 1798840040, -5.313873291015625, 1.6549828052520752, 8.168427467346191, -2.5420985221862793, -1.717549204826355, -2.2299439907073975, 0.2919921875, -0.18017578125, -0.916015625
102, 1798856707, -5.326748371124268, 1.6299513578414917, 8.169083595275879, -2.6413230895996094, -1.7984728813171387, -2.34123158454895, 0.293701171875, -0.18017578125, -0.91552734375
103, 1798873374, -5.316122531890869, 1.625321865081787, 8.164388656616211, -2.6230738162994385, -1.8648096323013306, -2.348543882369995, 0.29150390625, -0.18212890625, -0.917236328125
104, 1798890041, -5.302193641662598, 1.6442821025848389, 8.195959091186523, -2.549027442932129, -1.7156926393508911, -2.407017707824707, 0.293701171875, -0.17919921875, -0.916015625
105, 1798906708, -5.310629367828369, 1.6130226850509644, 8.162583351135254, -2.3415896892547607, -1.5339828729629517, -2.315720796585083, 0.293212890625, -0.181640625, -0.9130859375
106, 1798923375, -5.296877861022949, 1.629183053970337, 8.186768531799316, -2.267569065093994, -1.4909663200378418, -2.3356220722198486, 0.291015625, -0.18017578125, -0.9150390625
107, 1798940042, -5.329484462738037, 1.6236075162887573, 8.169800758361816, -2.1613917350769043, -1.387107014656067, -2.2345926761627197, 0.29150390625, -0.1796875, -0.920166015625
108, 1798956709, -5.317113399505615, 1.6295274496078491, 8.189197540283203, -2.071465253829956, -1.3295167684555054, -2.067828416824341, 0.29296875, -0.18017578125, -0.91650390625
109, 1798973376, -5.326710224151611, 1.6204496622085571, 8.152647972106934, -2.0639994144439697, -1.5079731941223145, -2.1478936672210693, 0.293701171875, -0.181640625, -0.91552734375
110, 1798990043, -5.3146843910217285, 1.6277048587799072, 8.173233032226562, -2.07944393157959, -1.5443305969238281, -2.054702043533325, 0.29296875, -0.1806640625, -0.91650390625
111, 1799006710, -5.3102707862854, 1.6424554586410522, 8.169439315795898, -2.2181365489959717, -1.502492070198059, -2.0516154766082764, 0.294189453125, -0.1806640625, -0.91552734375
112, 1799023377, -5.317471027374268, 1.6483938694000244, 8.152429580688477, -2.301480531692505, -1.4297393560409546, -2.1582157611846924, 0.29248046875, -0.18212890625, -0.91552734375
113, 1799040044, -5.30165958404541, 1.654317855834961, 8.175358772277832, -2.404815196990967, -1.3875937461853027, -2.179269552230835, 0.29248046875, -0.1806640625, -0.9169921875
114, 1799056711, -5.319405555725098, 1.6424317359924316, 8.183539390563965, -2.443809986114502, -1.177210807800293, -2.1282999515533447, 0.29296875, -0.1806640625, -0.9150390625
115, 1799073378, -5.321609020233154, 1.6373567581176758, 8.178464889526367, -2.4700629711151123, -1.3229855298995972, -2.085718870162964, 0.29296875, -0.1806640625, -0.9150390625
116, 1799090045, -5.344202518463135, 1.646383285522461, 8.171178817749023, -2.431157112121582, -1.3361246585845947, -2.170637845993042, 0.294189453125, -0.1806640625, -0.91552734375
117, 1799106712, -5.330563068389893, 1.629693627357483, 8.16804313659668, -2.614403486251831, -1.5345208644866943, -2.0982308387756348, 0.293701171875, -0.181640625, -0.91552734375
118, 1799123379, -5.317903518676758, 1.6263371706008911, 8.168895721435547, -2.6537704467773438, -1.6640444993972778, -2.1010611057281494, 0.293701171875, -0.18017578125, -0.91552734375
119, 1799140046, -5.318305015563965, 1.6265716552734375, 8.172906875610352, -2.4950098991394043, -1.7092249393463135, -2.0960280895233154, 0.294189453125, -0.1796875, -0.916015625
120, 1799156713, -5.326183319091797, 1.6307826042175293, 8.159619331359863, -2.5302786827087402, -1.75295889377594, -2.1908977031707764, 0.29345703125, -0.1806640625, -0.91552734375
121, 1799173380, -5.329290866851807, 1.633264422416687, 8.157811164855957, -2.460663318634033, -1.8671274185180664, -2.1702539920806885, 0.293212890625, -0.18017578125, -0.9150390625
122, 1799190047, -5.304895877838135, 1.6341357231140137, 8.180908203125, -2.533813238143921, -1.8720324039459229, -2.193330764770508, 0.29345703125, -0.17919921875, -0.91552734375
123, 1799206714, -5.320552349090576, 1.6269149780273438, 8.178413391113281, -2.5606043338775635, -1.7319694757461548, -2.2362964153289795, 0.29150390625, -0.1806640625, -0.9150390625
124, 1799223381, -5.308124542236328, 1.6197737455368042, 8.182246208190918, -2.389831304550171, -1.6602792739868164, -2.183457136154175, 0.29248046875, -0.18212890625, -0.9150390625
125, 1799240048, -5.319941997528076, 1.6300116777420044, 8.170206069946289, -2.3611578941345215, -1.5154778957366943, -2.230379819869995, 0.29296875, -0.181640625, -0.9140625
126, 1799256715, -5.309035778045654, 1.644073486328125, 8.188557624816895, -2.3387725353240967, -1.545214295387268, -2.2068288326263428, 0.29248046875, -0.17724609375, -0.91552734375
127, 1799273382, -5.329621315002441, 1.6223140954971313, 8.159616470336914, -2.344945192337036, -1.5129549503326416, -2.3163869380950928, 0.2919921875, -0.18212890625, -0.91650390625
128, 1799290049, -5.330944538116455, 1.625411033630371, 8.165865898132324, -2.375885248184204, -1.5190123319625854, -2.331857204437256, 0.291015625, -0.18212890625, -0.9150390625
129, 1799306716, -5.313729286193848, 1.6312628984451294, 8.178061485290527, -2.3157341480255127, -1.5098047256469727, -2.2461698055267334, 0.29296875, -0.182373046875, -0.9130859375
130, 1799323383, -5.335396766662598, 1.6191422939300537, 8.16933822631836, -2.2343876361846924, -1.5492864847183228, -2.166450023651123, 0.294677734375, -0.181640625, -0.9130859375
131, 1799340050, -5.326153755187988, 1.6404931545257568, 8.164894104003906, -2.164478063583374, -1.7048836946487427, -2.0416393280029297, 0.29345703125, -0.181640625, -0.91552734375
132, 1799356717, -5.309871196746826, 1.6257407665252686, 8.17544937133789, -2.2236945629119873, -1.7462224960327148, -1.9963432550430298, 0.29150390625, -0.18115234375, -0.9169921875
133, 1799373384, -5.316615104675293, 1.6249432563781738, 8.154861450195312, -2.2212612628936768, -1.7850642204284668, -2.078598737716675, 0.294189453125, -0.18115234375, -0.91650390625
134, 1799390051, -5.311336517333984, 1.629514455795288, 8.167314529418945, -2.376678943634033, -1.6063259840011597, -2.0713884830474854, 0.2919921875, -0.18115234375, -0.9140625
135, 1799406718, -5.30216121673584, 1.6495732069015503, 8.181279182434082, -2.398885726928711, -1.617570161819458, -2.1528756618499756, 0.29150390625, -0.18115234375, -0.916015625
136, 1799423385, -5.296935558319092, 1.6391503810882568, 8.161234855651855, -2.5492448806762695, -1.5731064081192017, -2.2622289657592773, 0.294189453125, -0.18115234375, -0.9140625
137, 1799440052, -5.323376178741455, 1.6384028196334839, 8.170549392700195, -2.5350422859191895, -1.458092451095581, -2.3971948623657227, 0.29248046875, -0.18115234375, -0.9140625
138, 1799456719, -5.312633037567139, 1.6148666143417358, 8.173964500427246, -2.5217881202697754, -1.4503833055496216, -2.2793636322021484, 0.29296875, -0.18115234375, -0.9169921875
139, 1799473386, -5.325321197509766, 1.6244721412658691, 8.162046432495117, -2.444181203842163, -1.4816689491271973, -2.283487319946289, 0.29296875, -0.18017578125, -0.91357421875
140, 1799490053, -5.342092990875244, 1.6043013334274292, 8.152717590332031, -2.4307477474212646, -1.64949631690979, -2.3393359184265137, 0.293212890625, -0.1806640625, -0.9150390625
141, 1799506720, -5.30612325668335, 1.639381766319275, 8.177926063537598, -2.397707462310791, -1.7855767011642456, -2.2579901218414307, 0.29248046875, -0.18115234375, -0.916015625
142, 1799523387, -5.303011894226074, 1.6333273649215698, 8.159313201904297, -2.3134031295776367, -1.6118584871292114, -2.242276906967163, 0.294677734375, -0.18017578125, -0.91455078125
143, 1799540054, -5.31608772277832, 1.630027174949646, 8.166254043579102, -2.2666854858398438, -1.6154698133468628, -2.1674747467041016, 0.29296875, -0.181640625, -0.91650390625
144, 1799556721, -5.3291521072387695, 1.631981372833252, 8.146533966064453, -2.2385754585266113, -1.6492143869400024, -2.1720077991485596, 0.29052734375, -0.1806640625, -0.9150390625
145, 1799573388, -5.328346252441406, 1.6298714876174927, 8.153948783874512, -2.2843708992004395, -1.7255915403366089, -2.177476167678833, 0.293701171875, -0.1806640625, -0.916015625
146, 1799590055, -5.3147196769714355, 1.631459355354309, 8.164496421813965, -2.2961273193359375, -1.8872077465057373, -2.2616140842437744, 0.29296875, -0.1806640625, -0.9150390625
147, 1799606722, -5.297634601593018, 1.631907343864441, 8.195259094238281, -2.376269578933716, -1.6847138404846191, -2.296780586242676, 0.29248046875, -0.18115234375, -0.91748046875
148, 1799623389, -5.314107418060303, 1.6339622735977173, 8.155473709106445, -2.322521448135376, -1.7047173976898193, -2.179999351501465, 0.295166015625, -0.18017578125, -0.9140625
149, 1799640056, -5.306079387664795, 1.6373041868209839, 8.171277046203613, -2.452889919281006, -1.6201058626174927, -2.3215863704681396, 0.296142578125, -0.181640625, -0.9150390625
150, 1799656723, -5.32459831237793, 1.6306993961334229, 8.15546703338623, -2.4258174896240234, -1.6271235942840576, -2.2424943447113037, 0.29296875, -0.181640625, -0.9130859375
151, 1799673390, -5.328995227813721, 1.6244523525238037, 8.147122383117676, -2.325812339782715, -1.8148645162582397, -2.2228751182556152, 0.293701171875, -0.1806640625, -0.91748046875
152, 1799690057, -5.325953006744385, 1.6499404907226562, 8.151307106018066, -2.3626694679260254, -1.7651761770248413, -2.1376874446868896, 0.29150390625, -0.181640625, -0.91455078125
153, 1799706724, -5.298520565032959, 1.6308050155639648, 8.170465469360352, -2.3380680084228516, -1.8309111595153809, -2.1872479915618896, 0.29296875, -0.184326171875, -0.91552734375
154, 1799723391, -5.308662414550781, 1.6287076473236084, 8.185819625854492, -2.305142879486084, -1.6799112558364868, -2.1076178550720215, 0.29248046875, -0.181640625, -0.91650390625
155, 1799740058, -5.322230339050293, 1.622673749923706, 8.186068534851074, -2.216228723526001, -1.5953127145767212, -2.0435733795166016, 0.29248046875, -0.17919921875, -0.9150390625
156, 1799756725, -5.323737621307373, 1.6412912607192993, 8.16396713256836, -2.2306737899780273, -1.7575562000274658, -1.8641307353973389, 0.29052734375, -0.18017578125, -0.9150390625
157, 1799773392, -5.319577693939209, 1.6453781127929688, 8.174532890319824, -2.339515209197998, -1.8270946741104126, -1.9572455883026123, 0.29296875, -0.1787109375, -0.91552734375
158, 1799790059, -5.3020782470703125, 1.654407024383545, 8.163097381591797, -2.4765431880950928, -1.8599944114685059, -2.080289125442505, 0.295654296875, -0.1796875, -0.91796875
159, 1799806726, -5.315306663513184, 1.638139247894287, 8.183119773864746, -2.6351757049560547, -1.8707391023635864, -2.174031972885132, 0.2919921875, -0.1806640625, -0.916015625
160, 1799823393, -5.317976474761963, 1.6179441213607788, 8.180593490600586, -2.6315770149230957, -1.6845474243164062, -2.1375722885131836, 0.29150390625, -0.17919921875, -0.91552734375
161, 1799840060, -5.344531059265137, 1.6302032470703125, 8.170973777770996, -2.5350170135498047, -1.6817939281463623, -2.137162208557129, 0.29150390625, -0.1806640625, -0.916015625
162, 1799856727, -5.3262739181518555, 1.6346536874771118, 8.170578002929688, -2.5120677947998047, -1.9035613536834717, -2.093568801879883, 0.2919921875, -0.1796875, -0.9150390625
163, 1799873394, -5.3155951499938965, 1.6391632556915283, 8.190587997436523, -2.5876002311706543, -1.9323631525039673, -2.097565174102783, 0.2919921875, -0.1796875, -0.91650390625
164, 1799890061, -5.303887844085693, 1.6297239065170288, 8.16948127746582, -2.543635606765747, -1.8283754587173462, -2.0739755630493164, 0.293701171875, -0.1806640625, -0.91650390625
165, 1799906728, -5.317477703094482, 1.621293544769287, 8.169791221618652, -2.5802364349365234, -1.8773212432861328, -2.065190553665161, 0.29296875, -0.1806640625, -0.91552734375
166, 1799923395, -5.305952548980713, 1.6208083629608154, 8.174205780029297, -2.3303844928741455, -1.8390047550201416, -1.8865420818328857, 0.293701171875, -0.17919921875, -0.9169921875
167, 1799940062, -5.2983503341674805, 1.6263535022735596, 8.187350273132324, -2.2109010219573975, -1.722172498703003, -1.9655442237854004, 0.29345703125, -0.181640625, -0.9169921875
168, 1799956729, -5.300009250640869, 1.6321500539779663, 8.190950393676758, -2.171598434448242, -1.5597748756408691, -1.8485324382781982, 0.29296875, -0.1796875, -0.91552734375
169, 1799973396, -5.287938117980957, 1.6432188749313354, 8.159421920776367, -2.058377265930176, -1.4073153734207153, -2.0040528774261475, 0.29052734375, -0.18017578125, -0.91650390625
170, 1799990063, -5.307219982147217, 1.6152963638305664, 8.182408332824707, -1.9911187887191772, -1.346382975578308, -1.9799644947052002, 0.29248046875, -0.181640625, -0.916015625
171, 1800006730, -5.317657470703125, 1.6433255672454834, 8.17477035522461, -1.9394962787628174, -1.4153834581375122, -1.858380913734436, 0.29150390625, -0.1806640625, -0.91552734375
172, 1800023397, -5.30826473236084, 1.6465320587158203, 8.199697494506836, -1.9816675186157227, -1.3287869691848755, -1.8926889896392822, 0.291015625, -0.1796875, -0.916015625
173, 1800040064, -5.310975074768066, 1.6376723051071167, 8.183831214904785, -1.9415067434310913, -1.343936800956726, -1.98686683177948, 0.295166015625, -0.18115234375, -0.91455078125
174, 1800056731, -5.3225178718566895, 1.6476842164993286, 8.181629180908203, -1.9960107803344727, -1.3394546508789062, -2.0192413330078125, 0.291015625, -0.18212890625, -0.9140625
175, 1800073398, -5.318684101104736, 1.652658462524414, 8.16127872467041, -1.9419935941696167, -1.3350108861923218, -2.0406665802001953, 0.293701171875, -0.181640625, -0.91455078125
176, 1800090065, -5.321532249450684, 1.650923252105713, 8.146145820617676, -2.1283769607543945, -1.4239252805709839, -2.067572593688965, 0.29248046875, -0.1826171875, -0.9169921875
177, 1800106732, -5.3173394203186035, 1.6650686264038086, 8.151843070983887, -2.2504725456237793, -1.5007888078689575, -2.1855828762054443, 0.29296875, -0.1806640625, -0.9140625
178, 1800123399, -5.331575393676758, 1.629591941833496, 8.171262741088867, -2.28908371925354, -1.635306715965271, -2.0758707523345947, 0.293701171875, -0.1806640625, -0.91455078125
179, 1800140066, -5.31432580947876, 1.6489343643188477, 8.168362617492676, -2.3643343448638916, -1.716140627861023, -2.172917604446411, 0.293701171875, -0.18212890625, -0.9130859375
180, 1800156733, -5.3000006675720215, 1.660149097442627, 8.18288516998291, -2.592607259750366, -1.8479053974151611, -2.1785011291503906, 0.29248046875, -0.181640625, -0.91357421875
181, 1800173400, -5.307933330535889, 1.647496223449707, 8.171985626220703, -2.6724677085876465, -1.829477071762085, -2.382570743560791, 0.29150390625, -0.183837890625, -0.91455078125
182, 1800190067, -5.312476634979248, 1.635414481163025, 8.18087387084961, -2.502898931503296, -1.7375400066375732, -2.302671432495117, 0.29345703125, -0.1806640625, -0.91552734375
183, 1800206734, -5.311692714691162, 1.6353154182434082, 8.184118270874023, -2.453594446182251, -1.6645950078964233, -2.222311496734619, 0.2919921875, -0.182861328125, -0.9130859375
184, 1800223401, -5.324606418609619, 1.6411057710647583, 8.183113098144531, -2.4809226989746094, -1.6896440982818604, -2.2644312381744385, 0.29296875, -0.182373046875, -0.9140625
185, 1800240068, -5.307918071746826, 1.6424373388290405, 8.15665054321289, -2.3849010467529297, -1.605224847793579, -2.214320421218872, 0.294677734375, -0.18017578125, -0.91796875
186, 1800256735, -5.3116254806518555, 1.650433897972107, 8.191631317138672, -2.3096251487731934, -1.6874797344207764, -2.2689521312713623, 0.29248046875, -0.18115234375, -0.91650390625
187, 1800273402, -5.318000316619873, 1.6224768161773682, 8.17730712890625, -2.331895589828491, -1.7219675779342651, -2.181600332260132, 0.294677734375, -0.183349609375, -0.91650390625
188, 1800290069, -5.322939395904541, 1.6347135305404663, 8.146012306213379, -2.316527843475342, -1.8571385145187378, -2.164337396621704, 0.29150390625, -0.1826171875, -0.91748046875
189, 1800306736, -5.305112361907959, 1.6422054767608643, 8.1758394241333, -2.290940999984741, -1.919325828552246, -2.1549882888793945, 0.29150390625, -0.18017578125, -0.916015625
190, 1800323403, -5.30911111831665, 1.6415202617645264, 8.185575485229492, -2.367676258087158, -1.7627941370010376, -2.100625514984131, 0.29296875, -0.18017578125, -0.91455078125
191, 1800340070, -5.3164825439453125, 1.6348756551742554, 8.187348365783691, -2.246016263961792, -1.7935547828674316, -2.1766440868377686, 0.29248046875, -0.1806640625, -0.91650390625
192, 1800356737, -5.294683456420898, 1.6524008512496948, 8.19003963470459, -2.3016467094421387, -1.7910830974578857, -2.1082708835601807, 0.29345703125, -0.18115234375, -0.91650390625
193, 1800373404, -5.300858020782471, 1.642639398574829, 8.166683197021484, -2.171175718307495, -1.6592929363250732, -2.1862103939056396, 0.2919921875, -0.18115234375, -0.91552734375
194, 1800390071, -5.313348770141602, 1.6472877264022827, 8.136768341064453, -2.206559896469116, -1.8329600095748901, -2.166783094406128, 0.295166015625, -0.181884765625, -0.9169921875
195, 1800406738, -5.2960734367370605, 1.6384574174880981, 8.195106506347656, -2.120987892150879, -1.666567325592041, -2.1850836277008057, 0.29150390625, -0.182861328125, -0.9169921875
196, 1800423405, -5.280989646911621, 1.6597970724105835, 8.171913146972656, -2.163607597351074, -1.3720595836639404, -2.265110492706299, 0.293701171875, -0.18212890625, -0.9130859375
197, 1800440072, -5.316507339477539, 1.653942584991455, 8.167293548583984, -2.129286050796509, -1.2883827686309814, -2.159355401992798, 0.29248046875, -0.1826171875, -0.91650390625
198, 1800456739, -5.316577434539795, 1.6462599039077759, 8.160591125488281, -1.9583343267440796, -1.2883830070495605, -2.100011110305786, 0.294189453125, -0.1806640625, -0.9150390625
199, 1800473406, -5.320694923400879, 1.6256566047668457, 8.159698486328125, -1.8496596813201904, -1.3793721199035645, -2.018332004547119, 0.29150390625, -0.1826171875, -0.9150390625
200, 1800490073, -5.316982269287109, 1.6411365270614624, 8.163439750671387, -1.9232062101364136, -1.2871533632278442, -2.039590358734131, 0.291015625, -0.182861328125, -0.9150390625
201, 1800506740, -5.299776554107666, 1.6502560377120972, 8.165310859680176, -1.9596532583236694, -1.5106240510940552, -2.044546604156494, 0.294189453125, -0.182373046875, -0.91455078125
202, 1800523407, -5.321624755859375, 1.6513005495071411, 8.16629409790039, -1.9675674438476562, -1.5026969909667969, -2.013939380645752, 0.2919921875, -0.183837890625, -0.9150390625
203, 1800540074, -5.317929744720459, 1.6915420293807983, 8.16020393371582, -2.089240789413452, -1.560364007949829, -2.0611050128936768, 0.29248046875, -0.184326171875, -0.91552734375
204, 1800556741, -5.303775310516357, 1.6554183959960938, 8.182533264160156, -2.3319337368011475, -1.4024235010147095, -2.3094329833984375, 0.2919921875, -0.18212890625, -0.91455078125
205, 1800573408, -5.2939910888671875, 1.6746282577514648, 8.189241409301758, -2.297996997833252, -1.2845536470413208, -2.2482571601867676, 0.29150390625, -0.184326171875, -0.9150390625
206, 1800590075, -5.316417694091797, 1.6251022815704346, 8.181303024291992, -2.219186544418335, -1.243099570274353, -2.240586280822754, 0.294677734375, -0.184814453125, -0.91357421875
207, 1800606742, -5.318159580230713, 1.6608197689056396, 8.164305686950684, -2.060042142868042, -1.2454559803009033, -2.149263858795166, 0.294189453125, -0.182373046875, -0.912841796875
208, 1800623409, -5.308168888092041, 1.6541728973388672, 8.16325569152832, -2.164951801300049, -1.3617887496948242, -2.0571608543395996, 0.293212890625, -0.181640625, -0.91357421875
209, 1800640076, -5.331732749938965, 1.6634221076965332, 8.150984764099121, -2.2492175102233887, -1.4127836227416992, -2.1426048278808594, 0.295166015625, -0.183349609375, -0.916015625
210, 1800656743, -5.344848155975342, 1.6406909227371216, 8.167351722717285, -2.2146661281585693, -1.5897289514541626, -2.1361758708953857, 0.29248046875, -0.1826171875, -0.916015625
211, 1800673410, -5.331157684326172, 1.6303434371948242, 8.161178588867188, -2.1069135665893555, -1.7069329023361206, -2.0377209186553955, 0.295166015625, -0.185791015625, -0.91552734375
212, 1800690077, -5.296029567718506, 1.648223638534546, 8.173877716064453, -2.197953701019287, -1.7875230312347412, -1.9130252599716187, 0.294677734375, -0.182861328125, -0.91552734375
213, 1800706744, -5.320959568023682, 1.670699954032898, 8.155340194702148, -2.188246488571167, -1.760066270828247, -1.9782607555389404, 0.29296875, -0.184326171875, -0.91455078125
214, 1800723411, -5.296614170074463, 1.6735228300094604, 8.165799140930176, -2.1796789169311523, -1.6487663984298706, -2.1263277530670166, 0.293212890625, -0.182373046875, -0.91455078125
215, 1800740078, -5.311387538909912, 1.6515772342681885, 8.17005729675293, -2.136713743209839, -1.6116278171539307, -1.9726643562316895, 0.293701171875, -0.18115234375, -0.9140625
216, 1800756745, -5.3086724281311035, 1.6680947542190552, 8.174898147583008, -2.2112209796905518, -1.5166559219360352, -2.096245765686035, 0.295166015625, -0.181640625, -0.91650390625
217, 1800773412, -5.3446197509765625, 1.6551320552825928, 8.147130012512207, -2.2475526332855225, -1.6533124446868896, -2.160904884338379, 0.29248046875, -0.182861328125, -0.9140625
218, 1800790079, -5.295366287231445, 1.6974507570266724, 8.171907424926758, -2.324544668197632, -1.6675915718078613, -2.2365009784698486, 0.293212890625, -0.183349609375, -0.9140625
219, 1800806746, -5.313232421875, 1.6557611227035522, 8.159497261047363, -2.333996057510376, -1.5639883279800415, -2.2470791339874268, 0.2919921875, -0.182373046875, -0.911865234375
220, 1800823413, -5.300209045410156, 1.661739468574524, 8.169803619384766, -2.254314661026001, -1.2949780225753784, -2.228522539138794, 0.29296875, -0.184326171875, -0.9150390625
221, 1800840080, -5.302235126495361, 1.6483641862869263, 8.187006950378418, -2.0296525955200195, -1.105149507522583, -2.2013471126556396, 0.295654296875, -0.182373046875, -0.9150390625
222, 1800856747, -5.33233642578125, 1.632070779800415, 8.155458450317383, -1.742047905921936, -1.0659878253936768, -2.0403971672058105, 0.293701171875, -0.184326171875, -0.91357421875
223, 1800873414, -5.344928741455078, 1.6316109895706177, 8.151983261108398, -1.5514253377914429, -1.0954679250717163, -1.8200255632400513, 0.295166015625, -0.184326171875, -0.9150390625
224, 1800890081, -5.303887844085693, 1.6595563888549805, 8.134139060974121, -1.2004672288894653, -0.9453007578849792, -1.7654067277908325, 0.293701171875, -0.182373046875, -0.91455078125
225, 1800906748, -5.335186004638672, 1.6458574533462524, 8.168411254882812, -0.5484447479248047, -0.8926153182983398, -1.4339396953582764, 0.295166015625, -0.185302734375, -0.91357421875
226, 1800923415, -5.329990386962891, 1.631728172302246, 8.13231086730957, -0.22423920035362244, -0.40316951274871826, -1.2415244579315186, 0.294189453125, -0.184814453125, -0.91552734375
227, 1800940082, -5.327890396118164, 1.6216726303100586, 8.14631175994873, 0.37482261657714844, -0.21558207273483276, -0.7758982181549072, 0.295166015625, -0.186767578125, -0.913330078125
228, 1800956749, -5.298491477966309, 1.6759467124938965, 8.146685600280762, 0.9918709993362427, 0.12240950763225555, -0.4868846535682678, 0.294189453125, -0.187255859375, -0.91357421875
229, 1800973416, -5.361537933349609, 1.6690489053726196, 8.17338752746582, 1.5114628076553345, 0.5144374966621399, -0.3622659742832184, 0.295166015625, -0.186279296875, -0.910400390625
230, 1800990083, -5.3099446296691895, 1.7305620908737183, 8.14259147644043, 1.668481469154358, 0.9744159579277039, -0.2857224643230438, 0.298095703125, -0.1884765625, -0.912353515625
231, 1801006750, -5.3656697273254395, 1.7693684101104736, 8.127203941345215, 1.4641178846359253, 0.963069498538971, -0.2919463515281677, 0.297607421875, -0.18994140625, -0.913818359375
232, 1801023417, -5.390279769897461, 1.7662477493286133, 8.142294883728027, 1.3323149681091309, 0.5968078970909119, -0.4926730692386627, 0.298095703125, -0.19091796875, -0.912353515625
233, 1801040084, -5.365684509277344, 1.7470338344573975, 8.099207878112793, 0.9469463229179382, 0.2714881896972656, -0.6168818473815918, 0.298095703125, -0.19287109375, -0.911865234375
234, 1801056751, -5.339560031890869, 1.80328369140625, 8.158538818359375, 0.7499589920043945, -0.05387631058692932, -0.60513836145401, 0.297119140625, -0.194580078125, -0.910400390625
235, 1801073418, -5.366098880767822, 1.779273509979248, 8.115614891052246, 0.4228464365005493, -0.284377783536911, -0.7332915663719177, 0.297607421875, -0.197509765625, -0.91064453125
236, 1801090085, -5.38654088973999, 1.802807092666626, 8.10895824432373, 0.09315978735685349, -0.27984437346458435, -0.8186203241348267, 0.29833984375, -0.197021484375, -0.91015625
237, 1801106752, -5.365629196166992, 1.7981104850769043, 8.078221321105957, -0.22426481544971466, -0.7029277682304382, -0.9824647903442383, 0.297607421875, -0.197998046875, -0.9091796875
238, 1801123419, -5.362558364868164, 1.830734372138977, 8.117897987365723, -0.6480013132095337, -1.0204484462738037, -1.1860089302062988, 0.30029296875, -0.196044921875, -0.91015625
239, 1801140086, -5.356845378875732, 1.8667943477630615, 8.126014709472656, -1.3458834886550903, -1.4680559635162354, -1.4517277479171753, 0.30126953125, -0.197509765625, -0.91015625
240, 1801156753, -5.386102199554443, 1.816056251525879, 8.108150482177734, -1.9376647472381592, -1.8292205333709717, -1.8853379487991333, 0.29833984375, -0.194580078125, -0.91064453125
241, 1801173420, -5.346006393432617, 1.8053390979766846, 8.123209953308105, -2.2546348571777344, -2.1485469341278076, -2.004411458969116, 0.2998046875, -0.198486328125, -0.90966796875
242, 1801190087, -5.349024295806885, 1.8159619569778442, 8.105721473693848, -2.3283486366271973, -2.2385244369506836, -2.167513370513916, 0.297119140625, -0.197021484375, -0.91015625
243, 1801206754, -5.356797218322754, 1.8146976232528687, 8.100483894348145, -2.559131622314453, -2.085232734680176, -2.1963789463043213, 0.29833984375, -0.198486328125, -0.9111328125
244, 1801223421, -5.3713250160217285, 1.806786298751831, 8.085267066955566, -2.746462345123291, -2.1165950298309326, -2.3293724060058594, 0.297607421875, -0.196533203125, -0.911865234375
245, 1801240088, -5.358554363250732, 1.8082897663116455, 8.116531372070312, -2.8314709663391113, -2.0348265171051025, -2.3627586364746094, 0.297607421875, -0.197509765625, -0.90966796875
246, 1801256755, -5.360477924346924, 1.7965614795684814, 8.093642234802246, -2.9661171436309814, -2.1147894859313965, -2.4542088508605957, 0.296142578125, -0.197021484375, -0.911376953125
247, 1801273422, -5.346312046051025, 1.8050997257232666, 8.110127449035645, -3.1828906536102295, -2.361145496368408, -2.606079578399658, 0.296630859375, -0.197998046875, -0.90869140625
248, 1801290089, -5.344459056854248, 1.7957582473754883, 8.10556411743164, -3.222731351852417, -2.2301876544952393, -2.6112537384033203, 0.29931640625, -0.196044921875, -0.91064453125
249, 1801306756, -5.349296569824219, 1.792271614074707, 8.09986400604248, -3.319406747817993, -2.1942405700683594, -2.6224207878112793, 0.294189453125, -0.197509765625, -0.910888671875
250, 1801323423, -5.352450370788574, 1.800810694694519, 8.113075256347656, -3.492727279663086, -2.193023204803467, -2.71380615234375, 0.297607421875, -0.196533203125, -0.910888671875
251, 1801340090, -5.363835334777832, 1.784057378768921, 8.112151145935059, -3.6264381408691406, -2.444348096847534, -2.8473641872406006, 0.29833984375, -0.195556640625, -0.91064453125
252, 1801356757, -5.369785785675049, 1.8004114627838135, 8.126386642456055, -3.8074822425842285, -2.474583864212036, -2.8508858680725098, 0.296142578125, -0.194580078125, -0.912353515625
253, 1801373424, -5.3345208168029785, 1.7823642492294312, 8.121967315673828, -3.8217475414276123, -2.582925319671631, -2.939415693283081, 0.297119140625, -0.193603515625, -0.909912109375
254, 1801390091, -5.361492156982422, 1.7575230598449707, 8.14099407196045, -3.610238790512085, -2.537437677383423, -2.8106484413146973, 0.297119140625, -0.195556640625, -0.911376953125
255, 1801406758, -5.355619430541992, 1.7310150861740112, 8.143205642700195, -3.3990867137908936, -2.417454719543457, -2.723539352416992, 0.296142578125, -0.195068359375, -0.909912109375
256, 1801423425, -5.33095121383667, 1.7565078735351562, 8.12706184387207, -3.2378814220428467, -2.273332118988037, -2.7092478275299072, 0.295654296875, -0.19287109375, -0.912353515625
257, 1801440092, -5.337895393371582, 1.7597748041152954, 8.124484062194824, -3.065904140472412, -1.9425055980682373, -2.6378138065338135, 0.296630859375, -0.194091796875, -0.911376953125
258, 1801456759, -5.3273420333862305, 1.7822158336639404, 8.108601570129395, -2.9170687198638916, -2.0803403854370117, -2.6138787269592285, 0.295166015625, -0.194091796875, -0.911376953125
259, 1801473426, -5.364166736602783, 1.7479548454284668, 8.124199867248535, -2.834211587905884, -1.8204481601715088, -2.6332156658172607, 0.295654296875, -0.194580078125, -0.912353515625
260, 1801490093, -5.339560031890869, 1.7549703121185303, 8.122779846191406, -2.6564724445343018, -1.7361056804656982, -2.5149497985839844, 0.296142578125, -0.1923828125, -0.910888671875
261, 1801506760, -5.348154067993164, 1.7446845769882202, 8.130178451538086, -2.511953115463257, -1.676607370376587, -2.4587807655334473, 0.296142578125, -0.1923828125, -0.912841796875
262, 1801523427, -5.350789546966553, 1.7463321685791016, 8.125364303588867, -2.437278985977173, -1.644770860671997, -2.409105062484741, 0.296630859375, -0.19140625, -0.912353515625
263, 1801540094, -5.342564105987549, 1.7467142343521118, 8.126172065734863, -2.427443742752075, -1.5893703699111938, -2.3592751026153564, 0.295166015625, -0.19384765625, -0.910400390625
264, 1801556761, -5.322698593139648, 1.7654914855957031, 8.147913932800293, -2.421527147293091, -1.529628872871399, -2.3235459327697754, 0.295166015625, -0.19189453125, -0.910888671875
265, 1801573428, -5.341135025024414, 1.7540174722671509, 8.14769458770752, -2.3531928062438965, -1.2435863018035889, -2.3734776973724365, 0.296142578125, -0.193603515625, -0.910400390625
266, 1801590095, -5.354126453399658, 1.7242920398712158, 8.119180679321289, -2.323878526687622, -1.2629235982894897, -2.237410068511963, 0.295166015625, -0.1923828125, -0.910400390625
267, 1801606762, -5.3405280113220215, 1.7455880641937256, 8.11652660369873, -2.316399574279785, -1.413564920425415, -2.119335651397705, 0.295166015625, -0.195556640625, -0.912353515625
268, 1801623429, -5.343468189239502, 1.752952218055725, 8.127654075622559, -2.3506052494049072, -1.417291522026062, -2.1217944622039795, 0.296142578125, -0.193603515625, -0.911865234375
269, 1801640096, -5.350558757781982, 1.7605704069137573, 8.124004364013672, -2.3681247234344482, -1.4647775888442993, -2.2251291275024414, 0.294189453125, -0.19287109375, -0.910888671875
270, 1801656763, -5.368188381195068, 1.7454179525375366, 8.11611557006836, -2.443502902984619, -1.501250147819519, -2.146165132522583, 0.295654296875, -0.19384765625, -0.911865234375
271, 1801673430, -5.379508972167969, 1.7448395490646362, 8.123124122619629, -2.4896185398101807, -1.7424705028533936, -2.104339599609375, 0.293701171875, -0.19140625, -0.912841796875
272, 1801690097, -5.345003604888916, 1.7679542303085327, 8.12175464630127, -2.543097734451294, -1.8591234683990479, -2.0996265411376953, 0.298095703125, -0.195556640625, -0.912353515625
273, 1801706764, -5.338111400604248, 1.7629902362823486, 8.122296333312988, -2.6056694984436035, -1.927125334739685, -2.153733491897583, 0.297119140625, -0.1923828125, -0.911865234375
274, 1801723431, -5.332859039306641, 1.7579981088638306, 8.126384735107422, -2.5862042903900146, -1.7169989347457886, -2.247527599334717, 0.297119140625, -0.19287109375, -0.910888671875
275, 1801740098, -5.357769966125488, 1.7504922151565552, 8.117965698242188, -2.5569417476654053, -1.647652268409729, -2.230238676071167, 0.296630859375, -0.19189453125, -0.912841796875
276, 1801756765, -5.356381416320801, 1.748990774154663, 8.140369415283203, -2.475147247314453, -1.6380987167358398, -2.2781856060028076, 0.297119140625, -0.19140625, -0.913818359375
277, 1801773432, -5.360601425170898, 1.7469297647476196, 8.121315002441406, -2.340616464614868, -1.7549564838409424, -2.1843278408050537, 0.297119140625, -0.19287109375, -0.912353515625
278, 1801790099, -5.3468828201293945, 1.7514724731445312, 8.110486030578613, -2.487825870513916, -1.8686516284942627, -2.2359888553619385, 0.296630859375, -0.19091796875, -0.909912109375
279, 1801806766, -5.3399858474731445, 1.7399245500564575, 8.116776466369629, -2.439507484436035, -1.9825384616851807, -2.2254750728607178, 0.293701171875, -0.19091796875, -0.913818359375
280, 1801823433, -5.326289653778076, 1.7262911796569824, 8.13507080078125, -2.2137956619262695, -1.9051754474639893, -2.2442359924316406, 0.296630859375, -0.1923828125, -0.911376953125
281, 1801840100, -5.345750331878662, 1.747939944267273, 8.141142845153809, -2.1287100315093994, -1.8686386346817017, -2.212604522705078, 0.294189453125, -0.1943359375, -0.911865234375
282, 1801856767, -5.354184627532959, 1.7414826154708862, 8.11141586303711, -2.119668483734131, -1.8759125471115112, -2.0830936431884766, 0.295654296875, -0.19287109375, -0.912353515625
283, 1801873434, -5.343895435333252, 1.7437562942504883, 8.130304336547852, -2.049194812774658, -1.8737738132476807, -2.178295850753784, 0.295654296875, -0.1904296875, -0.913818359375
284, 1801890101, -5.347817420959473, 1.7710728645324707, 8.131867408752441, -2.1923060417175293, -1.8660898208618164, -2.0273730754852295, 0.297119140625, -0.19287109375, -0.911376953125
285, 1801906768, -5.338215351104736, 1.7550240755081177, 8.143081665039062, -2.150224447250366, -1.9054311513900757, -2.0675978660583496, 0.294677734375, -0.19091796875, -0.912841796875
286, 1801923435, -5.343014717102051, 1.7444809675216675, 8.143634796142578, -2.157728910446167, -1.6962778568267822, -2.0059735774993896, 0.294677734375, -0.1923828125, -0.912353515625
287, 1801940102, -5.327018737792969, 1.761695384979248, 8.145974159240723, -2.2510361671447754, -1.6457313299179077, -2.0343017578125, 0.298095703125, -0.193603515625, -0.913330078125
288, 1801956769, -5.330463886260986, 1.7756270170211792, 8.16082763671875, -2.1375207901000977, -1.5949796438217163, -1.961369276046753, 0.296142578125, -0.19189453125, -0.912841796875
289, 1801973436, -5.335399150848389, 1.7595323324203491, 8.11113452911377, -2.2305588722229004, -1.4921958446502686, -2.1054022312164307, 0.295166015625, -0.19189453125, -0.91455078125
290, 1801990103, -5.326294898986816, 1.7557975053787231, 8.13137149810791, -2.208160161972046, -1.5097789764404297, -2.043278694152832, 0.294677734375, -0.194091796875, -0.911865234375
291, 1802006770, -5.340171813964844, 1.7727069854736328, 8.119889259338379, -2.216036319732666, -1.3740700483322144, -2.0609898567199707, 0.295166015625, -0.19287109375, -0.911865234375
292, 1802023437, -5.350979328155518, 1.7694787979125977, 8.12127685546875, -2.204753875732422, -1.4847041368484497, -2.0482218265533447, 0.295166015625, -0.19384765625, -0.913330078125
293, 1802040104, -5.372138500213623, 1.7508922815322876, 8.109844207763672, -2.3105216026306152, -1.7018613815307617, -2.0724642276763916, 0.296630859375, -0.19189453125, -0.911376953125
294, 1802056771, -5.362351894378662, 1.7492974996566772, 8.14218521118164, -2.3083062171936035, -1.7444939613342285, -2.112715005874634, 0.297607421875, -0.19287109375, -0.910888671875
295, 1802073438, -5.332289695739746, 1.751586675643921, 8.126381874084473, -2.2370898723602295, -1.931812047958374, -1.9580267667770386, 0.296630859375, -0.19189453125, -0.911376953125
296, 1802090105, -5.3341193199157715, 1.7734681367874146, 8.143258094787598, -2.2713725566864014, -1.8933037519454956, -2.029973030090332, 0.296630859375, -0.19189453125, -0.910888671875
297, 1802106772, -5.321129322052002, 1.7530090808868408, 8.158543586730957, -2.2862792015075684, -1.7291902303695679, -2.0663304328918457, 0.293212890625, -0.19384765625, -0.911376953125
298, 1802123439, -5.3476033210754395, 1.7624192237854004, 8.1386137008667, -2.2668004035949707, -1.5422813892364502, -2.1365344524383545, 0.298583984375, -0.194091796875, -0.913818359375
299, 1802140106, -5.335359573364258, 1.7728774547576904, 8.137561798095703, -2.2313144207000732, -1.6223982572555542, -2.0025293827056885, 0.298095703125, -0.194580078125, -0.913330078125
300, 1802156773, -5.347228527069092, 1.7756425142288208, 8.116266250610352, -2.3587756156921387, -1.5306404829025269, -2.1715214252471924, 0.297119140625, -0.196044921875, -0.910888671875
301, 1802173440, -5.344225883483887, 1.7653555870056152, 8.12386703491211, -2.468923330307007, -1.7327630519866943, -2.172776460647583, 0.295166015625, -0.1923828125, -0.911865234375
302, 1802190107, -5.340314865112305, 1.7613565921783447, 8.12116527557373, -2.4425551891326904, -1.6303253173828125, -2.101329803466797, 0.295166015625, -0.194091796875, -0.912841796875
303, 1802206774, -5.344727039337158, 1.766865611076355, 8.120327949523926, -2.536259412765503, -1.764996886253357, -2.0436887741088867, 0.295654296875, -0.194091796875, -0.911865234375
304, 1802223441, -5.347797870635986, 1.7766958475112915, 8.127446174621582, -2.5717966556549072, -1.6848931312561035, -2.0159757137298584, 0.294189453125, -0.1923828125, -0.911865234375
305, 1802240108, -5.3304314613342285, 1.7783619165420532, 8.13048267364502, -2.7830252647399902, -1.8865164518356323, -2.181433916091919, 0.295654296875, -0.1923828125, -0.912841796875
306, 1802256775, -5.354814529418945, 1.7684649229049683, 8.122450828552246, -2.8983330726623535, -1.9581420421600342, -2.269169807434082, 0.295654296875, -0.1904296875, -0.911865234375
307, 1802273442, -5.324278831481934, 1.7629362344741821, 8.131660461425781, -3.048794984817505, -1.9973039627075195, -2.4218344688415527, 0.294189453125, -0.19384765625, -0.913330078125
308, 1802290109, -5.330549716949463, 1.7760798931121826, 8.1072416305542, -3.0108113288879395, -2.0073697566986084, -2.4530818462371826, 0.293212890625, -0.195068359375, -0.913818359375
309, 1802306776, -5.339942932128906, 1.7418582439422607, 8.13129711151123, -3.000169277191162, -1.8323068618774414, -2.459984540939331, 0.294189453125, -0.19189453125, -0.910888671875
310, 1802323443, -5.357628345489502, 1.7536721229553223, 8.129653930664062, -2.9758753776550293, -1.96965491771698, -2.365307092666626, 0.294189453125, -0.19091796875, -0.916015625
311, 1802340110, -5.36521053314209, 1.7311099767684937, 8.177497863769531, -2.8355181217193604, -2.100484609603882, -2.2719998359680176, 0.295166015625, -0.19287109375, -0.910888671875
312, 1802356777, -5.312900543212891, 1.7624733448028564, 8.136058807373047, -2.725536823272705, -2.0876271724700928, -2.2419307231903076, 0.294677734375, -0.19140625, -0.909912109375
313, 1802373444, -5.335254192352295, 1.7438079118728638, 8.14268970489502, -2.736999034881592, -1.9856630563735962, -2.273447275161743, 0.296630859375, -0.19189453125, -0.910400390625
314, 1802390111, -5.3525919914245605, 1.752610445022583, 8.126276969909668, -2.728905439376831, -1.9229761362075806, -2.1793336868286133, 0.295166015625, -0.19287109375, -0.911865234375
315, 1802406778, -5.367382526397705, 1.740752935409546, 8.131153106689453, -2.7474100589752197, -2.2327229976654053, -2.1834185123443604, 0.293701171875, -0.1904296875, -0.912353515625
316, 1802423445, -5.335174560546875, 1.7581318616867065, 8.12251091003418, -2.6373651027679443, -2.4244210720062256, -2.219865322113037, 0.294189453125, -0.19384765625, -0.913818359375
317, 1802440112, -5.313706398010254, 1.7440797090530396, 8.13644027709961, -2.706096649169922, -2.529625177383423, -2.2838714122772217, 0.294189453125, -0.19140625, -0.912841796875
318, 1802456779, -5.3159990310668945, 1.7306269407272339, 8.14317798614502, -2.7480504512786865, -2.303683042526245, -2.280106544494629, 0.294189453125, -0.19091796875, -0.912841796875
319, 1802473446, -5.319945812225342, 1.736840844154358, 8.146127700805664, -2.818434238433838, -2.2833080291748047, -2.3678171634674072, 0.294189453125, -0.19140625, -0.913330078125
320, 1802490113, -5.309754848480225, 1.748793363571167, 8.125543594360352, -2.8177683353424072, -2.1734554767608643, -2.4771323204040527, 0.294189453125, -0.18994140625, -0.91455078125
321, 1802506780, -5.3113322257995605, 1.7470446825027466, 8.138912200927734, -2.8080995082855225, -2.158830404281616, -2.474583864212036, 0.295166015625, -0.18994140625, -0.913330078125
322, 1802523447, -5.318300247192383, 1.734193205833435, 8.128077507019043, -2.915621757507324, -2.140120506286621, -2.4294674396514893, 0.297607421875, -0.19140625, -0.913330078125
323, 1802540114, -5.321216583251953, 1.7311909198760986, 8.153124809265137, -2.913175582885742, -2.1650543212890625, -2.350618362426758, 0.294189453125, -0.18994140625, -0.912841796875
324, 1802556781, -5.319072246551514, 1.7568235397338867, 8.153904914855957, -2.9269299507141113, -2.228215456008911, -2.3698790073394775, 0.29248046875, -0.19140625, -0.913330078125
325, 1802573448, -5.313835144042969, 1.744054913520813, 8.157567977905273, -2.698336362838745, -2.105658531188965, -2.4526336193084717, 0.294189453125, -0.19091796875, -0.910400390625
326, 1802590115, -5.317203998565674, 1.7152822017669678, 8.141317367553711, -2.7023444175720215, -2.1119205951690674, -2.3022358417510986, 0.29296875, -0.19189453125, -0.913330078125
327, 1802606782, -5.327386856079102, 1.723556399345398, 8.128820419311523, -2.6440505981445312, -2.1593942642211914, -2.202385187149048, 0.29296875, -0.19091796875, -0.913330078125
328, 1802623449, -5.339881420135498, 1.7323740720748901, 8.163432121276855, -2.643717050552368, -2.38423490524292, -2.0669448375701904, 0.29052734375, -0.18994140625, -0.912353515625
329, 1802640116, -5.316822052001953, 1.744256854057312, 8.153048515319824, -2.673581600189209, -2.426713466644287, -2.062910556793213, 0.29345703125, -0.18896484375, -0.916015625
330, 1802656783, -5.310410022735596, 1.7355200052261353, 8.15960693359375, -2.731671094894409, -2.471266746520996, -2.1152374744415283, 0.294189453125, -0.18994140625, -0.911376953125
331, 1802673450, -5.316681861877441, 1.7278097867965698, 8.148185729980469, -2.8569815158843994, -2.4647483825683594, -2.0690832138061523, 0.291015625, -0.189208984375, -0.9140625
332, 1802690117, -5.31746768951416, 1.7317047119140625, 8.14281177520752, -2.783921241760254, -2.5527539253234863, -2.1401844024658203, 0.293212890625, -0.189453125, -0.912841796875
333, 1802706784, -5.30044412612915, 1.708983302116394, 8.13089656829834, -2.8131067752838135, -2.5411384105682373, -2.115673065185547, 0.29150390625, -0.18994140625, -0.911865234375
334, 1802723451, -5.290955543518066, 1.7304952144622803, 8.171711921691895, -2.8329310417175293, -2.4905407428741455, -2.1233952045440674, 0.291015625, -0.189208984375, -0.91357421875
335, 1802740118, -5.292141437530518, 1.7256591320037842, 8.217275619506836, -2.830306053161621, -2.324852228164673, -2.326260566711426, 0.2900390625, -0.186767578125, -0.91357421875
336, 1802756785, -5.308413028717041, 1.7114800214767456, 8.173579216003418, -2.693662166595459, -2.1282870769500732, -2.2362704277038574, 0.2919921875, -0.18896484375, -0.91357421875
337, 1802773452, -5.3155035972595215, 1.6944745779037476, 8.151165962219238, -2.680407762527466, -2.2441723346710205, -2.056187868118286, 0.291015625, -0.18994140625, -0.9140625
338, 1802790119, -5.348631381988525, 1.7246826887130737, 8.165493965148926, -2.609447956085205, -2.461380958557129, -1.8326785564422607, 0.291015625, -0.19091796875, -0.9150390625
339, 1802806786, -5.317728042602539, 1.7290936708450317, 8.122081756591797, -2.5998170375823975, -2.6740810871124268, -1.7920564413070679, 0.2890625, -0.1904296875, -0.916015625
340, 1802823453, -5.308894634246826, 1.7337826490402222, 8.16015625, -2.642641305923462, -2.820047616958618, -1.9501380920410156, 0.2919921875, -0.18994140625, -0.91357421875
341, 1802840120, -5.305513381958008, 1.7146860361099243, 8.184561729431152, -2.744004011154175, -3.0135135650634766, -1.7250410318374634, 0.2880859375, -0.189208984375, -0.916015625
342, 1802856787, -5.319563865661621, 1.7000083923339844, 8.179728507995605, -2.6695990562438965, -3.0207746028900146, -1.641953468322754, 0.2900390625, -0.188720703125, -0.9150390625
343, 1802873454, -5.28167724609375, 1.7532026767730713, 8.142390251159668, -2.8746161460876465, -3.297187328338623, -1.5726840496063232, 0.2880859375, -0.187744140625, -0.91455078125
344, 1802890121, -5.176219940185547, 1.7719273567199707, 8.165932655334473, -3.0180089473724365, -3.068312168121338, -1.9253710508346558, 0.287353515625, -0.188720703125, -0.9140625
345, 1802906788, -5.22327995300293, 1.7232974767684937, 8.184610366821289, -3.080747365951538, -2.5763180255889893, -2.2748050689697266, 0.2880859375, -0.187744140625, -0.9150390625
346, 1802923455, -5.2428741455078125, 1.6898633241653442, 8.19216251373291, -2.8863718509674072, -2.232889413833618, -2.196967840194702, 0.287353515625, -0.186767578125, -0.91650390625
347, 1802940122, -5.291661262512207, 1.7034718990325928, 8.192092895507812, -2.7098753452301025, -2.0309081077575684, -2.0638587474823, 0.2890625, -0.189697265625, -0.9169921875
348, 1802956789, -5.2761688232421875, 1.7190696001052856, 8.169951438903809, -2.6491219997406006, -2.1969168186187744, -1.9075700044631958, 0.287353515625, -0.188232421875, -0.91650390625
349, 1802973456, -5.226090431213379, 1.7224693298339844, 8.154325485229492, -2.5946052074432373, -2.2498326301574707, -1.9376521110534668, 0.287353515625, -0.187255859375, -0.9150390625
350, 1802990123, -5.214377403259277, 1.7299712896347046, 8.207523345947266, -2.6922922134399414, -1.9967150688171387, -2.159432888031006, 0.28857421875, -0.189697265625, -0.91357421875
351, 1803006790, -5.23873233795166, 1.7066106796264648, 8.19136905670166, -2.515026330947876, -1.6316571235656738, -2.1639275550842285, 0.28857421875, -0.188232421875, -0.916015625
352, 1803023457, -5.2829484939575195, 1.7051441669464111, 8.20166015625, -2.302645683288574, -1.4706299304962158, -2.122063398361206, 0.28759765625, -0.189697265625, -0.9140625
353, 1803040124, -5.272592544555664, 1.7128803730010986, 8.176664352416992, -2.2793257236480713, -1.543344497680664, -2.192242383956909, 0.284912109375, -0.189208984375, -0.9150390625
354, 1803056791, -5.2816162109375, 1.7109273672103882, 8.188918113708496, -2.157332181930542, -1.5176037549972534, -2.095925807952881, 0.286865234375, -0.188720703125, -0.91552734375
355, 1803073458, -5.279814720153809, 1.7188611030578613, 8.178192138671875, -2.212937116622925, -1.616250991821289, -2.0496561527252197, 0.28759765625, -0.186767578125, -0.9130859375
356, 1803090125, -5.270726680755615, 1.693228840827942, 8.177617073059082, -1.9907728433609009, -1.6524546146392822, -1.9238722324371338, 0.284912109375, -0.188720703125, -0.9140625
357, 1803106792, -5.255667686462402, 1.7226735353469849, 8.173482894897461, -1.931722640991211, -1.5622209310531616, -1.8941105604171753, 0.287353515625, -0.187744140625, -0.91552734375
358, 1803123459, -5.244045257568359, 1.7164493799209595, 8.198379516601562, -1.9181479215621948, -1.3493282794952393, -1.8611469268798828, 0.286376953125, -0.190185546875, -0.916015625
359, 1803140126, -5.248082160949707, 1.7367035150527954, 8.201886177062988, -1.7721940279006958, -1.1486527919769287, -1.8443320989608765, 0.287841796875, -0.19091796875, -0.91748046875
360, 1803156793, -5.255892753601074, 1.7296003103256226, 8.186359405517578, -1.7320971488952637, -1.0549358129501343, -1.8813295364379883, 0.286865234375, -0.190185546875, -0.91650390625
361, 1803173460, -5.274691104888916, 1.7102354764938354, 8.186750411987305, -1.836456060409546, -1.1091195344924927, -1.8235727548599243, 0.28857421875, -0.188720703125, -0.91650390625
362, 1803190127, -5.286505222320557, 1.744150161743164, 8.167510986328125, -1.8361873626708984, -1.1877379417419434, -1.791480302810669, 0.286865234375, -0.1923828125, -0.91552734375
363, 1803206794, -5.300039291381836, 1.7417216300964355, 8.160725593566895, -1.937139868736267, -1.4791463613510132, -1.8579455614089966, 0.28857421875, -0.189208984375, -0.9140625
364, 1803223461, -5.282279968261719, 1.7402801513671875, 8.166078567504883, -2.1094748973846436, -1.670549750328064, -1.8322430849075317, 0.28857421875, -0.19091796875, -0.91650390625
365, 1803240128, -5.2588419914245605, 1.7488468885421753, 8.167216300964355, -2.1990163326263428, -1.6008960008621216, -1.8535910844802856, 0.2890625, -0.18994140625, -0.916015625
366, 1803256795, -5.260874271392822, 1.743897557258606, 8.19311237335205, -2.079815149307251, -1.5134543180465698, -1.8581500053405762, 0.285888671875, -0.189208984375, -0.9130859375
367, 1803273462, -5.268879413604736, 1.7490497827529907, 8.177507400512695, -2.1865174770355225, -1.548940658569336, -1.844050407409668, 0.28759765625, -0.19287109375, -0.91455078125
368, 1803290129, -5.27557897567749, 1.746020793914795, 8.197173118591309, -2.2275493144989014, -1.5878463983535767, -1.8845055103302002, 0.2880859375, -0.189208984375, -0.911865234375
369, 1803306796, -5.296658039093018, 1.722523808479309, 8.159828186035156, -2.248603105545044, -1.6755445003509521, -1.8268771171569824, 0.28759765625, -0.1904296875, -0.9150390625
370, 1803323463, -5.288708209991455, 1.7211898565292358, 8.157088279724121, -2.1836490631103516, -1.7674936056137085, -1.8106769323349, 0.287353515625, -0.19140625, -0.91650390625
371, 1803340130, -5.208349704742432, 1.7663747072219849, 8.199800491333008, -2.1748383045196533, -1.6390204429626465, -1.864783763885498, 0.287353515625, -0.1904296875, -0.9140625
372, 1803356797, -5.244457721710205, 1.7447317838668823, 8.153167724609375, -2.0526657104492188, -1.3864538669586182, -2.00612735748291, 0.286865234375, -0.1904296875, -0.9140625
373, 1803373464, -5.2771172523498535, 1.7114309072494507, 8.14053726196289, -1.9671450853347778, -1.271055817604065, -1.9303395748138428, 0.286865234375, -0.189208984375, -0.91455078125
374, 1803390131, -5.294649124145508, 1.7001087665557861, 8.139472007751465, -1.6913602352142334, -1.334357500076294, -1.7388333082199097, 0.28857421875, -0.19189453125, -0.91357421875
375, 1803406798, -5.268627166748047, 1.7193232774734497, 8.19194507598877, -1.510419249534607, -1.3697926998138428, -1.5146580934524536, 0.287353515625, -0.19482421875, -0.91552734375
376, 1803423465, -5.25802755355835, 1.741249918937683, 8.192896842956543, -1.196535587310791, -1.2205733060836792, -1.5290781259536743, 0.2880859375, -0.1943359375, -0.9130859375
377, 1803440132, -5.1778950691223145, 1.7864909172058105, 8.221190452575684, -0.8749811053276062, -0.952984631061554, -1.912385106086731, 0.2880859375, -0.18994140625, -0.91552734375
378, 1803456799, -5.248484134674072, 1.7198855876922607, 8.205988883972168, -0.9019383192062378, -0.7074483036994934, -2.514975070953369, 0.2880859375, -0.19287109375, -0.91455078125
379, 1803473466, -5.313782691955566, 1.6997319459915161, 8.167134284973145, -1.0211527347564697, -0.8333220481872559, -2.5860886573791504, 0.2890625, -0.1923828125, -0.91357421875
380, 1803490133, -5.3011016845703125, 1.723028302192688, 8.151305198669434, -0.5581391453742981, -0.591102659702301, -2.164849281311035, 0.2890625, -0.19189453125, -0.91455078125
381, 1803506800, -5.3250041007995605, 1.732839584350586, 8.140849113464355, 0.02762969769537449, -0.3355647921562195, -1.5863608121871948, 0.2890625, -0.19287109375, -0.91357421875
382, 1803523467, -5.293995380401611, 1.7478643655776978, 8.188868522644043, 0.868712306022644, 0.15872828662395477, -1.002148151397705, 0.2900390625, -0.19384765625, -0.912353515625
383, 1803540134, -5.2487053871154785, 1.7897448539733887, 8.097616195678711, 1.1395665407180786, 0.4829978346824646, -0.6709502339363098, 0.28857421875, -0.1953125, -0.911865234375
384, 1803556801, -5.294098854064941, 1.7793011665344238, 8.09415054321289, 1.1332275867462158, 0.5676094889640808, -0.3498951196670532, 0.2890625, -0.197021484375, -0.911865234375
385, 1803573468, -5.279543399810791, 1.8307805061340332, 8.082210540771484, 0.9988760948181152, 0.3025820553302765, -0.3400726020336151, 0.291015625, -0.199462890625, -0.912841796875
386, 1803590135, -5.265110492706299, 1.83013117313385, 8.105713844299316, 0.730787992477417, -0.11252939701080322, -0.13234083354473114, 0.291015625, -0.199462890625, -0.913330078125
387, 1803606802, -5.267113208770752, 1.920165777206421, 8.098943710327148, 0.35220661759376526, -0.4315611720085144, -0.5238949656486511, 0.29150390625, -0.200439453125, -0.910888671875
388, 1803623469, -5.3174614906311035, 1.8627941608428955, 8.076896667480469, 0.0794057697057724, -1.2867562770843506, -1.1644428968429565, 0.2919921875, -0.200439453125, -0.912353515625
389, 1803640136, -5.327744483947754, 1.7522674798965454, 8.075032234191895, 0.47898948192596436, -1.8530659675598145, -0.4818645119667053, 0.2919921875, -0.200927734375, -0.911376953125
390, 1803656803, -5.298038005828857, 1.8145291805267334, 8.112639427185059, 0.13287225365638733, -1.3633382320404053, 0.4914756119251251, 0.292724609375, -0.20166015625, -0.90966796875
391, 1803673470, -5.289031982421875, 1.9300057888031006, 8.115002632141113, 1.1209334135055542, -1.2583264112472534, 0.5687620043754578, 0.29052734375, -0.2041015625, -0.910400390625
392, 1803690137, -5.32335090637207, 2.056281328201294, 8.111303329467773, 0.07147864252328873, -1.467287540435791, -0.12171155959367752, 0.292236328125, -0.203125, -0.90966796875
393, 1803706804, -5.320559024810791, 2.0533299446105957, 8.102182388305664, -1.2864232063293457, -2.161327362060547, -1.3407862186431885, 0.292236328125, -0.2041015625, -0.910400390625
394, 1803723471, -5.267383575439453, 1.8595584630966187, 8.196115493774414, -1.8959288597106934, -2.2126169204711914, -1.877090573310852, 0.2900390625, -0.20556640625, -0.909912109375
395, 1803740138, -5.357295036315918, 1.7426131963729858, 8.16382884979248, -1.837749719619751, -1.687211036682129, -1.3463187217712402, 0.29150390625, -0.20654296875, -0.90869140625
396, 1803756805, -5.409139633178711, 1.7965668439865112, 8.132769584655762, -1.5059114694595337, -2.0156168937683105, -0.775898277759552, 0.291748046875, -0.205078125, -0.9072265625
397, 1803773472, -5.318752288818359, 1.9827280044555664, 8.113861083984375, -1.9391758441925049, -2.674170732498169, -0.6894426345825195, 0.2900390625, -0.20458984375, -0.910888671875
398, 1803790139, -5.234662055969238, 2.0578222274780273, 8.218810081481934, -2.7319278717041016, -2.4504315853118896, -1.636767029762268, 0.292236328125, -0.20556640625, -0.910400390625
399, 1803806806, -5.193943977355957, 1.8282227516174316, 8.25117015838623, -2.7508556842803955, -1.3249579668045044, -2.4182236194610596, 0.2890625, -0.20556640625, -0.910400390625
400, 1803823473, -5.281129837036133, 1.742775559425354, 8.223502159118652, -1.9541209936141968, 0.08927948772907257, -2.454491138458252, 0.28955078125, -0.2041015625, -0.912841796875
401, 1803840140, -5.357595443725586, 1.751295804977417, 8.141501426696777, -1.021677851676941, 0.2607821226119995, -2.201834201812744, 0.293212890625, -0.207275390625, -0.91015625
402, 1803856807, -5.382184982299805, 1.8943160772323608, 8.111960411071777, -0.534114420413971, -0.08755701035261154, -1.958346962928772, 0.292236328125, -0.207763671875, -0.908203125
403, 1803873474, -5.330081939697266, 1.987457036972046, 8.112161636352539, -0.6155627369880676, -0.5249706506729126, -1.9209139347076416, 0.2919921875, -0.20703125, -0.9091796875
404, 1803890141, -5.30237340927124, 2.032048225402832, 8.107942581176758, -1.0143654346466064, -0.34534886479377747, -2.055086374282837, 0.292724609375, -0.209228515625, -0.9111328125
405, 1803906808, -5.209047317504883, 2.0357117652893066, 8.149944305419922, -1.5167968273162842, 0.061950717121362686, -2.535580635070801, 0.29150390625, -0.208740234375, -0.91015625
406, 1803923475, -5.180418014526367, 1.9558417797088623, 8.120112419128418, -1.6250362396240234, 1.1143637895584106, -3.0704505443573, 0.29248046875, -0.208251953125, -0.911376953125
407, 1803940142, -5.211464881896973, 1.9221479892730713, 8.083325386047363, -1.9674270153045654, 1.6805965900421143, -3.758612632751465, 0.2919921875, -0.207275390625, -0.910400390625
408, 1803956809, -5.270143508911133, 1.9344102144241333, 8.05871295928955, -2.3705577850341797, 1.4340487718582153, -4.121339321136475, 0.296142578125, -0.207763671875, -0.91015625
409, 1803973476, -5.31968879699707, 2.017446756362915, 8.03659725189209, -3.1763975620269775, 0.5910066962242126, -5.092471122741699, 0.296142578125, -0.2060546875, -0.9111328125
410, 1803990143, -5.325693130493164, 2.0029938220977783, 8.00311279296875, -4.456802845001221, -0.607328474521637, -6.238870143890381, 0.29833984375, -0.205322265625, -0.91015625
411, 1804006810, -5.35609245300293, 1.9124846458435059, 8.089526176452637, -5.303930759429932, -1.699249505996704, -7.079672813415527, 0.297607421875, -0.205078125, -0.90966796875
412, 1804023477, -5.342726707458496, 1.8320237398147583, 8.060669898986816, -5.266715049743652, -1.3261618614196777, -6.74282693862915, 0.298828125, -0.205810546875, -0.9091796875
413, 1804040144, -5.320655345916748, 1.847135066986084, 8.125720024108887, -4.78056001663208, -1.0271462202072144, -6.790209770202637, 0.29833984375, -0.2021484375, -0.90966796875
414, 1804056811, -5.257044315338135, 1.7074859142303467, 8.13261890411377, -4.129907608032227, 0.655794084072113, -6.717443943023682, 0.30078125, -0.19970703125, -0.9111328125
415, 1804073478, -5.1899919509887695, 1.751341462135315, 8.184430122375488, -2.9258029460906982, 3.37640118598938, -6.706827163696289, 0.29931640625, -0.2021484375, -0.9091796875
416, 1804090145, -5.230128288269043, 1.8430317640304565, 8.201451301574707, -0.6740880012512207, 8.553343772888184, -7.1693549156188965, 0.304931640625, -0.2001953125, -0.90869140625
417, 1804106812, -5.245561122894287, 1.871959924697876, 8.148482322692871, -0.5539646148681641, 11.009491920471191, -8.897614479064941, 0.308349609375, -0.19970703125, -0.907958984375
418, 1804123479, -5.21623420715332, 1.9304122924804688, 8.113595008850098, -0.1435081511735916, 15.78199577331543, -11.137747764587402, 0.3134765625, -0.201416015625, -0.907470703125
419, 1804140146, -5.212086200714111, 2.154343843460083, 8.184759140014648, -0.28961631655693054, 22.47956085205078, -15.296609878540039, 0.3203125, -0.200439453125, -0.904296875
420, 1804156813, -5.29344367980957, 2.019808530807495, 8.223901748657227, 1.3762346506118774, 30.385295867919922, -21.22109603881836, 0.327392578125, -0.199462890625, -0.901611328125
421, 1804173480, -5.029062747955322, 2.0003836154937744, 8.600625991821289, 3.8603811264038086, 38.386661529541016, -25.388469696044922, 0.339599609375, -0.198486328125, -0.89794921875
422, 1804190147, -5.248305320739746, 1.589539885520935, 8.443913459777832, 5.134644031524658, 51.51661682128906, -25.78820037841797, 0.35400390625, -0.1982421875, -0.89111328125
423, 1804206814, -5.192970275878906, 1.4495445489883423, 8.554695129394531, 7.820538520812988, 70.49818420410156, -24.29845428466797, 0.3720703125, -0.196044921875, -0.883544921875
424, 1804223481, -5.270462512969971, 1.7256609201431274, 8.672375679016113, 12.018126487731934, 94.54988861083984, -25.006776809692383, 0.3935546875, -0.1982421875, -0.87451171875
425, 1804240148, -5.51843786239624, 2.1075236797332764, 8.38998031616211, 17.244373321533203, 124.84503936767578, -31.3048095703125, 0.42822265625, -0.19970703125, -0.858154296875
426, 1804256815, -5.718062400817871, 2.21073579788208, 8.551554679870605, 22.351919174194336, 161.19293212890625, -41.2769775390625, 0.4638671875, -0.2001953125, -0.83740234375
427, 1804273482, -5.851161479949951, 2.336061477661133, 9.16442584991455, 18.572233200073242, 199.3765106201172, -52.080318450927734, 0.51611328125, -0.1982421875, -0.81005859375
428, 1804290149, -5.928914546966553, 2.0745794773101807, 7.894838333129883, 6.139609336853027, 246.82577514648438, -67.2641372680664, 0.57470703125, -0.191650390625, -0.772216796875
429, 1804306816, -6.346773624420166, 2.8636763095855713, 8.148971557617188, -2.7295587062835693, 300.4341125488281, -97.9841079711914, 0.642822265625, -0.174072265625, -0.720947265625
430, 1804323483, -7.604931354522705, 2.393479824066162, 8.318073272705078, -22.089801788330078, 347.05303955078125, -131.1768798828125, 0.718505859375, -0.145751953125, -0.656494140625
431, 1804340150, -11.938947677612305, 5.237461566925049, 10.139853477478027, -39.7015495300293, 378.758056640625, -155.4292755126953, 0.79443359375, -0.104248046875, -0.578857421875
432, 1804356817, -14.928821563720703, 4.56266975402832, 9.62271785736084, -45.85969543457031, 381.5338134765625, -173.58230590820312, 0.85986328125, -0.0576171875, -0.4873046875
433, 1804373484, -20.749460220336914, 5.684999465942383, 11.76489543914795, -29.624784469604492, 364.42138671875, -168.06063842773438, 0.9150390625, -0.007568359375, -0.393798828125
434, 1804390151, -18.719234466552734, 5.730197429656982, 14.386171340942383, -37.593570709228516, 330.6050720214844, -171.88473510742188, 0.9541015625, 0.04150390625, -0.30078125
435, 1804406818, -13.420948028564453, 5.852163791656494, 13.560869216918945, -43.53584289550781, 284.132080078125, -164.64987182617188, 0.975341796875, 0.0947265625, -0.217529296875
436, 1804423485, -5.336694717407227, 5.308647155761719, 13.116705894470215, -44.28514099121094, 240.743408203125, -154.71131896972656, 0.98681640625, 0.141845703125, -0.146484375
437, 1804440152, -11.275976181030273, 5.396214485168457, 9.517165184020996, -28.98978614807129, 279.4703063964844, -128.06103515625, 0.99267578125, 0.181640625, -0.0673828125
438, 1804456819, -21.914531707763672, 11.65806770324707, 23.03453826904297, 14.109213829040527, 122.95349884033203, -47.77907180786133, 0.991943359375, 0.20068359375, -0.0224609375
439, 1804473486, -11.931452751159668, 11.469034194946289, 19.578643798828125, -13.46599006652832, -54.19586181640625, 7.810725212097168, 0.991943359375, 0.202392578125, -0.026123046875
440, 1804490153, -3.901686429977417, 7.227023124694824, 13.013343811035156, -36.607872009277344, -138.31884765625, 46.311279296875, 0.990478515625, 0.189697265625, -0.059814453125
441, 1804506820, -0.6570125222206116, 4.2708539962768555, 9.023126602172852, -26.98428726196289, -156.19371032714844, 70.1718978881836, 0.988037109375, 0.170654296875, -0.102294921875
442, 1804523487, -0.6005727052688599, 2.8628411293029785, 7.982480525970459, -6.502356052398682, -155.7463836669922, 86.02386474609375, 0.986328125, 0.146728515625, -0.1455078125
443, 1804540154, -2.7891006469726562, 2.5417168140411377, 8.86776351928711, 2.862826108932495, -160.8187713623047, 97.28192901611328, 0.981201171875, 0.1201171875, -0.189453125
444, 1804556821, -5.781092643737793, 2.594289541244507, 9.941452026367188, -5.000838756561279, -186.804931640625, 103.65644836425781, 0.9716796875, 0.0888671875, -0.237548828125
445, 1804573488, -7.473403453826904, 1.8371754884719849, 10.500170707702637, -15.95333480834961, -230.62049865722656, 111.7258071899414, 0.955078125, 0.05859375, -0.29638671875
446, 1804590155, -7.393907070159912, 0.5352000594139099, 9.679622650146484, -13.41745662689209, -270.9237365722656, 125.77206420898438, 0.930908203125, 0.024169921875, -0.36767578125
447, 1804606822, -7.292473793029785, -0.2549230754375458, 8.974360466003418, -1.3054388761520386, -293.7904052734375, 138.0064697265625, 0.8935546875, -0.014892578125, -0.444091796875
448, 1804623489, -7.792679786682129, -0.5227248668670654, 8.856461524963379, 3.973176956176758, -304.9455261230469, 139.56375122070312, 0.849609375, -0.0517578125, -0.5166015625
449, 1804640156, -8.454080581665039, -0.9718894958496094, 9.219453811645508, 2.8027026653289795, -311.7547912597656, 130.2276153564453, 0.794677734375, -0.0859375, -0.586669921875
450, 1804656823, -9.818443298339844, -1.3676624298095703, 10.163166046142578, 8.175362586975098, -319.45501708984375, 117.86995697021484, 0.729736328125, -0.115966796875, -0.656005859375
451, 1804673490, -11.094696998596191, -1.2408638000488281, 10.998186111450195, 19.641067504882812, -331.1099853515625, 104.71304321289062, 0.65869140625, -0.14501953125, -0.72021484375
452, 1804690157, -11.697676658630371, -1.2810354232788086, 11.183148384094238, 33.2386360168457, -339.0043029785156, 90.16522979736328, 0.580078125, -0.170166015625, -0.779541015625
453, 1804706824, -12.651632308959961, -1.5138148069381714, 11.712740898132324, 51.07258987426758, -334.83807373046875, 72.39065551757812, 0.494873046875, -0.197509765625, -0.826171875
454, 1804723491, -15.43696117401123, -1.0939098596572876, 13.881794929504395, 74.05937957763672, -331.1861572265625, 52.38398742675781, 0.407470703125, -0.223876953125, -0.861328125
455, 1804740158, -20.08639907836914, 0.6377035975456238, 16.747453689575195, 95.52542877197266, -346.6878662109375, 37.46942901611328, 0.31689453125, -0.255859375, -0.89013671875
456, 1804756825, -25.100841522216797, 2.3545336723327637, 16.768205642700195, 107.61849212646484, -379.0508728027344, 35.1372184753418, 0.217529296875, -0.28955078125, -0.9091796875
457, 1804773492, -27.901601791381836, 4.168705940246582, 11.813638687133789, 108.97110748291016, -400.1346130371094, 43.34415054321289, 0.106201171875, -0.324462890625, -0.916259765625
458, 1804790159, -28.6831111907959, 5.167698860168457, 3.0789005756378174, 99.79389190673828, -376.71881103515625, 52.57220458984375, -0.00341796875, -0.354736328125, -0.908203125
459, 1804806826, -30.19826889038086, -1.1752456426620483, -7.099184036254883, 111.18785858154297, -286.9208984375, 75.40579986572266, -0.095947265625, -0.3837890625, -0.890869140625
460, 1804823493, -38.237571716308594, -15.581744194030762, -19.388525009155273, 173.4092559814453, -165.80465698242188, 119.07635498046875, -0.1611328125, -0.423095703125, -0.864990234375
461, 1804840160, -32.6379280090332, -15.1634521484375, -22.51352882385254, 118.679443359375, -14.409575462341309, 105.36209869384766, -0.192626953125, -0.45751953125, -0.84521484375
462, 1804856827, -25.350357055664062, -9.42502212524414, -11.317217826843262, -95.9542465209961, 115.63896942138672, -56.91701126098633, -0.16650390625, -0.44384765625, -0.857177734375
463, 1804873494, -24.99380874633789, -5.746432781219482, 2.1343984603881836, -115.30848693847656, 120.82589721679688, -118.18412017822266, -0.118896484375, -0.416015625, -0.8740234375
464, 1804890161, 1.4446830749511719, 14.00253677368164, 19.832263946533203, -103.29029846191406, 119.86180114746094, -99.09666442871094, -0.076171875, -0.396484375, -0.8916015625
465, 1804906828, 7.138212203979492, 9.99127197265625, 5.036986351013184, -110.47346496582031, 131.50180053710938, -104.27120208740234, -0.036865234375, -0.369140625, -0.902587890625
466, 1804923495, -7.897050857543945, -3.349247694015503, 7.534071922302246, -96.88478088378906, 247.76962280273438, -28.396129608154297, 0.03173828125, -0.33837890625, -0.9150390625
467, 1804940162, -15.469626426696777, -8.902504920959473, 16.604232788085938, -62.85375213623047, 222.42881774902344, -9.044639587402344, 0.09716796875, -0.316650390625, -0.915771484375
468, 1804956829, -11.607645988464355, -7.479869365692139, 14.905058860778809, -48.36409378051758, 157.7645721435547, -98.00222778320312, 0.151123046875, -0.300048828125, -0.914794921875
469, 1804973496, -10.589570045471191, 7.5196967124938965, 9.40335464477539, -41.622642517089844, 125.08226776123047, -82.07542419433594, 0.196044921875, -0.285888671875, -0.912109375
470, 1804990163, -7.544281005859375, 6.13533353805542, 8.232646942138672, -59.64402770996094, 125.55077362060547, -36.72806930541992, 0.232421875, -0.267333984375, -0.908203125
471, 1805006830, -18.33222007751465, 0.04419119656085968, 17.520645141601562, -83.93354034423828, 41.143062591552734, -48.075439453125, 0.258056640625, -0.243408203125, -0.907958984375
472, 1805023497, -8.216124534606934, 2.696885347366333, 8.278385162353516, -44.81202697753906, -4.796433925628662, -26.66486930847168, 0.25830078125, -0.22412109375, -0.91162109375
473, 1805040164, -5.411944389343262, 0.4814192056655884, 9.114375114440918, -31.440139770507812, -10.29154109954834, -18.78437042236328, 0.260009765625, -0.2158203125, -0.915283203125
474, 1805056831, -6.206751346588135, 1.2607896327972412, 8.701699256896973, -20.19818878173828, -7.644508361816406, -9.698280334472656, 0.2568359375, -0.208251953125, -0.9169921875
475, 1805073498, -4.756121635437012, 1.5177769660949707, 8.64675235748291, -11.278046607971191, -1.668796420097351, -6.687710762023926, 0.2578125, -0.207763671875, -0.915283203125
476, 1805090165, -4.642340183258057, 0.08324319869279861, 8.650885581970215, 0.499300479888916, 6.891834259033203, -1.44111168384552, 0.259521484375, -0.206787109375, -0.916259765625
477, 1805106832, -4.875701427459717, 0.8336387872695923, 8.55781078338623, 10.342164993286133, 11.814116477966309, 3.2803168296813965, 0.262451171875, -0.209228515625, -0.915771484375
478, 1805123499, -5.126598834991455, 1.226868748664856, 8.415135383605957, 15.208287239074707, 14.523762702941895, 4.891655445098877, 0.2646484375, -0.21337890625, -0.9140625
479, 1805140166, -5.13707971572876, 2.0617926120758057, 8.211926460266113, 16.6830997467041, 15.289484977722168, 4.312309265136719, 0.270751953125, -0.219482421875, -0.910888671875
480, 1805156833, -5.196488380432129, 2.494964361190796, 8.061288833618164, 15.187950134277344, 14.653324127197266, 2.499297618865967, 0.275390625, -0.2236328125, -0.90625
481, 1805173500, -5.39847469329834, 2.4285929203033447, 8.081679344177246, 11.7779541015625, 12.426314353942871, -0.08604595065116882, 0.2783203125, -0.228759765625, -0.9091796875
482, 1805190167, -5.421426296234131, 2.109079122543335, 8.113536834716797, 8.825968742370605, 9.199094772338867, -1.4114526510238647, 0.282470703125, -0.23291015625, -0.903076171875
483, 1805206834, -5.32988166809082, 2.0057878494262695, 8.098766326904297, 6.360525131225586, 7.136615753173828, -1.6645057201385498, 0.28662109375, -0.234619140625, -0.902587890625
484, 1805223501, -5.165885925292969, 1.9659489393234253, 8.068373680114746, 5.227007865905762, 5.483532428741455, -1.586783766746521, 0.284912109375, -0.238525390625, -0.904541015625
485, 1805240168, -5.139763832092285, 2.129617691040039, 8.006113052368164, 4.244401931762695, 4.940619945526123, -1.956375002861023, 0.2880859375, -0.238525390625, -0.90087890625
486, 1805256835, -5.104222297668457, 2.071122884750366, 8.018973350524902, 3.2686614990234375, 5.3011579513549805, -3.1602494716644287, 0.290283203125, -0.24169921875, -0.900390625
487, 1805273502, -5.019181251525879, 1.985037922859192, 8.114632606506348, 4.367984771728516, 6.093513011932373, -5.111489772796631, 0.290771484375, -0.24267578125, -0.89990234375
488, 1805290169, -4.7110748291015625, 2.274782657623291, 8.253265380859375, 5.029011249542236, 7.217694282531738, -7.453824996948242, 0.29638671875, -0.2412109375, -0.899169921875
489, 1805306836, -4.944799900054932, 2.28045916557312, 8.107816696166992, 5.009585857391357, 10.727715492248535, -10.302665710449219, 0.29833984375, -0.242431640625, -0.897216796875
490, 1805323503, -5.145467281341553, 2.223466157913208, 8.112088203430176, 5.571981430053711, 15.577045440673828, -12.480498313903809, 0.305908203125, -0.24609375, -0.89453125
491, 1805340170, -5.23444128036499, 1.9624624252319336, 8.288451194763184, 8.343634605407715, 23.01063346862793, -13.99892807006836, 0.313232421875, -0.24560546875, -0.890869140625
492, 1805356837, -5.33817195892334, 1.8861538171768188, 8.295662879943848, 14.70262622833252, 35.41046905517578, -17.299732208251953, 0.323486328125, -0.249267578125, -0.890625
493, 1805373504, -4.770824909210205, 2.041785717010498, 8.869428634643555, 26.993427276611328, 53.08547592163086, -23.681474685668945, 0.336181640625, -0.25341796875, -0.8837890625
494, 1805390171, -4.50370979309082, 1.1387392282485962, 9.378911018371582, 23.88438606262207, 81.07820129394531, -20.598384857177734, 0.357666015625, -0.2578125, -0.8720703125
495, 1805406838, -4.253974437713623, 1.7061296701431274, 9.836297035217285, 34.131736755371094, 128.0990753173828, -18.23478126525879, 0.386474609375, -0.263427734375, -0.8564453125
496, 1805423505, -4.380372047424316, 2.9219746589660645, 9.809321403503418, 41.567481994628906, 186.83230590820312, -33.24293518066406, 0.4306640625, -0.27294921875, -0.835205078125
497, 1805440172, -4.471930980682373, 3.5964772701263428, 9.360011100769043, 39.44852828979492, 255.59693908691406, -57.71302795410156, 0.4921875, -0.27392578125, -0.799072265625
498, 1805456839, -4.681799411773682, 4.642950057983398, 10.176095008850098, 21.207191467285156, 335.24676513671875, -91.74054718017578, 0.57177734375, -0.266357421875, -0.750244140625
499, 1805473506, -5.250360012054443, 4.441837310791016, 9.439728736877441, -11.302897453308105, 439.0224304199219, -144.44723510742188, 0.667724609375, -0.2431640625, -0.676513671875
500, 1805490173, -10.68337345123291, 7.474319934844971, 13.555740356445312, -33.50705337524414, 539.9718627929688, -217.05665588378906, 0.779541015625, -0.196044921875, -0.566650390625
501, 1805506840, -18.96674156188965, 9.296530723571777, 15.967348098754883, -27.370176315307617, 585.5823974609375, -255.9430389404297, 0.87841796875, -0.1279296875, -0.43115234375
502, 1805523507, -30.071638107299805, 10.110076904296875, 19.306915283203125, -18.837377548217773, 538.8787841796875, -261.69818115234375, 0.953125, -0.05322265625, -0.285400390625
503, 1805540174, -27.41253662109375, 12.695926666259766, 24.037260055541992, 1.1079673767089844, 430.1078796386719, -229.9198455810547, 0.99072265625, 0.013671875, -0.15576171875
504, 1805556841, -6.4846038818359375, 13.29019832611084, 21.877885818481445, -24.905029296875, 306.8841552734375, -220.575927734375, 1.00244140625, 0.0771484375, -0.0615234375
505, 1805573508, -10.558533668518066, 9.827508926391602, 14.126931190490723, -87.01771545410156, 381.0559997558594, -222.55511474609375, 1.000244140625, 0.14501953125, 0.044921875
506, 1805590175, -28.313295364379883, 14.767763137817383, 34.0401725769043, -5.303162097930908, 87.4012222290039, -63.77162551879883, 0.991455078125, 0.175537109375, 0.09326171875
507, 1805606842, -9.788661003112793, 13.642521858215332, 24.294044494628906, -5.03238582611084, -180.11590576171875, 40.44562911987305, 0.995361328125, 0.16943359375, 0.054931640625
508, 1805623509, 0.5903235673904419, 6.892610549926758, 12.014542579650879, -39.53123092651367, -258.7851257324219, 63.97157287597656, 0.99755859375, 0.14990234375, -0.012451171875
509, 1805640176, 3.0981202125549316, 2.150441884994507, 6.647430896759033, -24.928762435913086, -256.2971496582031, 72.01472473144531, 0.994873046875, 0.129638671875, -0.083984375
510, 1805656843, 2.740124464035034, 0.5996412038803101, 5.044622898101807, 15.443785667419434, -232.35777282714844, 94.05277252197266, 0.98828125, 0.10302734375, -0.14892578125
511, 1805673510, -0.4281991720199585, 1.970383882522583, 5.886593818664551, 26.492420196533203, -214.1171417236328, 106.71045684814453, 0.97802734375, 0.0703125, -0.213623046875
512, 1805690177, -4.508714199066162, 2.789991617202759, 7.892132759094238, -0.9485063552856445, -226.6829071044922, 105.34141540527344, 0.9609375, 0.039794921875, -0.272705078125
513, 1805706844, -7.481050491333008, 2.0321760177612305, 9.24462604522705, -29.081283569335938, -266.92864990234375, 107.05938720703125, 0.936279296875, 0.01025390625, -0.3408203125
514, 1805723511, -8.693273544311523, 0.8930894732475281, 9.156146049499512, -31.11441421508789, -312.1915283203125, 119.519775390625, 0.90185546875, -0.017578125, -0.421875
515, 1805740178, -9.135146141052246, 0.6768399477005005, 8.562170028686523, -18.035614013671875, -344.4523010253906, 131.7124786376953, 0.853271484375, -0.048583984375, -0.50634765625
516, 1805756845, -9.531773567199707, 0.9479576945304871, 8.140800476074219, -9.618967056274414, -364.3777770996094, 133.81591796875, 0.79052734375, -0.082275390625, -0.5908203125
517, 1805773512, -10.239325523376465, 1.0335261821746826, 8.368212699890137, -1.6918073892593384, -373.5585021972656, 130.5602264404297, 0.719482421875, -0.11181640625, -0.66943359375
518, 1805790179, -11.615071296691895, 1.416562557220459, 9.327214241027832, 10.298881530761719, -376.1025085449219, 127.96295166015625, 0.634033203125, -0.142578125, -0.7412109375
519, 1805806846, -12.608053207397461, 1.3213224411010742, 9.922903060913086, 27.23274040222168, -374.88861083984375, 127.10787200927734, 0.543212890625, -0.17236328125, -0.800048828125
520, 1805823513, -14.496909141540527, 1.6011435985565186, 11.743148803710938, 50.356422424316406, -356.2882385253906, 119.3600845336914, 0.44775390625, -0.20556640625, -0.845703125
521, 1805840180, -21.31243896484375, 3.37371563911438, 15.990169525146484, 66.65492248535156, -342.50262451171875, 101.3983383178711, 0.353515625, -0.23681640625, -0.880126953125
522, 1805856847, -32.00302505493164, 3.090075731277466, 19.59804344177246, 91.97698211669922, -368.84454345703125, 99.44773864746094, 0.251708984375, -0.269287109375, -0.90625
523, 1805873514, -39.92412185668945, 3.4716882705688477, 14.253535270690918, 125.35234832763672, -436.1651611328125, 114.2768783569336, 0.1318359375, -0.31201171875, -0.915771484375
524, 1805890181, -38.39038848876953, 2.8865506649017334, -1.9863739013671875, 139.17361450195312, -449.2469787597656, 116.8012924194336, -0.00439453125, -0.3505859375, -0.909423828125
525, 1805906848, -38.787322998046875, -8.206033706665039, -16.46967315673828, 163.2912139892578, -319.2072448730469, 111.62928009033203, -0.111328125, -0.39208984375, -0.884033203125
526, 1805923515, -45.70942687988281, -25.23175048828125, -29.684123992919922, 260.4968566894531, -150.98971557617188, 160.9651641845703, -0.181396484375, -0.448974609375, -0.8486328125
527, 1805940182, -34.541595458984375, -13.399848937988281, -33.574031829833984, 66.8724594116211, 122.63640594482422, 33.83255386352539, -0.18310546875, -0.484375, -0.83056640625
528, 1805956849, -14.731837272644043, -10.882667541503906, -1.0219709873199463, -164.29367065429688, 305.6454162597656, -248.70628356933594, -0.088623046875, -0.455078125, -0.86328125
529, 1805973516, -13.379897117614746, 19.19475555419922, 26.21251106262207, -209.94967651367188, 171.25450134277344, -251.23080444335938, -0.001220703125, -0.40771484375, -0.8916015625
530, 1805990183, -3.813500165939331, 0.9658053517341614, 0.07617084681987762, -153.65000915527344, 261.00042724609375, -86.81143951416016, 0.0703125, -0.359130859375, -0.9052734375
531, 1806006850, -19.790212631225586, -12.618290901184082, 21.98023796081543, -94.50245666503906, 298.03778076171875, 7.365581512451172, 0.154296875, -0.32861328125, -0.90380859375
532, 1806023517, -15.322104454040527, -17.39269256591797, 14.707773208618164, -42.03632736206055, 183.2284393310547, -111.62018585205078, 0.22021484375, -0.305419921875, -0.8994140625
533, 1806040184, -23.3714542388916, 24.601613998413086, 15.590204238891602, -80.13050079345703, 84.13810729980469, -99.5562973022461, 0.26318359375, -0.28369140625, -0.8984375
534, 1806056851, -12.197070121765137, -5.532642841339111, 10.8007230758667, -80.49156951904297, 32.45121765136719, -33.141727447509766, 0.2783203125, -0.2548828125, -0.900390625
535, 1806073518, -6.014271259307861, 3.9808907508850098, 8.168692588806152, -36.4600830078125, -2.5253243446350098, -18.099651336669922, 0.279541015625, -0.24365234375, -0.901611328125
536, 1806090185, -6.239232063293457, -0.040258608758449554, 9.285168647766113, -19.535472869873047, -3.4420461654663086, -11.766432762145996, 0.282958984375, -0.236083984375, -0.903564453125
537, 1806106852, -6.398930072784424, 1.1473701000213623, 8.617027282714844, -14.132946968078613, -2.777815103530884, -8.13761043548584, 0.280517578125, -0.234375, -0.904052734375
538, 1806123519, -5.617444038391113, 1.5417908430099487, 8.670353889465332, -14.130565643310547, -3.936432361602783, -9.082438468933105, 0.280517578125, -0.22900390625, -0.90625
539, 1806140186, -4.99955940246582, 1.7686517238616943, 8.39765453338623, -11.11793041229248, -0.1331477165222168, -9.102465629577637, 0.281982421875, -0.225341796875, -0.90625
540, 1806156853, -5.005995273590088, 1.0160633325576782, 8.53395938873291, -3.187347412109375, 6.680081367492676, -5.572658538818359, 0.283935546875, -0.224365234375, -0.9072265625
541, 1806173520, -4.941196918487549, 1.2186503410339355, 8.409651756286621, 4.12729024887085, 12.124552726745605, -1.1459383964538574, 0.28955078125, -0.225830078125, -0.906005859375
542, 1806190187, -5.216701030731201, 2.190519094467163, 8.053274154663086, 6.345723628997803, 13.254075050354004, -0.49531155824661255, 0.291748046875, -0.22900390625, -0.9013671875
543, 1806206854, -5.374301910400391, 2.618342876434326, 7.840802192687988, 2.5015869140625, 9.935932159423828, -2.97959041595459, 0.294189453125, -0.2294921875, -0.9033203125
544, 1806223521, -5.380072116851807, 2.242009162902832, 7.822635173797607, -2.2693750858306885, 4.252079963684082, -5.782016277313232, 0.29736328125, -0.22900390625, -0.90087890625
545, 1806240188, -5.216854572296143, 2.201917886734009, 7.88701868057251, -5.816978931427002, 0.009457492269575596, -7.631959438323975, 0.2978515625, -0.229736328125, -0.90087890625
546, 1806256855, -5.294317245483398, 1.9940866231918335, 7.910933494567871, -8.239367485046387, -3.2006418704986572, -9.823500633239746, 0.29833984375, -0.2255859375, -0.90234375
547, 1806273522, -5.372199058532715, 1.6550407409667969, 8.037991523742676, -8.151745796203613, -4.145046710968018, -10.190825462341309, 0.2978515625, -0.22607421875, -0.90087890625
548, 1806290189, -5.277784824371338, 1.6589806079864502, 8.043939590454102, -8.16003131866455, -5.08321475982666, -10.700057983398438, 0.29736328125, -0.221435546875, -0.9013671875
549, 1806306856, -5.109244346618652, 2.043532133102417, 7.994138717651367, -8.763726234436035, -6.176252365112305, -13.208442687988281, 0.29638671875, -0.221923828125, -0.9033203125
550, 1806323523, -4.8447370529174805, 2.2306711673736572, 8.103290557861328, -10.250307083129883, -6.365649223327637, -16.76435661315918, 0.29638671875, -0.21484375, -0.903076171875
551, 1806340190, -4.894695281982422, 1.816369652748108, 8.294108390808105, -9.939203262329102, -3.468247175216675, -18.92141342163086, 0.29833984375, -0.21337890625, -0.903564453125
552, 1806356857, -5.131852626800537, 1.5452234745025635, 8.422871589660645, -7.477088451385498, 1.988240122795105, -21.018632888793945, 0.30029296875, -0.207763671875, -0.906005859375
553, 1806373524, -5.09885835647583, 1.575776219367981, 8.419452667236328, -4.5240960121154785, 9.538042068481445, -22.779062271118164, 0.303466796875, -0.207763671875, -0.905517578125
554, 1806390191, -4.973784446716309, 1.7407420873641968, 8.555604934692383, -1.0293651819229126, 19.797809600830078, -25.06020736694336, 0.3115234375, -0.205322265625, -0.90283203125
555, 1806406858, -4.756275177001953, 1.7580217123031616, 8.887480735778809, -0.8526397347450256, 34.34878921508789, -27.123430252075195, 0.3203125, -0.204345703125, -0.900146484375
556, 1806423525, -4.500343322753906, 1.37039053440094, 9.290556907653809, 2.3977599143981934, 56.40772247314453, -28.578962326049805, 0.335693359375, -0.20263671875, -0.894775390625
557, 1806440192, -4.514827728271484, 0.510046660900116, 9.757525444030762, 7.334887504577637, 89.10871887207031, -24.83258628845215, 0.358154296875, -0.201416015625, -0.886474609375
558, 1806456859, -4.254464149475098, 1.9342281818389893, 10.29748821258545, 12.256796836853027, 136.58755493164062, -27.631975173950195, 0.391845703125, -0.201416015625, -0.87255859375
559, 1806473526, -4.746362686157227, 3.3091447353363037, 10.19428539276123, 17.72863006591797, 195.49928283691406, -51.83551025390625, 0.439208984375, -0.200439453125, -0.850341796875
560, 1806490193, -5.203341007232666, 4.502988815307617, 11.582483291625977, 16.115320205688477, 265.8267822265625, -90.29696655273438, 0.504150390625, -0.19580078125, -0.814697265625
561, 1806506860, -5.393014430999756, 5.360674858093262, 11.09262752532959, -5.460597038269043, 359.2574462890625, -149.65208435058594, 0.587890625, -0.1728515625, -0.761474609375
562, 1806523527, -6.344886302947998, 5.956104278564453, 13.122118949890137, -40.850460052490234, 477.2076110839844, -224.6925506591797, 0.6923828125, -0.126708984375, -0.68115234375
563, 1806540194, -13.078310012817383, 8.76079273223877, 16.538562774658203, -42.628780364990234, 561.7351684570312, -286.5455627441406, 0.80517578125, -0.05615234375, -0.563232421875
564, 1806556861, -24.404495239257812, 8.760869026184082, 20.548084259033203, -26.091209411621094, 560.0609130859375, -301.1185302734375, 0.894775390625, 0.025146484375, -0.4228515625
565, 1806573528, -26.440568923950195, 11.303722381591797, 21.904251098632812, 5.473440647125244, 471.1604309082031, -270.8721618652344, 0.94970703125, 0.10205078125, -0.29150390625
566, 1806590195, -7.614248275756836, 12.34278678894043, 20.78986930847168, 10.627976417541504, 362.6268615722656, -253.85507202148438, 0.969970703125, 0.172119140625, -0.18701171875
567, 1806606862, -4.895349025726318, 17.40351676940918, 10.3377685546875, -103.25821685791016, 405.4637145996094, -240.2385711669922, 0.9716796875, 0.246826171875, -0.076416015625
568, 1806623529, -29.08060646057129, 18.669376373291016, 33.296382904052734, -68.8482437133789, 202.31515502929688, -48.662296295166016, 0.974853515625, 0.277099609375, 0.008544921875
569, 1806640196, -13.998074531555176, 17.055204391479492, 26.17460060119629, -49.63186264038086, -92.62925720214844, 118.60376739501953, 0.97900390625, 0.252197265625, 9.765625E-4
570, 1806656863, -1.7913013696670532, 7.935214996337891, 14.031453132629395, -85.50933837890625, -210.0171661376953, 172.27171325683594, 0.985107421875, 0.20654296875, -0.0498046875
571, 1806673530, 1.5072290897369385, 1.3264585733413696, 8.222732543945312, -69.44295501708984, -220.67181396484375, 176.63462829589844, 0.989013671875, 0.157958984375, -0.107177734375
572, 1806690197, 0.8825162649154663, -1.6923284530639648, 6.366668701171875, -26.530704498291016, -210.39028930664062, 178.68829345703125, 0.986083984375, 0.105224609375, -0.164306640625
573, 1806706864, -1.8732248544692993, -1.5254008769989014, 6.945775508880615, -0.5197092890739441, -207.50314331054688, 167.12106323242188, 0.975341796875, 0.0556640625, -0.221435546875
574, 1806723531, -4.615105628967285, -1.1321184635162354, 8.0299711227417, -6.327961444854736, -226.6144256591797, 140.48353576660156, 0.9609375, 0.011962890625, -0.28369140625
575, 1806740198, -6.331235885620117, -1.6496700048446655, 8.84449577331543, -11.332966804504395, -262.22601318359375, 118.8967514038086, 0.933837890625, -0.0185546875, -0.351318359375
576, 1806756865, -7.406217575073242, -1.891081690788269, 9.062919616699219, 4.7290425300598145, -297.4593811035156, 112.63043212890625, 0.897705078125, -0.052001953125, -0.42626953125
577, 1806773532, -8.548126220703125, -0.9543429017066956, 8.99560546875, 22.584272384643555, -326.4765930175781, 111.54296875, 0.8505859375, -0.086181640625, -0.5087890625
578, 1806790199, -9.767097473144531, -0.13846567273139954, 9.179610252380371, 28.81601905822754, -350.51385498046875, 107.42352294921875, 0.792236328125, -0.117431640625, -0.586669921875
579, 1806806866, -10.977914810180664, 0.272188663482666, 9.557570457458496, 37.368003845214844, -370.2618408203125, 106.39295959472656, 0.718505859375, -0.14892578125, -0.662109375
580, 1806823533, -12.353639602661133, 0.652275800704956, 9.865569114685059, 53.8514518737793, -385.5127868652344, 112.10871124267578, 0.633544921875, -0.184326171875, -0.735107421875
581, 1806840200, -12.427040100097656, 0.05843286216259003, 9.573890686035156, 80.95391845703125, -385.9556884765625, 120.64496612548828, 0.53955078125, -0.22509765625, -0.795166015625
582, 1806856867, -14.365918159484863, 0.7302445769309998, 11.147039413452148, 107.35433197021484, -360.0234069824219, 114.9712905883789, 0.4423828125, -0.2705078125, -0.83544921875
583, 1806873534, -20.782516479492188, 2.7345385551452637, 15.73124885559082, 130.92059326171875, -340.9591369628906, 103.48368835449219, 0.34765625, -0.314697265625, -0.86376953125
584, 1806890201, -27.929244995117188, 4.4833478927612305, 15.220049858093262, 137.0037384033203, -350.9916076660156, 99.97378540039062, 0.24609375, -0.3642578125, -0.87744140625
585, 1806906868, -31.379377365112305, 4.731674671173096, 8.967907905578613, 109.02500915527344, -333.9835205078125, 95.2984390258789, 0.1474609375, -0.40185546875, -0.8837890625
586, 1806923535, -36.71030044555664, 1.8160430192947388, 1.2772849798202515, 91.18670654296875, -308.7096862792969, 114.53829956054688, 0.053466796875, -0.4306640625, -0.87939453125
587, 1806940202, -35.70524597167969, -4.5980658531188965, -9.944351196289062, 64.81636810302734, -249.02984619140625, 150.37173461914062, -0.03759765625, -0.45361328125, -0.8681640625
588, 1806956869, -43.90298843383789, -21.586376190185547, -21.296829223632812, 45.85196304321289, -148.9200897216797, 174.16761779785156, -0.102783203125, -0.46337890625, -0.857666015625
589, 1806973536, -32.89686965942383, -22.44993019104004, -24.412818908691406, -39.97895431518555, -16.155141830444336, 65.81026458740234, -0.135498046875, -0.45703125, -0.856689453125
590, 1806990203, -26.059762954711914, -16.346988677978516, -13.898982048034668, -106.31224060058594, 146.56967163085938, -102.2911376953125, -0.100341796875, -0.435546875, -0.871826171875
591, 1807006870, -0.9047471284866333, 7.665993690490723, 11.545337677001953, -96.9636459350586, 235.22940063476562, -170.48892211914062, -0.02197265625, -0.41357421875, -0.88720703125
592, 1807023537, -2.9541962146759033, 10.410833358764648, 11.620146751403809, -152.76739501953125, 221.868408203125, -139.75540161132812, 0.0498046875, -0.375, -0.90625
593, 1807040204, -19.19519805908203, -10.787628173828125, 14.989490509033203, -108.72173309326172, 312.370849609375, -40.20160675048828, 0.14013671875, -0.337158203125, -0.908447265625
594, 1807056871, -21.93797492980957, -13.13550853729248, 20.334657669067383, -63.147216796875, 192.7701416015625, -93.6318588256836, 0.2099609375, -0.310302734375, -0.904052734375
595, 1807073538, -17.867841720581055, 11.558385848999023, 17.90128517150879, -51.41770935058594, 111.65999603271484, -113.91059112548828, 0.257080078125, -0.295166015625, -0.896728515625
596, 1807090205, -14.830986976623535, 5.69202184677124, 5.756985187530518, -91.63677215576172, 25.754140853881836, -32.894222259521484, 0.271240234375, -0.265380859375, -0.902099609375
597, 1807106872, -5.766351699829102, -0.09381239861249924, 9.771406173706055, -43.58403778076172, -5.557740688323975, -28.663192749023438, 0.27734375, -0.248779296875, -0.906005859375
598, 1807123539, -6.605903625488281, -0.01160801574587822, 9.594306945800781, -27.33934783935547, 3.3446381092071533, -10.47475528717041, 0.27880859375, -0.238525390625, -0.904541015625
599, 1807140206, -6.201935768127441, 0.9026585817337036, 8.612483024597168, -6.783013820648193, 7.098940372467041, -4.053390979766846, 0.281494140625, -0.23388671875, -0.908203125
600, 1807156873, -5.280752182006836, 0.5095240473747253, 8.895261764526367, 4.220418930053711, 13.619362831115723, 1.3643958568572998, 0.285400390625, -0.237548828125, -0.904541015625
601, 1807173540, -5.2655205726623535, 1.43948495388031, 8.718890190124512, 13.455242156982422, 18.622356414794922, 4.345490455627441, 0.291748046875, -0.240234375, -0.90185546875
602, 1807190207, -5.057663917541504, 1.5877254009246826, 8.46755599975586, 17.65394401550293, 26.746435165405273, 4.61553430557251, 0.2958984375, -0.244384765625, -0.900146484375
603, 1807206874, -5.255555152893066, 2.0124850273132324, 8.288545608520508, 21.017196655273438, 30.400693893432617, 3.533269166946411, 0.302001953125, -0.251953125, -0.89404296875
604, 1807223541, -5.456863880157471, 2.5862009525299072, 7.98978328704834, 19.897146224975586, 30.825651168823242, 1.462472915649414, 0.313232421875, -0.2587890625, -0.893310546875
605, 1807240208, -5.745487689971924, 3.03354549407959, 7.615975856781006, 15.123997688293457, 26.98832893371582, -1.8307507038116455, 0.322509765625, -0.263427734375, -0.886474609375
606, 1807256875, -5.859740734100342, 2.712839365005493, 7.487787246704102, 8.87393856048584, 19.032400131225586, -5.104235649108887, 0.32763671875, -0.26611328125, -0.88232421875
607, 1807273542, -5.743345737457275, 2.4942984580993652, 7.55933141708374, 3.3127551078796387, 12.483619689941406, -6.7483744621276855, 0.330078125, -0.268798828125, -0.880615234375
608, 1807290209, -5.662796497344971, 2.094710111618042, 7.748577117919922, 0.5865630507469177, 8.611038208007812, -7.398475646972656, 0.334228515625, -0.26708984375, -0.879150390625
609, 1807306876, -5.651798248291016, 1.8097167015075684, 7.771807670593262, 0.5120428204536438, 7.274552822113037, -6.736692905426025, 0.3408203125, -0.270263671875, -0.87890625
610, 1807323543, -5.879391193389893, 2.0342533588409424, 7.586493015289307, 1.4858760833740234, 5.803319454193115, -6.468986988067627, 0.33837890625, -0.2724609375, -0.8759765625
611, 1807340210, -5.596778869628906, 2.266144037246704, 7.495518207550049, 1.961478590965271, 3.4462473392486572, -8.466497421264648, 0.341796875, -0.271240234375, -0.8779296875
612, 1807356877, -5.193273544311523, 2.680832862854004, 7.68856143951416, -0.6290097236633301, 1.0942198038101196, -12.180330276489258, 0.343505859375, -0.270751953125, -0.876220703125
613, 1807373544, -5.186517715454102, 2.7535507678985596, 7.937605857849121, -3.29866361618042, 0.4933972954750061, -18.279691696166992, 0.345947265625, -0.269775390625, -0.87744140625
614, 1807390211, -5.604198455810547, 2.04547119140625, 8.079605102539062, 0.6284666061401367, 5.520657539367676, -24.862957000732422, 0.346923828125, -0.267822265625, -0.874267578125
615, 1807406878, -5.399169921875, 1.7711211442947388, 8.360479354858398, 2.8249170780181885, 15.533698081970215, -25.854873657226562, 0.355712890625, -0.264404296875, -0.87255859375
616, 1807423545, -5.317515850067139, 1.3282172679901123, 8.463469505310059, 4.790310859680176, 31.56679916381836, -21.849464416503906, 0.3623046875, -0.264892578125, -0.87109375
617, 1807440212, -4.9655961990356445, 1.7125670909881592, 8.605515480041504, 9.40365219116211, 53.57872772216797, -19.362491607666016, 0.378173828125, -0.26611328125, -0.8642578125
618, 1807456879, -4.948522567749023, 1.945691704750061, 8.752138137817383, 15.928088188171387, 83.71804809570312, -22.067106246948242, 0.399169921875, -0.26611328125, -0.854736328125
619, 1807473546, -4.880350589752197, 1.8487063646316528, 9.245739936828613, 20.60540008544922, 124.08332061767578, -26.929786682128906, 0.428466796875, -0.267822265625, -0.8388671875
620, 1807490213, -5.10963773727417, 2.0875422954559326, 9.150797843933105, 24.156463623046875, 177.19261169433594, -31.79599952697754, 0.468994140625, -0.27294921875, -0.816650390625
621, 1807506880, -4.820409297943115, 3.477374315261841, 9.619261741638184, 19.946807861328125, 241.34640502929688, -47.35902786254883, 0.52490234375, -0.269287109375, -0.78076171875
622, 1807523547, -5.065329551696777, 4.893291473388672, 9.69729995727539, 6.243723392486572, 316.9412841796875, -83.02893829345703, 0.598388671875, -0.259521484375, -0.734619140625
623, 1807540214, -5.52666711807251, 6.050336837768555, 10.086272239685059, -18.277463912963867, 418.64166259765625, -145.40760803222656, 0.68798828125, -0.2314453125, -0.661865234375
624, 1807556881, -10.588908195495605, 6.772927761077881, 12.295515060424805, -49.431644439697266, 513.611083984375, -229.5150604248047, 0.79248046875, -0.179443359375, -0.55859375
625, 1807573548, -19.803199768066406, 9.314033508300781, 17.175600051879883, -40.25392532348633, 564.1861572265625, -274.5147705078125, 0.8876953125, -0.107177734375, -0.424072265625
626, 1807590215, -31.75814437866211, 10.414320945739746, 21.57037353515625, -35.224151611328125, 514.1184692382812, -273.7192077636719, 0.95849609375, -0.025634765625, -0.28125
627, 1807606882, -24.960573196411133, 13.293527603149414, 25.134737014770508, -9.955939292907715, 413.57025146484375, -235.57958984375, 0.99169921875, 0.043701171875, -0.16259765625
628, 1807623549, -1.01236891746521, 15.522051811218262, 20.257291793823242, -59.18220520019531, 323.5972595214844, -240.35400390625, 1.000244140625, 0.11181640625, -0.062744140625
629, 1807640216, -21.179485321044922, 14.256852149963379, 23.851383209228516, -109.7881851196289, 375.25067138671875, -196.70814514160156, 0.995849609375, 0.18017578125, 0.05078125
630, 1807656883, -25.334007263183594, 16.330888748168945, 36.53863525390625, -34.77272033691406, 0.7042308449745178, -10.753030776977539, 0.994384765625, 0.1962890625, 0.076904296875
631, 1807673550, -4.737628936767578, 11.21122932434082, 22.284893035888672, -33.196414947509766, -218.08090209960938, 77.60194396972656, 0.99755859375, 0.175048828125, 0.02392578125
632, 1807690217, 2.294102907180786, 4.589678764343262, 11.890837669372559, -35.85033416748047, -254.24986267089844, 85.92736053466797, 1.0, 0.1513671875, -0.0439453125
633, 1807706884, 1.8745869398117065, 1.2076467275619507, 8.065640449523926, -3.121898651123047, -246.31173706054688, 91.92086791992188, 0.99609375, 0.122314453125, -0.115478515625
634, 1807723551, -0.2589554488658905, 1.0559126138687134, 7.241697788238525, 28.784921646118164, -239.95765686035156, 105.7573013305664, 0.98486328125, 0.090576171875, -0.181640625
635, 1807740218, -2.6311285495758057, 2.123467206954956, 7.489861965179443, 25.56541633605957, -240.5490264892578, 107.74747467041016, 0.968505859375, 0.057861328125, -0.25048828125
636, 1807756885, -6.081754684448242, 2.264633893966675, 8.727884292602539, 3.4819858074188232, -258.9673767089844, 104.49542236328125, 0.94873046875, 0.02587890625, -0.31884765625
637, 1807773552, -8.615196228027344, 1.6487778425216675, 9.455684661865234, -7.947469711303711, -296.9200744628906, 109.48798370361328, 0.91650390625, -0.003662109375, -0.393310546875
638, 1807790219, -9.17177677154541, 1.0852631330490112, 8.826437950134277, -0.9166241884231567, -333.2179260253906, 121.8441390991211, 0.872802734375, -0.038818359375, -0.4775390625
639, 1807806886, -9.60161304473877, 1.253853440284729, 8.566384315490723, 11.081621170043945, -352.47900390625, 130.0783233642578, 0.8173828125, -0.071533203125, -0.560546875
640, 1807823553, -11.658490180969238, 1.7043416500091553, 9.559103965759277, 22.136606216430664, -369.9732666015625, 135.7742919921875, 0.748291015625, -0.107177734375, -0.64208984375
641, 1807840220, -13.660226821899414, 2.130058526992798, 10.753602981567383, 38.2496223449707, -395.08709716796875, 146.7779998779297, 0.664306640625, -0.14697265625, -0.716064453125
642, 1807856887, -14.362018585205078, 2.2607152462005615, 10.460721969604492, 58.25301742553711, -417.6175537109375, 162.21836853027344, 0.564697265625, -0.19384765625, -0.7841796875
643, 1807873554, -13.60313892364502, 2.3489696979522705, 10.132944107055664, 73.73918151855469, -404.83251953125, 166.00086975097656, 0.45556640625, -0.236083984375, -0.838134765625
644, 1807890221, -19.605886459350586, 4.049191951751709, 14.715633392333984, 81.64659118652344, -377.1560974121094, 153.07762145996094, 0.343994140625, -0.277099609375, -0.873291015625
645, 1807906888, -28.736268997192383, 4.87639045715332, 19.565418243408203, 93.81798553466797, -400.1001281738281, 159.9528350830078, 0.2314453125, -0.31689453125, -0.8935546875
646, 1807923555, -34.61361312866211, 4.164012908935547, 14.976696014404297, 102.30931091308594, -441.1184387207031, 175.50816345214844, 0.099365234375, -0.3583984375, -0.90673828125
647, 1807940222, -37.124019622802734, 3.0796587467193604, 2.321840763092041, 90.6080093383789, -430.8360290527344, 152.81259155273438, -0.035400390625, -0.387451171875, -0.895751953125
648, 1807956889, -38.71912384033203, -4.126626014709473, -11.2427339553833, 89.53764343261719, -329.88458251953125, 103.82532501220703, -0.1455078125, -0.408935546875, -0.8759765625
649, 1807973556, -47.55805206298828, -23.91090202331543, -26.02629852294922, 199.98167419433594, -169.87203979492188, 110.80103302001953, -0.212890625, -0.44384765625, -0.845703125
650, 1807990223, -45.19057083129883, -20.96177864074707, -27.508968353271484, 209.3614501953125, 24.241422653198242, 81.51077270507812, -0.235595703125, -0.49755859375, -0.80859375
651, 1808006890, -29.85404396057129, -7.4811248779296875, -10.028276443481445, -61.93882751464844, 168.29673767089844, -125.064697265625, -0.1962890625, -0.505126953125, -0.8193359375
652, 1808023557, 1.6023447513580322, 10.480680465698242, 14.621487617492676, -144.32542419433594, 188.9390411376953, -235.3705291748047, -0.114013671875, -0.47900390625, -0.849609375
653, 1808040224, 3.6335864067077637, 13.973509788513184, 3.9155561923980713, -197.08848571777344, 246.90077209472656, -181.34732055664062, -0.03173828125, -0.433349609375, -0.87890625
654, 1808056891, -19.428943634033203, -7.436624526977539, 14.014790534973145, -113.57177734375, 391.6507873535156, 3.308058500289917, 0.0712890625, -0.39892578125, -0.8916015625
655, 1808073558, -24.692955017089844, -21.78244972229004, 23.959867477416992, -80.70758056640625, 272.5851135253906, -89.55801391601562, 0.16064453125, -0.372314453125, -0.8916015625
656, 1808090225, -13.715019226074219, 1.167020559310913, 10.907500267028809, -15.15867805480957, 170.55453491210938, -155.06106567382812, 0.224365234375, -0.353759765625, -0.883544921875
