sep=,
DeviceTag:,B,,,,,,,,,,,,,,,,,
FirmwareVersion:,2.2.1,,,,,,,,,,,,,,,,,
AppVersion:,2022.0.1,,,,,,,,,,,,,,,,,
SyncStatus:,Synced,,,,,,,,,,,,,,,,,
OutputRate:,60Hz,,,,,,,,,,,,,,,,,
FilterProfile:,General,,,,,,,,,,,,,,,,,
Measurement Mode:,Inertial Mode - Rate quantities (with mag),,,,,,,,,,,,,,,,,
StartTime:,2022-08-16 15:39:34.089 +0300,,,,,,,,,,,,,,,,,
© Xsens Technologies B. V. 2005-2022,,,,,,,,,,,,,,,,,,,

PacketCounter,SampleTimeFine,Acc_X,Acc_Y,Acc_Z,Gyr_X,Gyr_Y,Gyr_Z,Mag_X,Mag_Y,Mag_Z
1, 1797156673, -5.523077964782715, -1.987390160560608, 7.7151780128479, -0.16484332084655762, -0.9032061696052551, -1.7377703189849854, 0.29052734375, 0.29443359375, -0.86669921875
2, 1797173340, -5.500156879425049, -1.9877692461013794, 7.722862720489502, -0.11582062393426895, -0.9964876770973206, -1.6835994720458984, 0.2919921875, 0.29345703125, -0.86767578125
3, 1797190007, -5.5040812492370605, -1.9765509366989136, 7.729689598083496, -0.19259469211101532, -0.8203490972518921, -1.6576154232025146, 0.291015625, 0.29443359375, -0.86767578125
4, 1797206674, -5.51854133605957, -1.965789556503296, 7.739460468292236, -0.31737977266311646, -0.6524835228919983, -1.751754879951477, 0.29248046875, 0.2939453125, -0.8681640625
5, 1797223341, -5.5172905921936035, -1.9742558002471924, 7.729928493499756, -0.3227456212043762, -0.6488593220710754, -1.7669047117233276, 0.28955078125, 0.2919921875, -0.8662109375
6, 1797240008, -5.5198259353637695, -1.9945036172866821, 7.7125725746154785, -0.3750338852405548, -0.7157340049743652, -1.7714765071868896, 0.2919921875, 0.29296875, -0.865966796875
7, 1797256675, -5.511551856994629, -1.9817185401916504, 7.734123706817627, -0.21436548233032227, -0.718513011932373, -1.630440354347229, 0.2890625, 0.29248046875, -0.8671875
8, 1797273342, -5.516502380371094, -1.9698952436447144, 7.716429233551025, -0.32296332716941833, -0.8293777108192444, -1.5733243227005005, 0.29150390625, 0.294921875, -0.866455078125
9, 1797290009, -5.517513275146484, -1.9713213443756104, 7.719193935394287, -0.29213839769363403, -0.8152392506599426, -1.6997992992401123, 0.288330078125, 0.29345703125, -0.865234375
10, 1797306676, -5.530368804931641, -1.9777923822402954, 7.749944686889648, -0.2608013153076172, -0.7876416444778442, -1.7761510610580444, 0.28955078125, 0.294921875, -0.86767578125
11, 1797323343, -5.510878562927246, -1.9893441200256348, 7.702852725982666, -0.2527717351913452, -0.8481517434120178, -1.8234447240829468, 0.2900390625, 0.292236328125, -0.869140625
12, 1797340010, -5.498692989349365, -1.984598159790039, 7.740489959716797, -0.2312186360359192, -0.9712846875190735, -1.6976864337921143, 0.291015625, 0.2939453125, -0.866455078125
13, 1797356677, -5.51108455657959, -1.972913146018982, 7.754227638244629, -0.2530406713485718, -0.9478747844696045, -1.7558401823043823, 0.291015625, 0.29345703125, -0.86962890625
14, 1797373344, -5.519242286682129, -1.9570523500442505, 7.744042873382568, -0.2337799221277237, -0.9068560600280762, -1.904342532157898, 0.291015625, 0.29443359375, -0.8681640625
15, 1797390011, -5.497583866119385, -1.9822927713394165, 7.732499599456787, -0.1993052363395691, -1.0440888404846191, -1.863119125366211, 0.291015625, 0.2919921875, -0.86865234375
16, 1797406678, -5.514893054962158, -1.9885704517364502, 7.733216762542725, -0.19336308538913727, -1.0987591743469238, -1.8012131452560425, 0.28955078125, 0.29248046875, -0.8681640625
17, 1797423345, -5.493112087249756, -1.9870003461837769, 7.7240118980407715, -0.22372691333293915, -0.924810528755188, -1.7074321508407593, 0.288818359375, 0.294921875, -0.86962890625
18, 1797440012, -5.516522407531738, -1.9680911302566528, 7.731351375579834, -0.18876560032367706, -0.9848467111587524, -1.7234400510787964, 0.2900390625, 0.29248046875, -0.86962890625
19, 1797456679, -5.507987022399902, -1.964617371559143, 7.753343105316162, -0.338535875082016, -0.963793158531189, -1.8678829669952393, 0.28857421875, 0.29345703125, -0.86865234375
20, 1797473346, -5.508164405822754, -1.9770480394363403, 7.762096405029297, -0.2481614500284195, -1.1239237785339355, -1.9100159406661987, 0.2890625, 0.29296875, -0.86962890625
21, 1797490013, -5.5112714767456055, -1.954379677772522, 7.719698429107666, -0.1875746101140976, -1.286218523979187, -1.9876608848571777, 0.29052734375, 0.29345703125, -0.86767578125
22, 1797506680, -5.493804454803467, -1.9776434898376465, 7.755428314208984, -0.23985013365745544, -1.250552773475647, -1.997905969619751, 0.28857421875, 0.292236328125, -0.8701171875
23, 1797523347, -5.480031490325928, -1.9835987091064453, 7.751852512359619, -0.21559491753578186, -1.2267074584960938, -1.8544491529464722, 0.288330078125, 0.29443359375, -0.86962890625
24, 1797540014, -5.492767333984375, -1.9887152910232544, 7.749345302581787, -0.2088843733072281, -1.2166415452957153, -1.8175541162490845, 0.28955078125, 0.29248046875, -0.869140625
25, 1797556681, -5.485232830047607, -1.9774751663208008, 7.7538161277771, -0.28655490279197693, -1.1579245328903198, -1.7991899251937866, 0.28955078125, 0.292236328125, -0.86865234375
26, 1797573348, -5.494551658630371, -1.9648168087005615, 7.748263835906982, -0.3557604253292084, -0.8912579417228699, -1.8816883563995361, 0.287841796875, 0.29345703125, -0.869140625
27, 1797590015, -5.496711254119873, -1.952934741973877, 7.7598958015441895, -0.3774159550666809, -0.8377658128738403, -1.8829561471939087, 0.28955078125, 0.2939453125, -0.870849609375
28, 1797606682, -5.500906944274902, -1.9824706315994263, 7.716713905334473, -0.36827218532562256, -0.9356575012207031, -1.8976705074310303, 0.28857421875, 0.29296875, -0.8681640625
29, 1797623349, -5.4828057289123535, -1.9930317401885986, 7.725532054901123, -0.3697320818901062, -0.8370229601860046, -1.7528560161590576, 0.286865234375, 0.29296875, -0.86572265625
30, 1797640016, -5.505574703216553, -1.988279104232788, 7.7251482009887695, -0.38914650678634644, -0.933890163898468, -1.8072320222854614, 0.288818359375, 0.29296875, -0.8671875
31, 1797656683, -5.499113082885742, -1.9817593097686768, 7.750106334686279, -0.3556835353374481, -0.9192909598350525, -1.7381930351257324, 0.288330078125, 0.294921875, -0.86865234375
32, 1797673350, -5.49831485748291, -1.9819138050079346, 7.756687164306641, -0.32338592410087585, -1.0023273229599, -1.7895976305007935, 0.28857421875, 0.29248046875, -0.8701171875
33, 1797690017, -5.497756481170654, -1.9607199430465698, 7.737368583679199, -0.3171364665031433, -0.9146167635917664, -1.8208580017089844, 0.28857421875, 0.292236328125, -0.86865234375
34, 1797706684, -5.479161739349365, -1.9799206256866455, 7.747800827026367, -0.2946997284889221, -1.0653090476989746, -1.8912802934646606, 0.28955078125, 0.292236328125, -0.8681640625
35, 1797723351, -5.491126537322998, -1.975050926208496, 7.740671157836914, -0.20709148049354553, -1.1795417070388794, -1.8504536151885986, 0.287841796875, 0.2939453125, -0.869873046875
36, 1797740018, -5.487077713012695, -1.9752473831176758, 7.770517349243164, -0.19067373871803284, -1.0969406366348267, -1.7542393207550049, 0.288330078125, 0.29345703125, -0.86865234375
37, 1797756685, -5.486843585968018, -1.9675025939941406, 7.740331649780273, -0.23977331817150116, -1.120786190032959, -1.7670586109161377, 0.289306640625, 0.29638671875, -0.8681640625
38, 1797773352, -5.4584455490112305, -1.986084222793579, 7.755828857421875, -0.33625632524490356, -1.0041073560714722, -1.9952291250228882, 0.287353515625, 0.294921875, -0.86865234375
39, 1797790019, -5.471630573272705, -1.9884220361709595, 7.75323486328125, -0.380860835313797, -0.7375816702842712, -1.7110563516616821, 0.2880859375, 0.29248046875, -0.86962890625
40, 1797806686, -5.501885414123535, -1.9727355241775513, 7.713520526885986, -0.3810785412788391, -0.837842583656311, -1.7179845571517944, 0.2880859375, 0.292236328125, -0.86962890625
41, 1797823353, -5.504434108734131, -1.9741488695144653, 7.74124813079834, -0.42418473958969116, -0.9187788367271423, -1.9035872220993042, 0.288818359375, 0.2939453125, -0.869140625
42, 1797840020, -5.477468013763428, -1.9698652029037476, 7.75817346572876, -0.3149849772453308, -1.0592260360717773, -1.9482814073562622, 0.287353515625, 0.2939453125, -0.869384765625
43, 1797856687, -5.4940409660339355, -1.9878802299499512, 7.751077175140381, -0.2552049458026886, -1.1712688207626343, -1.9187241792678833, 0.288330078125, 0.2939453125, -0.869873046875
44, 1797873354, -5.459644794464111, -1.972636103630066, 7.761800289154053, -0.2719044089317322, -1.1398676633834839, -2.0549967288970947, 0.286865234375, 0.29541015625, -0.868408203125
45, 1797890021, -5.482135772705078, -1.988940715789795, 7.765474796295166, -0.18018534779548645, -1.061467170715332, -2.017204999923706, 0.287353515625, 0.29541015625, -0.8681640625
46, 1797906688, -5.4830641746521, -1.983252763748169, 7.759463310241699, -0.20061145722866058, -0.9897515177726746, -1.8141857385635376, 0.285888671875, 0.292724609375, -0.86767578125
47, 1797923355, -5.469645977020264, -1.9820226430892944, 7.761312961578369, -0.2131744921207428, -1.025814175605774, -1.793874979019165, 0.285888671875, 0.291748046875, -0.870361328125
48, 1797940022, -5.478145599365234, -1.9934719800949097, 7.761851787567139, -0.24022148549556732, -0.8242550492286682, -1.775587558746338, 0.288330078125, 0.2939453125, -0.8671875
49, 1797956689, -5.48944616317749, -1.9676997661590576, 7.770922660827637, -0.35610613226890564, -0.7775246500968933, -1.8268895149230957, 0.285400390625, 0.29345703125, -0.869384765625
50, 1797973356, -5.490960121154785, -1.9778367280960083, 7.785250663757324, -0.4053836464881897, -0.72849440574646, -1.7913312911987305, 0.287353515625, 0.29443359375, -0.8671875
51, 1797990023, -5.47077751159668, -1.9877305030822754, 7.742671012878418, -0.44893932342529297, -0.7024922370910645, -1.7840266227722168, 0.288330078125, 0.29296875, -0.86865234375
52, 1798006690, -5.48356819152832, -1.9787523746490479, 7.758084297180176, -0.4950934052467346, -0.7313449382781982, -1.8422443866729736, 0.285888671875, 0.294921875, -0.868896484375
53, 1798023357, -5.487250804901123, -1.9700344800949097, 7.727182865142822, -0.4855014979839325, -0.9030141830444336, -1.8019940853118896, 0.285400390625, 0.2939453125, -0.86767578125
54, 1798040024, -5.477284908294678, -1.9732816219329834, 7.75077486038208, -0.389325886964798, -0.973308265209198, -1.8826488256454468, 0.288818359375, 0.29443359375, -0.86865234375
55, 1798056691, -5.460900783538818, -1.987513780593872, 7.7585649490356445, -0.40182483196258545, -0.9455184936523438, -1.9047269821166992, 0.288330078125, 0.29345703125, -0.8662109375
56, 1798073358, -5.466834545135498, -1.9769113063812256, 7.763239860534668, -0.4960411489009857, -0.9220059514045715, -1.8184378147125244, 0.285888671875, 0.291259765625, -0.871337890625
57, 1798090025, -5.452556133270264, -1.9896434545516968, 7.725150108337402, -0.38264092803001404, -0.9147959351539612, -1.8095884323120117, 0.285400390625, 0.29345703125, -0.870361328125
58, 1798106692, -5.455990314483643, -1.9910743236541748, 7.777166843414307, -0.4011588394641876, -0.854669988155365, -1.699018120765686, 0.286865234375, 0.29443359375, -0.86669921875
59, 1798123359, -5.470514297485352, -1.9885897636413574, 7.770418167114258, -0.47535887360572815, -0.544615626335144, -1.6929353475570679, 0.283447265625, 0.293212890625, -0.867919921875
60, 1798140026, -5.45281982421875, -1.9678106307983398, 7.78866720199585, -0.45973512530326843, -0.4945043623447418, -1.6939725875854492, 0.284912109375, 0.292236328125, -0.8671875
61, 1798156693, -5.469080924987793, -1.9964359998703003, 7.773743629455566, -0.6232466101646423, -0.15281815826892853, -1.7867034673690796, 0.2880859375, 0.29345703125, -0.870361328125
62, 1798173360, -5.4875712394714355, -1.991241455078125, 7.751800060272217, -0.6842944622039795, -0.09257709980010986, -1.8206274509429932, 0.287841796875, 0.29345703125, -0.869384765625
63, 1798190027, -5.482642650604248, -1.992489218711853, 7.744253635406494, -0.5654003024101257, -0.21769513189792633, -1.779711127281189, 0.287841796875, 0.29345703125, -0.86767578125
64, 1798206694, -5.490841388702393, -2.0008208751678467, 7.750755786895752, -0.4296274483203888, -0.3430052697658539, -1.72957444190979, 0.286376953125, 0.29296875, -0.86865234375
65, 1798223361, -5.466585636138916, -1.9997347593307495, 7.734201431274414, -0.4395139515399933, -0.459530234336853, -1.6070302724838257, 0.28955078125, 0.2939453125, -0.87060546875
66, 1798240028, -5.491122722625732, -1.9580321311950684, 7.743148326873779, -0.41733330488204956, -0.4804045557975769, -1.6833817958831787, 0.286376953125, 0.294921875, -0.870849609375
67, 1798256695, -5.506626129150391, -1.9823081493377686, 7.772078514099121, -0.3604602515697479, -0.6019880175590515, -1.6891316175460815, 0.287841796875, 0.29443359375, -0.869140625
68, 1798273362, -5.490268230438232, -1.989700436592102, 7.745625972747803, -0.4095086455345154, -0.6489745378494263, -1.7754979133605957, 0.286865234375, 0.29443359375, -0.868896484375
69, 1798290029, -5.477035999298096, -1.9961401224136353, 7.759399890899658, -0.3217082917690277, -0.8405959606170654, -1.7831817865371704, 0.287353515625, 0.29443359375, -0.86767578125
70, 1798306696, -5.4493560791015625, -1.9994640350341797, 7.754786491394043, -0.2831227779388428, -0.7138131260871887, -1.6260608434677124, 0.285888671875, 0.29443359375, -0.870361328125
71, 1798323363, -5.466843128204346, -1.9834929704666138, 7.766197681427002, -0.31351223587989807, -0.5150842070579529, -1.5252748727798462, 0.286865234375, 0.292724609375, -0.870361328125
72, 1798340030, -5.4613471031188965, -1.9837552309036255, 7.7663750648498535, -0.4200355112552643, -0.5101922154426575, -1.6460386514663696, 0.285400390625, 0.29541015625, -0.868896484375
73, 1798356697, -5.488983631134033, -1.9689501523971558, 7.722650051116943, -0.30860739946365356, -0.6157164573669434, -1.6984548568725586, 0.283935546875, 0.29443359375, -0.867431640625
74, 1798373364, -5.470437049865723, -2.0006983280181885, 7.730484485626221, -0.32471784949302673, -0.6538410782814026, -1.6015621423721313, 0.286376953125, 0.29296875, -0.868896484375
75, 1798390031, -5.467545986175537, -1.9923160076141357, 7.7572760581970215, -0.24581792950630188, -0.7421920299530029, -1.5849907398223877, 0.285400390625, 0.2939453125, -0.869873046875
76, 1798406698, -5.479614734649658, -1.9909889698028564, 7.719518661499023, -0.27360770106315613, -0.6817204356193542, -1.6250107288360596, 0.287841796875, 0.29345703125, -0.872314453125
77, 1798423365, -5.493290424346924, -1.9728493690490723, 7.747708797454834, -0.34650135040283203, -0.6195198893547058, -1.753176212310791, 0.283447265625, 0.29345703125, -0.870849609375
78, 1798440032, -5.488682746887207, -1.9891457557678223, 7.736138820648193, -0.3079158663749695, -0.7185386419296265, -1.754777193069458, 0.287841796875, 0.29541015625, -0.869873046875
79, 1798456699, -5.479717254638672, -1.9897698163986206, 7.74613094329834, -0.27811548113822937, -0.8110132813453674, -1.773410439491272, 0.285888671875, 0.292724609375, -0.870849609375
80, 1798473366, -5.452868938446045, -1.9845587015151978, 7.74848747253418, -0.2264290750026703, -0.777972936630249, -1.660074234008789, 0.284912109375, 0.29443359375, -0.869873046875
81, 1798490033, -5.483057498931885, -1.9819008111953735, 7.754763126373291, -0.1322896033525467, -0.7469559907913208, -1.6272004842758179, 0.284423828125, 0.29296875, -0.86767578125
82, 1798506700, -5.474781513214111, -1.9791159629821777, 7.750830173492432, -0.12925449013710022, -0.9451213479042053, -1.6910784244537354, 0.28857421875, 0.29296875, -0.86865234375
83, 1798523367, -5.460178852081299, -1.9797353744506836, 7.767073631286621, -0.20131580531597137, -0.7516942620277405, -1.8006367683410645, 0.286376953125, 0.29345703125, -0.869384765625
84, 1798540034, -5.458065509796143, -1.9689627885818481, 7.752372741699219, -0.31214195489883423, -0.5675134062767029, -1.7366561889648438, 0.284912109375, 0.29296875, -0.869384765625
85, 1798556701, -5.480450630187988, -1.9904388189315796, 7.746310234069824, -0.37732622027397156, -0.48304256796836853, -1.7294589281082153, 0.287841796875, 0.29443359375, -0.869384765625
86, 1798573368, -5.484210014343262, -1.9772939682006836, 7.7627997398376465, -0.2903968095779419, -0.43848946690559387, -1.4871630668640137, 0.287353515625, 0.2939453125, -0.86865234375
87, 1798590035, -5.493920803070068, -1.9750266075134277, 7.739120006561279, -0.27501633763313293, -0.4585825204849243, -1.5751041173934937, 0.286865234375, 0.29345703125, -0.868896484375
88, 1798606702, -5.4740777015686035, -1.972945213317871, 7.745240688323975, -0.34075137972831726, -0.6397924423217773, -1.7061898708343506, 0.2890625, 0.29296875, -0.872314453125
89, 1798623369, -5.4780402183532715, -1.984687089920044, 7.765588760375977, -0.17620255053043365, -0.6219403147697449, -1.761910319328308, 0.286376953125, 0.292724609375, -0.869873046875
90, 1798640036, -5.475450038909912, -1.9942097663879395, 7.754776954650879, -0.3102850317955017, -0.6677614450454712, -1.7849873304367065, 0.28955078125, 0.2939453125, -0.86865234375
91, 1798656703, -5.4789252281188965, -1.986918568611145, 7.72259521484375, -0.29138287901878357, -0.6304438710212708, -1.5921367406845093, 0.286865234375, 0.291259765625, -0.86865234375
92, 1798673370, -5.481031894683838, -1.9663790464401245, 7.748547554016113, -0.2020585834980011, -0.5614943504333496, -1.694305658340454, 0.285888671875, 0.2939453125, -0.8662109375
93, 1798690037, -5.471071720123291, -1.9690589904785156, 7.770700931549072, -0.24616365134716034, -0.6659045815467834, -1.689605712890625, 0.286376953125, 0.292236328125, -0.865234375
94, 1798706704, -5.471831798553467, -1.9688482284545898, 7.74484920501709, -0.3103618919849396, -0.5858136415481567, -1.7138736248016357, 0.285888671875, 0.292724609375, -0.86865234375
95, 1798723371, -5.481264114379883, -1.9785139560699463, 7.757049083709717, -0.26379796862602234, -0.6257309913635254, -1.7193419933319092, 0.283935546875, 0.29296875, -0.867431640625
96, 1798740038, -5.482085227966309, -1.9938857555389404, 7.747644424438477, -0.3196592628955841, -0.5459089875221252, -1.7161146402359009, 0.285400390625, 0.2958984375, -0.868408203125
97, 1798756705, -5.477545261383057, -1.973213791847229, 7.756810665130615, -0.21667060256004333, -0.7165791988372803, -1.6868906021118164, 0.286376953125, 0.292724609375, -0.869384765625
98, 1798773372, -5.461645603179932, -1.9953824281692505, 7.7477545738220215, -0.3337206542491913, -0.8086313009262085, -1.6650816202163696, 0.286865234375, 0.29345703125, -0.86865234375
99, 1798790039, -5.473259925842285, -1.9852591753005981, 7.768456935882568, -0.3473210334777832, -0.645606517791748, -1.546687126159668, 0.286865234375, 0.292724609375, -0.869873046875
100, 1798806706, -5.480599880218506, -1.968212604522705, 7.714819431304932, -0.3314923644065857, -0.514341413974762, -1.4983301162719727, 0.286865234375, 0.291259765625, -0.869873046875
101, 1798823373, -5.477324962615967, -1.967457890510559, 7.74609899520874, -0.3301733136177063, -0.5977619886398315, -1.5628485679626465, 0.287841796875, 0.292236328125, -0.86962890625
102, 1798840040, -5.48762321472168, -1.982516884803772, 7.753323554992676, -0.3740094304084778, -0.7402325868606567, -1.6684496402740479, 0.287353515625, 0.29296875, -0.86865234375
103, 1798856707, -5.478493690490723, -1.9910216331481934, 7.752664089202881, -0.35335278511047363, -0.8981732130050659, -1.7341843843460083, 0.287353515625, 0.2939453125, -0.869140625
104, 1798873374, -5.4665327072143555, -1.9884474277496338, 7.73657751083374, -0.26290154457092285, -1.0415403842926025, -1.7961032390594482, 0.287841796875, 0.2939453125, -0.8681640625
105, 1798890041, -5.446043491363525, -1.9848541021347046, 7.764892578125, -0.2664232850074768, -0.6986504197120667, -1.6989543437957764, 0.286376953125, 0.291748046875, -0.869140625
106, 1798906708, -5.46732759475708, -1.9744149446487427, 7.776904106140137, -0.41671866178512573, -0.32533252239227295, -1.70626699924469, 0.286376953125, 0.29296875, -0.870849609375
107, 1798923375, -5.484232425689697, -1.98566472530365, 7.761794090270996, -0.32879021763801575, -0.1315852254629135, -1.8263133764266968, 0.287841796875, 0.29345703125, -0.8671875
108, 1798940042, -5.4756879806518555, -1.9902540445327759, 7.757497787475586, -0.3154844343662262, -0.10494804382324219, -1.6283786296844482, 0.286865234375, 0.29443359375, -0.869384765625
109, 1798956709, -5.484457015991211, -1.9894037246704102, 7.764835834503174, -0.2311546355485916, -0.22281767427921295, -1.5781264305114746, 0.287841796875, 0.292236328125, -0.86962890625
110, 1798973376, -5.5001444816589355, -1.9681596755981445, 7.756360054016113, -0.19523277878761292, -0.3283035457134247, -1.6493680477142334, 0.287353515625, 0.292724609375, -0.869873046875
111, 1798990043, -5.497072696685791, -1.9913817644119263, 7.746809005737305, -0.30757009983062744, -0.5679360032081604, -1.7115302085876465, 0.2900390625, 0.29296875, -0.869140625
112, 1799006710, -5.484640121459961, -1.9822536706924438, 7.755070209503174, -0.16885171830654144, -0.7633736729621887, -1.6300818920135498, 0.286376953125, 0.292236328125, -0.868896484375
113, 1799023377, -5.472747802734375, -1.9817830324172974, 7.73518180847168, -0.22051258385181427, -0.7669467329978943, -1.477622389793396, 0.287841796875, 0.292236328125, -0.869140625
114, 1799040044, -5.475052356719971, -1.9750046730041504, 7.768435478210449, -0.24279558658599854, -0.6640605330467224, -1.4474376440048218, 0.286376953125, 0.29443359375, -0.86767578125
115, 1799056711, -5.492311954498291, -1.966013789176941, 7.7682204246521, -0.4137731194496155, -0.592972457408905, -1.4524577856063843, 0.287841796875, 0.29345703125, -0.870361328125
116, 1799073378, -5.471089839935303, -1.9576948881149292, 7.763516426086426, -0.4746801555156708, -0.6562102437019348, -1.491645336151123, 0.286865234375, 0.2939453125, -0.86865234375
117, 1799090045, -5.501511096954346, -1.9741843938827515, 7.7478227615356445, -0.4133121371269226, -0.6262817978858948, -1.4879570007324219, 0.287841796875, 0.2939453125, -0.8671875
118, 1799106712, -5.486649990081787, -1.9802467823028564, 7.720940113067627, -0.48724329471588135, -0.7487104535102844, -1.5415517091751099, 0.285400390625, 0.294921875, -0.86669921875
119, 1799123379, -5.474621772766113, -1.9782800674438477, 7.742069244384766, -0.43353337049484253, -0.7187691926956177, -1.5305125713348389, 0.288330078125, 0.29443359375, -0.8681640625
120, 1799140046, -5.490660667419434, -1.9680050611495972, 7.780921459197998, -0.34938284754753113, -0.6934638023376465, -1.5846706628799438, 0.287353515625, 0.29296875, -0.869384765625
121, 1799156713, -5.4806718826293945, -1.9582182168960571, 7.737429618835449, -0.38930022716522217, -0.7956840991973877, -1.6760181188583374, 0.286865234375, 0.29345703125, -0.871337890625
122, 1799173380, -5.463328838348389, -1.9700698852539062, 7.764770030975342, -0.3062053620815277, -0.7053648233413696, -1.7903581857681274, 0.287841796875, 0.29345703125, -0.869140625
123, 1799190047, -5.463093280792236, -1.9690204858779907, 7.7544684410095215, -0.3198898136615753, -0.7291294932365417, -1.731687307357788, 0.287841796875, 0.29345703125, -0.869140625
124, 1799206714, -5.46559476852417, -1.9754472970962524, 7.767556667327881, -0.3843185007572174, -0.6387677788734436, -1.691718578338623, 0.288818359375, 0.29296875, -0.8671875
125, 1799223381, -5.473496913909912, -1.9662606716156006, 7.7482075691223145, -0.38703352212905884, -0.5463701486587524, -1.6436054706573486, 0.287353515625, 0.29248046875, -0.8671875
126, 1799240048, -5.482231140136719, -1.970910906791687, 7.734382152557373, -0.4150153398513794, -0.5834444761276245, -1.6764150857925415, 0.285888671875, 0.29296875, -0.86767578125
127, 1799256715, -5.486024379730225, -1.9907314777374268, 7.7588372230529785, -0.3294689953327179, -0.5293120741844177, -1.6892728805541992, 0.287353515625, 0.290771484375, -0.8681640625
128, 1799273382, -5.476469039916992, -1.965080976486206, 7.754697799682617, -0.2844930589199066, -0.40213218331336975, -1.7191500663757324, 0.286865234375, 0.2939453125, -0.86572265625
129, 1799290049, -5.47039794921875, -1.9705770015716553, 7.764590263366699, -0.3857913017272949, -0.3226175904273987, -1.6625972986221313, 0.288330078125, 0.29296875, -0.8671875
130, 1799306716, -5.48862361907959, -1.9789410829544067, 7.7591962814331055, -0.36471205949783325, -0.35441577434539795, -1.738641381263733, 0.284423828125, 0.29443359375, -0.869384765625
131, 1799323383, -5.516654014587402, -1.9787553548812866, 7.724319934844971, -0.40094122290611267, -0.37613531947135925, -1.6709725856781006, 0.288330078125, 0.29248046875, -0.86767578125
132, 1799340050, -5.506910800933838, -1.9741395711898804, 7.735559940338135, -0.31084850430488586, -0.6495507955551147, -1.7352731227874756, 0.287353515625, 0.29443359375, -0.86669921875
133, 1799356717, -5.480201244354248, -1.9798414707183838, 7.731663703918457, -0.2193983495235443, -0.6766490340232849, -1.7313413619995117, 0.2890625, 0.29296875, -0.8662109375
134, 1799373384, -5.466705799102783, -1.975188970565796, 7.754937171936035, -0.2531302571296692, -0.7986422181129456, -1.7648043632507324, 0.287841796875, 0.29345703125, -0.869140625
135, 1799390051, -5.479366302490234, -1.9806554317474365, 7.74729585647583, -0.24617648124694824, -0.7117769718170166, -1.5985270738601685, 0.288330078125, 0.2939453125, -0.86767578125
136, 1799406718, -5.482348918914795, -1.9792556762695312, 7.7460784912109375, -0.16703324019908905, -0.6254494190216064, -1.5718258619308472, 0.287841796875, 0.29296875, -0.871337890625
137, 1799423385, -5.4729437828063965, -1.9669926166534424, 7.766128063201904, -0.3059948682785034, -0.554591715335846, -1.7385003566741943, 0.287353515625, 0.291748046875, -0.8681640625
138, 1799440052, -5.48079776763916, -1.9779095649719238, 7.747477054595947, -0.3041635751724243, -0.5198865532875061, -1.669730305671692, 0.28857421875, 0.29248046875, -0.86669921875
139, 1799456719, -5.48394250869751, -1.984792709350586, 7.73853063583374, -0.4403207302093506, -0.48538628220558167, -1.648228645324707, 0.288818359375, 0.2939453125, -0.86767578125
140, 1799473386, -5.496708869934082, -1.9748601913452148, 7.73742151260376, -0.3173413574695587, -0.4269765317440033, -1.6552720069885254, 0.28759765625, 0.291748046875, -0.869140625
141, 1799490053, -5.501340866088867, -1.971655011177063, 7.72878360748291, -0.2622740566730499, -0.46580541133880615, -1.674891471862793, 0.288330078125, 0.292236328125, -0.86669921875
142, 1799506720, -5.47804069519043, -1.9812065362930298, 7.716746807098389, -0.2662312090396881, -0.45977354049682617, -1.7555328607559204, 0.28955078125, 0.290771484375, -0.869140625
143, 1799523387, -5.4860358238220215, -1.9862465858459473, 7.75089168548584, -0.282264769077301, -0.561456024646759, -1.6097071170806885, 0.286865234375, 0.291748046875, -0.8681640625
144, 1799540054, -5.492023944854736, -1.969138264656067, 7.742100715637207, -0.287541002035141, -0.47760000824928284, -1.651686191558838, 0.287353515625, 0.29296875, -0.8681640625
145, 1799556721, -5.492564678192139, -1.9573066234588623, 7.761638641357422, -0.32423117756843567, -0.34034156799316406, -1.711274266242981, 0.288330078125, 0.29248046875, -0.86865234375
146, 1799573388, -5.48628044128418, -1.977249026298523, 7.736453533172607, -0.27246788144111633, -0.532180666923523, -1.7427008152008057, 0.28759765625, 0.291259765625, -0.870849609375
147, 1799590055, -5.497131824493408, -1.9754976034164429, 7.750676155090332, -0.29469969868659973, -0.4582880437374115, -1.7452749013900757, 0.286376953125, 0.290771484375, -0.871826171875
148, 1799606722, -5.495182991027832, -1.992459774017334, 7.733486652374268, -0.3093757927417755, -0.49464523792266846, -1.7512297630310059, 0.286865234375, 0.291259765625, -0.8671875
149, 1799623389, -5.489147186279297, -1.9781641960144043, 7.723008155822754, -0.25808635354042053, -0.6476554870605469, -1.688030481338501, 0.287841796875, 0.29296875, -0.86962890625
150, 1799640056, -5.471994400024414, -1.98093843460083, 7.751767158508301, -0.18470598757266998, -0.589309811592102, -1.6061723232269287, 0.286376953125, 0.29345703125, -0.869384765625
151, 1799656723, -5.469961166381836, -1.9679675102233887, 7.770362377166748, -0.22025641798973083, -0.3658005893230438, -1.465430498123169, 0.286865234375, 0.292236328125, -0.86669921875
152, 1799673390, -5.490502834320068, -1.9698302745819092, 7.717485427856445, -0.17583119869232178, -0.36400774121284485, -1.4616528749465942, 0.28857421875, 0.291748046875, -0.8671875
153, 1799690057, -5.498494625091553, -1.975845217704773, 7.758209228515625, -0.21679870784282684, -0.5536826252937317, -1.49507737159729, 0.284423828125, 0.29345703125, -0.8662109375
154, 1799706724, -5.518240928649902, -1.9607758522033691, 7.743797302246094, -0.16388285160064697, -0.6475530862808228, -1.706804633140564, 0.28857421875, 0.290283203125, -0.8671875
155, 1799723391, -5.500333309173584, -1.9674489498138428, 7.7346320152282715, -0.060663674026727676, -0.8245752453804016, -1.6464482545852661, 0.288330078125, 0.292236328125, -0.86767578125
156, 1799740058, -5.488836765289307, -1.9687570333480835, 7.757434368133545, -0.20217382907867432, -0.6993803381919861, -1.6341413259506226, 0.287841796875, 0.29248046875, -0.8681640625
157, 1799756725, -5.4706926345825195, -1.9711359739303589, 7.731805801391602, -0.2410283386707306, -0.6921960115432739, -1.6468838453292847, 0.28857421875, 0.290283203125, -0.8701171875
158, 1799773392, -5.4994072914123535, -1.9488952159881592, 7.758359432220459, -0.17558787763118744, -0.7980021238327026, -1.6268420219421387, 0.2900390625, 0.29296875, -0.86962890625
159, 1799790059, -5.487924575805664, -1.9713459014892578, 7.742828845977783, -0.22598083317279816, -0.8730216026306152, -1.6767480373382568, 0.286865234375, 0.29296875, -0.86767578125
160, 1799806726, -5.499308109283447, -1.9623641967773438, 7.76405668258667, -0.2580479383468628, -0.9873566031455994, -1.7575562000274658, 0.2890625, 0.291259765625, -0.869140625
161, 1799823393, -5.479396820068359, -1.9810055494308472, 7.775611877441406, -0.3715890347957611, -0.8728679418563843, -1.6154954433441162, 0.287841796875, 0.291748046875, -0.86767578125
162, 1799840060, -5.500328540802002, -1.960373044013977, 7.732174873352051, -0.30530333518981934, -0.7418845295906067, -1.672803521156311, 0.287841796875, 0.292236328125, -0.8671875
163, 1799856727, -5.50577974319458, -1.9683552980422974, 7.769157409667969, -0.2992843985557556, -0.8318236470222473, -1.5829672813415527, 0.286865234375, 0.291259765625, -0.869140625
164, 1799873394, -5.5011091232299805, -1.9627671241760254, 7.743459224700928, -0.38205182552337646, -0.9656755328178406, -1.6048789024353027, 0.287353515625, 0.292236328125, -0.8681640625
165, 1799890061, -5.503209114074707, -1.944116473197937, 7.745105266571045, -0.33245280385017395, -1.0864137411117554, -1.5814943313598633, 0.2880859375, 0.291259765625, -0.8681640625
166, 1799906728, -5.490776062011719, -1.9592978954315186, 7.753306865692139, -0.28637561202049255, -1.3326672315597534, -1.6292238235473633, 0.28759765625, 0.290771484375, -0.8701171875
167, 1799923395, -5.489894866943359, -1.963887333869934, 7.731382369995117, -0.3569641709327698, -1.3146358728408813, -1.6872107982635498, 0.28857421875, 0.29345703125, -0.8701171875
168, 1799940062, -5.466638088226318, -1.9726552963256836, 7.745792865753174, -0.18374551832675934, -1.456683874130249, -1.7172420024871826, 0.284912109375, 0.291259765625, -0.868408203125
169, 1799956729, -5.483077526092529, -2.0042550563812256, 7.753032684326172, -0.15425246953964233, -1.3755812644958496, -1.5249418020248413, 0.287841796875, 0.29248046875, -0.8681640625
170, 1799973396, -5.4639716148376465, -1.957159161567688, 7.785757064819336, -0.12673163414001465, -1.2392704486846924, -1.4896601438522339, 0.28857421875, 0.289794921875, -0.8701171875
171, 1799990063, -5.4505767822265625, -1.9695053100585938, 7.772586822509766, -0.13953797519207, -0.9424833059310913, -1.4555184841156006, 0.28759765625, 0.291748046875, -0.870361328125
172, 1800006730, -5.466249465942383, -1.9557842016220093, 7.7495856285095215, -0.05363299697637558, -0.8116408586502075, -1.4722052812576294, 0.285888671875, 0.291748046875, -0.869384765625
173, 1800023397, -5.464702129364014, -1.952945351600647, 7.762681007385254, -0.16540680825710297, -0.7100608944892883, -1.488379716873169, 0.286865234375, 0.290771484375, -0.8681640625
174, 1800040064, -5.45812463760376, -1.9521538019180298, 7.776858329772949, -0.23312678933143616, -0.4736941158771515, -1.5088955163955688, 0.284423828125, 0.292236328125, -0.86767578125
175, 1800056731, -5.480733871459961, -1.9648585319519043, 7.753296852111816, -0.2797803580760956, -0.514482319355011, -1.493246078491211, 0.285888671875, 0.292236328125, -0.871337890625
176, 1800073398, -5.466080665588379, -1.9770725965499878, 7.763647079467773, -0.2808816730976105, -0.4244023859500885, -1.5468662977218628, 0.286376953125, 0.291259765625, -0.86865234375
177, 1800090065, -5.472099304199219, -1.9533004760742188, 7.755348205566406, -0.3569898307323456, -0.4378747344017029, -1.5711727142333984, 0.287353515625, 0.292236328125, -0.8662109375
178, 1800106732, -5.49312162399292, -1.9430006742477417, 7.7376627922058105, -0.2646944224834442, -0.5315403938293457, -1.5465844869613647, 0.28857421875, 0.289794921875, -0.86669921875
179, 1800123399, -5.47749137878418, -1.9628928899765015, 7.76657772064209, -0.20651519298553467, -0.5877217650413513, -1.7348504066467285, 0.28857421875, 0.29296875, -0.870361328125
180, 1800140066, -5.476629734039307, -1.9599497318267822, 7.759417533874512, -0.21047234535217285, -0.690800130367279, -1.70552396774292, 0.286865234375, 0.291259765625, -0.869384765625
181, 1800156733, -5.457643032073975, -1.970443844795227, 7.779262542724609, -0.14508315920829773, -0.617701530456543, -1.668718695640564, 0.284912109375, 0.290771484375, -0.869873046875
182, 1800173400, -5.4695634841918945, -1.9632811546325684, 7.775092124938965, -0.16954323649406433, -0.5565767288208008, -1.5261198282241821, 0.286865234375, 0.291748046875, -0.869873046875
183, 1800190067, -5.469729900360107, -1.9489939212799072, 7.7361531257629395, -0.07563430815935135, -0.43252167105674744, -1.5298339128494263, 0.287841796875, 0.29248046875, -0.870361328125
184, 1800206734, -5.485652446746826, -1.970052719116211, 7.750604152679443, -0.22485391795635223, -0.37795382738113403, -1.6868268251419067, 0.286376953125, 0.290283203125, -0.869384765625
185, 1800223401, -5.45619535446167, -1.972408652305603, 7.736272811889648, -0.1761641651391983, -0.38582974672317505, -1.737488865852356, 0.285888671875, 0.289306640625, -0.869384765625
186, 1800240068, -5.49446439743042, -1.9581066370010376, 7.73121976852417, -0.2096143364906311, -0.34560495615005493, -1.54522705078125, 0.287109375, 0.291259765625, -0.870361328125
187, 1800256735, -5.495217323303223, -1.9553602933883667, 7.757840156555176, -0.19789651036262512, -0.3735100030899048, -1.5331249237060547, 0.28857421875, 0.291748046875, -0.8671875
188, 1800273402, -5.494705677032471, -1.9476901292800903, 7.76798677444458, -0.1555587202310562, -0.5579726099967957, -1.5786770582199097, 0.286376953125, 0.292236328125, -0.86767578125
189, 1800290069, -5.493134498596191, -1.9652719497680664, 7.762642860412598, -0.1273975521326065, -0.596699059009552, -1.596759557723999, 0.28955078125, 0.290283203125, -0.87109375
190, 1800306736, -5.48029899597168, -1.9480977058410645, 7.7588372230529785, -0.18325887620449066, -0.4348140358924866, -1.6441048383712769, 0.287109375, 0.289794921875, -0.8681640625
191, 1800323403, -5.4891581535339355, -1.9431272745132446, 7.739947319030762, -0.30573880672454834, -0.49109792709350586, -1.5774095058441162, 0.28857421875, 0.290283203125, -0.8701171875
192, 1800340070, -5.497710227966309, -1.938159704208374, 7.747190475463867, -0.2398117035627365, -0.6186747550964355, -1.4958199262619019, 0.286376953125, 0.290771484375, -0.8681640625
193, 1800356737, -5.48576545715332, -1.968668818473816, 7.71264123916626, -0.09681599587202072, -0.5858264565467834, -1.516374111175537, 0.286865234375, 0.290771484375, -0.8671875
194, 1800373404, -5.483081817626953, -1.932909607887268, 7.750976085662842, -0.12980012595653534, -0.7841669321060181, -1.4456416368484497, 0.286865234375, 0.292236328125, -0.870849609375
195, 1800390071, -5.5009965896606445, -1.9736382961273193, 7.741178035736084, 0.23998457193374634, -1.0136736631393433, -1.2802380323410034, 0.286865234375, 0.290771484375, -0.86865234375
196, 1800406738, -5.446188926696777, -1.971367359161377, 7.7768025398254395, 0.4282635450363159, -0.8671947717666626, -1.224517583847046, 0.2890625, 0.289306640625, -0.869140625
197, 1800423405, -5.474164962768555, -1.89649498462677, 7.779608249664307, -0.007914324291050434, -0.43305957317352295, -1.40110445022583, 0.2880859375, 0.290771484375, -0.8701171875
198, 1800440072, -5.4782304763793945, -1.9204199314117432, 7.768449783325195, -0.23805725574493408, -0.15987446904182434, -1.5072048902511597, 0.287109375, 0.289794921875, -0.86865234375
199, 1800456739, -5.510241508483887, -1.9544556140899658, 7.762186527252197, -0.3359745740890503, -0.07281690835952759, -1.5173858404159546, 0.28759765625, 0.289794921875, -0.86767578125
200, 1800473406, -5.495419979095459, -1.9265282154083252, 7.760752201080322, -0.26329857110977173, -0.032656192779541016, -1.412284255027771, 0.287353515625, 0.290283203125, -0.86767578125
201, 1800490073, -5.4981889724731445, -1.9377907514572144, 7.753263473510742, -0.24001657962799072, -0.3506762683391571, -1.386671543121338, 0.28857421875, 0.291259765625, -0.87060546875
202, 1800506740, -5.495213508605957, -1.946398377418518, 7.737364292144775, -0.20401795208454132, -0.5628774166107178, -1.4399971961975098, 0.285400390625, 0.288818359375, -0.8681640625
203, 1800523407, -5.494115829467773, -1.9252922534942627, 7.758563995361328, -0.22846528887748718, -0.5910131335258484, -1.6055450439453125, 0.28759765625, 0.288330078125, -0.86767578125
204, 1800540074, -5.496289253234863, -1.9452321529388428, 7.72915506362915, -0.0785413384437561, -0.625500500202179, -1.5103552341461182, 0.28857421875, 0.288330078125, -0.86767578125
205, 1800556741, -5.476341247558594, -1.9375790357589722, 7.759167671203613, -0.2519136965274811, -0.5294784903526306, -1.4583487510681152, 0.28857421875, 0.289306640625, -0.869140625
206, 1800573408, -5.486447334289551, -1.9351067543029785, 7.765133380889893, -0.2590467929840088, -0.38690540194511414, -1.4228236675262451, 0.28759765625, 0.288818359375, -0.8671875
207, 1800590075, -5.4913330078125, -1.9407665729522705, 7.7457804679870605, -0.2044149488210678, -0.30012959241867065, -1.3973392248153687, 0.28759765625, 0.289306640625, -0.870361328125
208, 1800606742, -5.482304573059082, -1.9276809692382812, 7.7442450523376465, -0.18205507099628448, -0.37120482325553894, -1.3712782859802246, 0.287109375, 0.288330078125, -0.869140625
209, 1800623409, -5.501860618591309, -1.935131549835205, 7.74406623840332, -0.17989079654216766, -0.4631672501564026, -1.2999852895736694, 0.28955078125, 0.287841796875, -0.866943359375
210, 1800640076, -5.49633264541626, -1.929093360900879, 7.763275146484375, -0.10142628103494644, -0.5164160132408142, -1.389194369316101, 0.2880859375, 0.288818359375, -0.8701171875
211, 1800656743, -5.51848840713501, -1.9046138525009155, 7.755799770355225, -0.0517120398581028, -0.7058219909667969, -1.4300594329833984, 0.28857421875, 0.289794921875, -0.869140625
212, 1800673410, -5.488985538482666, -1.943421721458435, 7.757299900054932, 0.06493460386991501, -0.8639419674873352, -1.4914788007736206, 0.2900390625, 0.288818359375, -0.869140625
213, 1800690077, -5.513862609863281, -1.9225478172302246, 7.763380527496338, 0.18145956099033356, -0.9693511128425598, -1.2847970724105835, 0.29052734375, 0.289794921875, -0.8681640625
214, 1800706744, -5.490528583526611, -1.9652329683303833, 7.757922172546387, 0.7241029143333435, -1.1275861263275146, -1.2724130153656006, 0.2880859375, 0.289306640625, -0.869140625
215, 1800723411, -5.46555757522583, -1.9521368741989136, 7.7181715965271, 1.2374584674835205, -1.5469303131103516, -0.9108517169952393, 0.291015625, 0.288818359375, -0.869140625
216, 1800740078, -5.52890157699585, -1.902868390083313, 7.791606903076172, 1.2272005081176758, -1.5633736848831177, -0.7800988554954529, 0.2900390625, 0.287109375, -0.8701171875
217, 1800756745, -5.468736171722412, -1.8968983888626099, 7.75534200668335, 0.46788641810417175, -1.9387918710708618, -1.1218875646591187, 0.2880859375, 0.28662109375, -0.87109375
218, 1800773412, -5.4979424476623535, -1.888279914855957, 7.819192886352539, 0.5610653758049011, -1.4561586380004883, -1.3050950765609741, 0.28759765625, 0.28759765625, -0.8701171875
219, 1800790079, -5.463066577911377, -1.888253092765808, 7.756888389587402, -0.10300146788358688, -0.9953734874725342, -1.4560049772262573, 0.28759765625, 0.2861328125, -0.8681640625
220, 1800806746, -5.462162017822266, -1.896344542503357, 7.761775970458984, -0.18438583612442017, -0.3689125180244446, -1.6109492778778076, 0.28955078125, 0.28515625, -0.8720703125
221, 1800823413, -5.482735633850098, -1.9015419483184814, 7.763836860656738, -0.23411287367343903, -0.2583681046962738, -1.5262349843978882, 0.28564453125, 0.287109375, -0.871337890625
222, 1800840080, -5.487120151519775, -1.932689905166626, 7.7844367027282715, -0.25147828459739685, -0.09901870042085648, -1.547967553138733, 0.28759765625, 0.287841796875, -0.86669921875
223, 1800856747, -5.483065605163574, -1.9122419357299805, 7.752069473266602, -0.153189554810524, -0.0708831399679184, -1.321615219116211, 0.2880859375, 0.287841796875, -0.87109375
224, 1800873414, -5.48925256729126, -1.895080804824829, 7.73922872543335, -0.027034202590584755, -0.2966462969779968, -1.26543390750885, 0.287109375, 0.288330078125, -0.86962890625
225, 1800890081, -5.4811859130859375, -1.895376443862915, 7.7635416984558105, 0.11172899603843689, -0.2590468227863312, -1.2156683206558228, 0.287109375, 0.2841796875, -0.86962890625
226, 1800906748, -5.4836649894714355, -1.9220014810562134, 7.770168304443359, 0.18636441230773926, -0.3042276203632355, -1.2387967109680176, 0.2890625, 0.28564453125, -0.872314453125
227, 1800923415, -5.4892425537109375, -1.9424893856048584, 7.764179229736328, 0.5942465662956238, -0.3355647623538971, -0.8412874937057495, 0.2880859375, 0.28515625, -0.87158203125
228, 1800940082, -5.529480457305908, -1.8721773624420166, 7.747426509857178, 0.5331091284751892, -0.6178680062294006, -0.9077396988868713, 0.28857421875, 0.282958984375, -0.86865234375
229, 1800956749, -5.5143818855285645, -1.8436120748519897, 7.770358085632324, 0.3618113696575165, -0.6777375936508179, -1.4625617265701294, 0.28955078125, 0.28564453125, -0.86865234375
230, 1800973416, -5.46267557144165, -1.939018726348877, 7.753129959106445, 0.42717498540878296, -0.7099456191062927, -1.3964298963546753, 0.2900390625, 0.28466796875, -0.87109375
231, 1800990083, -5.50338888168335, -1.8554105758666992, 7.775457382202148, 0.27600881457328796, -0.5583312511444092, -1.3291325569152832, 0.290771484375, 0.28515625, -0.87109375
232, 1801006750, -5.499800205230713, -1.897812008857727, 7.771020412445068, 0.10605578124523163, -0.42546534538269043, -1.283362627029419, 0.28759765625, 0.2841796875, -0.8701171875
233, 1801023417, -5.51082706451416, -1.8661267757415771, 7.762905120849609, 0.17789942026138306, -0.32206693291664124, -1.156054973602295, 0.290771484375, 0.2841796875, -0.873046875
234, 1801040084, -5.510435581207275, -1.8762562274932861, 7.755210876464844, 0.057071492075920105, -0.5598167777061462, -1.2899068593978882, 0.291259765625, 0.2841796875, -0.87158203125
235, 1801056751, -5.514406681060791, -1.8688595294952393, 7.773066520690918, 0.09129007160663605, -0.6903263330459595, -1.3510700464248657, 0.290771484375, 0.281982421875, -0.86962890625
236, 1801073418, -5.502028942108154, -1.872370719909668, 7.776378154754639, -0.0467175655066967, -0.7000847458839417, -1.433670997619629, 0.2890625, 0.28369140625, -0.8701171875
237, 1801090085, -5.5056233406066895, -1.8724234104156494, 7.762401580810547, 0.04372728243470192, -0.816929817199707, -1.4216713905334473, 0.290283203125, 0.283203125, -0.87060546875
238, 1801106752, -5.499187469482422, -1.877121090888977, 7.793536186218262, -0.02982599288225174, -0.8056987524032593, -1.5749890804290771, 0.2900390625, 0.2841796875, -0.87060546875
239, 1801123419, -5.493714809417725, -1.8740335702896118, 7.755424976348877, -0.14714495837688446, -0.8749682307243347, -1.6189274787902832, 0.28955078125, 0.282470703125, -0.869140625
240, 1801140086, -5.505836486816406, -1.8723527193069458, 7.796756744384766, -0.13018932938575745, -0.9448780417442322, -1.664812684059143, 0.287109375, 0.28466796875, -0.871337890625
241, 1801156753, -5.497890949249268, -1.8563133478164673, 7.740175247192383, -0.13775788247585297, -1.1140755414962769, -1.7415354251861572, 0.290283203125, 0.282958984375, -0.873046875
242, 1801173420, -5.47453498840332, -1.8759346008300781, 7.767796993255615, -0.15454702079296112, -0.9965261220932007, -1.6976864337921143, 0.289794921875, 0.281982421875, -0.8701171875
243, 1801190087, -5.471329212188721, -1.872340440750122, 7.785305500030518, -0.16347303986549377, -0.8056858777999878, -1.640647053718567, 0.290283203125, 0.283203125, -0.87158203125
244, 1801206754, -5.497194766998291, -1.883056402206421, 7.767363548278809, -0.2545902132987976, -0.7087802290916443, -1.6792197227478027, 0.28955078125, 0.28369140625, -0.87060546875
245, 1801223421, -5.503328800201416, -1.8735140562057495, 7.735440254211426, -0.2215498387813568, -0.8708957433700562, -1.712093710899353, 0.28857421875, 0.2841796875, -0.87109375
246, 1801240088, -5.4798383712768555, -1.8644930124282837, 7.755931854248047, -0.3140501081943512, -0.9475290179252625, -1.7491040229797363, 0.2890625, 0.28369140625, -0.87060546875
247, 1801256755, -5.488427639007568, -1.8558475971221924, 7.788657188415527, -0.30480390787124634, -1.0462146997451782, -1.776419997215271, 0.28857421875, 0.28515625, -0.872802734375
248, 1801273422, -5.479381561279297, -1.8578394651412964, 7.7773118019104, -0.30249881744384766, -1.0051190853118896, -1.8150438070297241, 0.289306640625, 0.28466796875, -0.874267578125
249, 1801290089, -5.477719306945801, -1.891005039215088, 7.740085601806641, -0.3330291509628296, -0.9500519037246704, -1.8189754486083984, 0.289306640625, 0.283203125, -0.873046875
250, 1801306756, -5.49816370010376, -1.8719329833984375, 7.775782108306885, -0.32000502943992615, -0.7860921621322632, -1.7406646013259888, 0.28759765625, 0.281494140625, -0.87109375
251, 1801323423, -5.495394229888916, -1.8566266298294067, 7.785418510437012, -0.39251452684402466, -0.7487615346908569, -1.771207571029663, 0.2880859375, 0.281982421875, -0.86962890625
252, 1801340090, -5.482376575469971, -1.8802108764648438, 7.770940780639648, -0.4597863554954529, -0.784427285194397, -1.7126059532165527, 0.291748046875, 0.28271484375, -0.87060546875
253, 1801356757, -5.480315208435059, -1.8612663745880127, 7.762928485870361, -0.43678614497184753, -0.8697944283485413, -1.6771321296691895, 0.290771484375, 0.2841796875, -0.8701171875
254, 1801373424, -5.489861011505127, -1.8575071096420288, 7.785522937774658, -0.3316076099872589, -0.8028556704521179, -1.7655730247497559, 0.2880859375, 0.28564453125, -0.871826171875
255, 1801390091, -5.486156940460205, -1.889491081237793, 7.774272441864014, -0.37479063868522644, -0.886263370513916, -1.7198158502578735, 0.28759765625, 0.281982421875, -0.873291015625
256, 1801406758, -5.474505424499512, -1.8733634948730469, 7.773975372314453, -0.35417237877845764, -0.9611805081367493, -1.687889575958252, 0.28857421875, 0.282958984375, -0.87060546875
257, 1801423425, -5.461682319641113, -1.870928168296814, 7.763740062713623, -0.3099648058414459, -0.8473960161209106, -1.7446856498718262, 0.28759765625, 0.28466796875, -0.872314453125
258, 1801440092, -5.47055196762085, -1.8740183115005493, 7.7903733253479, -0.2576252818107605, -0.5767467021942139, -1.6158027648925781, 0.2861328125, 0.28369140625, -0.871826171875
259, 1801456759, -5.470737934112549, -1.8742223978042603, 7.806643962860107, -0.3387279510498047, -0.42300650477409363, -1.6126266717910767, 0.2880859375, 0.281982421875, -0.87158203125
260, 1801473426, -5.492437839508057, -1.8748759031295776, 7.773437023162842, -0.312321275472641, -0.4099056124687195, -1.757351279258728, 0.28759765625, 0.283447265625, -0.8701171875
261, 1801490093, -5.481169700622559, -1.8778164386749268, 7.7860636711120605, -0.3169699013233185, -0.4657028615474701, -1.7453515529632568, 0.28759765625, 0.2841796875, -0.871826171875
262, 1801506760, -5.4760894775390625, -1.8731884956359863, 7.783053874969482, -0.25692102313041687, -0.4515775442123413, -1.675903081893921, 0.28662109375, 0.282958984375, -0.871337890625
263, 1801523427, -5.472665786743164, -1.8662322759628296, 7.783273220062256, -0.22902879118919373, -0.2310393750667572, -1.6937295198440552, 0.28955078125, 0.28662109375, -0.872314453125
264, 1801540094, -5.491151332855225, -1.8719515800476074, 7.772764682769775, -0.26697397232055664, -0.1862427443265915, -1.624587893486023, 0.2890625, 0.28466796875, -0.8720703125
265, 1801556761, -5.4810333251953125, -1.8738692998886108, 7.769652843475342, -0.31302565336227417, -0.2031983584165573, -1.746376395225525, 0.290283203125, 0.282958984375, -0.87109375
266, 1801573428, -5.48258638381958, -1.8769618272781372, 7.762043476104736, -0.3191789388656616, -0.10895014554262161, -1.5671555995941162, 0.28662109375, 0.28466796875, -0.8681640625
267, 1801590095, -5.488248825073242, -1.86455500125885, 7.782469272613525, -0.28955158591270447, -0.19071216881275177, -1.5005840063095093, 0.28857421875, 0.282470703125, -0.8701171875
268, 1801606762, -5.494941711425781, -1.8613181114196777, 7.766891002655029, -0.2979525327682495, -0.30490636825561523, -1.5225468873977661, 0.287109375, 0.282958984375, -0.871826171875
269, 1801623429, -5.505942344665527, -1.8573434352874756, 7.759868144989014, -0.3557091951370239, -0.4821462631225586, -1.551783800125122, 0.2880859375, 0.281005859375, -0.87109375
270, 1801640096, -5.502543926239014, -1.8538861274719238, 7.758114814758301, -0.4346218705177307, -0.5199121236801147, -1.5952742099761963, 0.2890625, 0.283203125, -0.87158203125
271, 1801656763, -5.493001461029053, -1.8592970371246338, 7.769450664520264, -0.3103618323802948, -0.6772252917289734, -1.7357467412948608, 0.289794921875, 0.2841796875, -0.87255859375
272, 1801673430, -5.507218360900879, -1.8719573020935059, 7.756493091583252, -0.3113863468170166, -0.6915555596351624, -1.7960518598556519, 0.28857421875, 0.283203125, -0.87060546875
273, 1801690097, -5.486045837402344, -1.8807528018951416, 7.776516437530518, -0.3713456988334656, -0.7273622155189514, -1.6336674690246582, 0.2890625, 0.28466796875, -0.872802734375
274, 1801706764, -5.50121545791626, -1.863901972770691, 7.780006408691406, -0.36386680603027344, -0.7827496528625488, -1.736438512802124, 0.28857421875, 0.283203125, -0.872314453125
275, 1801723431, -5.491255283355713, -1.8684026002883911, 7.786190509796143, -0.32907190918922424, -0.7505159974098206, -1.8363789319992065, 0.28857421875, 0.282470703125, -0.87060546875
276, 1801740098, -5.46953010559082, -1.8756275177001953, 7.787910461425781, -0.3204788863658905, -0.7168353796005249, -1.7248871326446533, 0.28662109375, 0.283447265625, -0.873779296875
277, 1801756765, -5.475622177124023, -1.880086898803711, 7.7646589279174805, -0.4075748920440674, -0.5054922699928284, -1.6988518238067627, 0.2880859375, 0.281982421875, -0.869140625
278, 1801773432, -5.499873638153076, -1.8607622385025024, 7.77964448928833, -0.27862775325775146, -0.48853665590286255, -1.69766104221344, 0.28857421875, 0.28369140625, -0.872802734375
279, 1801790099, -5.4878315925598145, -1.8717739582061768, 7.7548747062683105, -0.13969168066978455, -0.6173557043075562, -1.6525827646255493, 0.28857421875, 0.28369140625, -0.87060546875
280, 1801806766, -5.507761478424072, -1.8770673274993896, 7.747995853424072, -0.2715330123901367, -0.748838484287262, -1.6210660934448242, 0.28662109375, 0.2841796875, -0.869140625
281, 1801823433, -5.504428386688232, -1.87960946559906, 7.8033857345581055, -0.1481054276227951, -0.907970130443573, -1.761065125465393, 0.28857421875, 0.2841796875, -0.8720703125
282, 1801840100, -5.497084140777588, -1.8885260820388794, 7.765648365020752, -0.09429314732551575, -1.02005136013031, -1.7659187316894531, 0.28857421875, 0.281982421875, -0.8720703125
283, 1801856767, -5.483115196228027, -1.8801778554916382, 7.797726631164551, -0.02849412150681019, -1.0573946237564087, -1.6538374423980713, 0.28857421875, 0.282470703125, -0.872802734375
284, 1801873434, -5.48969030380249, -1.8795607089996338, 7.796551704406738, -0.007171555422246456, -1.1357823610305786, -1.563693642616272, 0.28857421875, 0.281494140625, -0.869140625
285, 1801890101, -5.498709678649902, -1.9045268297195435, 7.815646171569824, 0.5329554677009583, -1.3539384603500366, -1.3459216356277466, 0.28662109375, 0.28466796875, -0.872314453125
286, 1801906768, -5.483374118804932, -1.857917070388794, 7.750412464141846, 0.09995996952056885, -1.742201566696167, -1.6080677509307861, 0.28759765625, 0.28369140625, -0.872802734375
287, 1801923435, -5.455784320831299, -1.8488208055496216, 7.772015571594238, 0.3217275142669678, -1.2041043043136597, -1.501378059387207, 0.28662109375, 0.281494140625, -0.87109375
288, 1801940102, -5.456931114196777, -1.8731849193572998, 7.788137912750244, 0.4871983528137207, -1.139137625694275, -1.4835771322250366, 0.28564453125, 0.282470703125, -0.87060546875
289, 1801956769, -5.49501895904541, -1.8438878059387207, 7.806202411651611, 0.1839568316936493, -0.9420735836029053, -1.5070385932922363, 0.289306640625, 0.281982421875, -0.87255859375
290, 1801973436, -5.478952407836914, -1.8448625802993774, 7.763417720794678, -0.07571113109588623, -0.814803957939148, -1.6346790790557861, 0.28857421875, 0.281982421875, -0.87255859375
291, 1801990103, -5.48319149017334, -1.8384419679641724, 7.799554824829102, -0.1377963274717331, -0.7869502305984497, -1.5064494609832764, 0.2861328125, 0.281982421875, -0.871826171875
292, 1802006770, -5.507015705108643, -1.8471434116363525, 7.776680946350098, -0.22635222971439362, -0.8333219289779663, -1.596452236175537, 0.28564453125, 0.281494140625, -0.871337890625
293, 1802023437, -5.493743419647217, -1.8556216955184937, 7.790426254272461, -0.2849028408527374, -1.0216776132583618, -1.7012211084365845, 0.2880859375, 0.282958984375, -0.87060546875
294, 1802040104, -5.4910454750061035, -1.8485032320022583, 7.794811248779297, -0.20283976197242737, -0.9712463021278381, -1.7164478302001953, 0.287109375, 0.281005859375, -0.873779296875
295, 1802056771, -5.476456642150879, -1.846898078918457, 7.789932727813721, -0.1346459686756134, -1.0785380601882935, -1.8428465127944946, 0.28759765625, 0.281494140625, -0.873291015625
296, 1802073438, -5.454473972320557, -1.8690948486328125, 7.801937103271484, -0.1788918673992157, -0.8626868724822998, -1.7640618085861206, 0.28662109375, 0.282958984375, -0.871826171875
297, 1802090105, -5.473325729370117, -1.830006718635559, 7.800158500671387, -0.14701688289642334, -0.6287277340888977, -1.7561858892440796, 0.28759765625, 0.281494140625, -0.87109375
298, 1802106772, -5.4682793617248535, -1.8506925106048584, 7.813174724578857, -0.14286765456199646, -0.5358561277389526, -1.7287163734436035, 0.2880859375, 0.281494140625, -0.87158203125
299, 1802123439, -5.470492362976074, -1.8537180423736572, 7.802471160888672, -0.1984856128692627, -0.4500664174556732, -1.5915603637695312, 0.287109375, 0.282470703125, -0.872314453125
300, 1802140106, -5.471237659454346, -1.8415229320526123, 7.8011322021484375, -0.18392479419708252, -0.3925146162509918, -1.4894038438796997, 0.28759765625, 0.282958984375, -0.874755859375
301, 1802156773, -5.488858222961426, -1.8496686220169067, 7.768760681152344, -0.15735161304473877, -0.43660685420036316, -1.4976385831832886, 0.2861328125, 0.281005859375, -0.87158203125
302, 1802173440, -5.498284339904785, -1.8514951467514038, 7.761923789978027, -0.04986792057752609, -0.6837181448936462, -1.5169761180877686, 0.287109375, 0.280029296875, -0.87158203125
303, 1802190107, -5.467869281768799, -1.882950782775879, 7.788245677947998, -0.09453646093606949, -0.7749120593070984, -1.6703319549560547, 0.2861328125, 0.281494140625, -0.873779296875
304, 1802206774, -5.490830421447754, -1.8383440971374512, 7.772608757019043, -0.228375643491745, -0.9414076805114746, -1.4655460119247437, 0.28662109375, 0.281982421875, -0.873291015625
305, 1802223441, -5.464260578155518, -1.8387322425842285, 7.797351360321045, -0.1401526778936386, -0.95280522108078, -1.5850675106048584, 0.2880859375, 0.280517578125, -0.87255859375
306, 1802240108, -5.467348575592041, -1.8326069116592407, 7.78648042678833, -0.23221752047538757, -0.8562068939208984, -1.6263421773910522, 0.28515625, 0.281982421875, -0.870849609375
307, 1802256775, -5.470537185668945, -1.8493627309799194, 7.777781963348389, -0.31113022565841675, -0.8483949303627014, -1.6912959814071655, 0.28759765625, 0.281005859375, -0.874755859375
308, 1802273442, -5.464268207550049, -1.8448187112808228, 7.784471035003662, -0.34848636388778687, -0.8419021964073181, -1.7100573778152466, 0.2861328125, 0.280029296875, -0.875244140625
309, 1802290109, -5.47136116027832, -1.838944911956787, 7.811136245727539, -0.3238981366157532, -0.8956632018089294, -1.7000682353973389, 0.2861328125, 0.280517578125, -0.873291015625
310, 1802306776, -5.484355926513672, -1.8692326545715332, 7.766665458679199, -0.4286669194698334, -0.8930891752243042, -1.7824517488479614, 0.28515625, 0.280517578125, -0.8701171875
311, 1802323443, -5.475377559661865, -1.8642752170562744, 7.802430629730225, -0.2650786340236664, -1.0536423921585083, -1.734555959701538, 0.287109375, 0.281005859375, -0.87109375
312, 1802340110, -5.472705841064453, -1.845766305923462, 7.805620193481445, -0.21974414587020874, -1.0068992376327515, -1.6795270442962646, 0.28564453125, 0.281982421875, -0.871337890625
313, 1802356777, -5.456483364105225, -1.8551777601242065, 7.832690715789795, -0.2302069365978241, -0.7700073719024658, -1.6166223287582397, 0.28515625, 0.280029296875, -0.872314453125
314, 1802373444, -5.468924045562744, -1.8452298641204834, 7.795212745666504, -0.42458170652389526, -0.7345080971717834, -1.7722578048706055, 0.28466796875, 0.281005859375, -0.870849609375
315, 1802390111, -5.467593669891357, -1.8463958501815796, 7.795126438140869, -0.48678213357925415, -0.7225598692893982, -1.8149925470352173, 0.2861328125, 0.281005859375, -0.876220703125
316, 1802406778, -5.47197961807251, -1.8472756147384644, 7.777642250061035, -0.5074900388717651, -0.8652867078781128, -1.896492600440979, 0.2861328125, 0.279052734375, -0.8720703125
317, 1802423445, -5.471570014953613, -1.8368018865585327, 7.795346260070801, -0.5010740756988525, -1.0087946653366089, -1.9291741847991943, 0.28515625, 0.281982421875, -0.873291015625
318, 1802440112, -5.466568470001221, -1.8445301055908203, 7.801037311553955, -0.4482734799385071, -1.0663975477218628, -2.0855398178100586, 0.2861328125, 0.280517578125, -0.87158203125
319, 1802456779, -5.467502593994141, -1.850799798965454, 7.794793128967285, -0.48436179757118225, -1.0705597400665283, -2.2089545726776123, 0.28564453125, 0.281494140625, -0.873779296875
320, 1802473446, -5.440005302429199, -1.8736873865127563, 7.779525279998779, -0.4462500810623169, -0.9582223892211914, -2.2249624729156494, 0.288330078125, 0.281982421875, -0.874755859375
321, 1802490113, -5.442224979400635, -1.8620800971984863, 7.7861456871032715, -0.34481099247932434, -0.9715409278869629, -2.0931339263916016, 0.28564453125, 0.281494140625, -0.873291015625
322, 1802506780, -5.441449165344238, -1.8547108173370361, 7.792686939239502, -0.3756614625453949, -0.8460515141487122, -1.979964256286621, 0.28515625, 0.280029296875, -0.873291015625
323, 1802523447, -5.454153537750244, -1.8541010618209839, 7.80053186416626, -0.3789142370223999, -0.6989321708679199, -1.9156633615493774, 0.2861328125, 0.281982421875, -0.871826171875
324, 1802540114, -5.452325820922852, -1.851192593574524, 7.785150051116943, -0.49527275562286377, -0.538468599319458, -1.844844102859497, 0.28466796875, 0.281982421875, -0.874267578125
325, 1802556781, -5.475693225860596, -1.8649777173995972, 7.7948198318481445, -0.4058331847190857, -0.5165569186210632, -1.8654241561889648, 0.28564453125, 0.281005859375, -0.87060546875
326, 1802573448, -5.472938537597656, -1.8563649654388428, 7.781151294708252, -0.4622707962989807, -0.6611661911010742, -1.8180917501449585, 0.287841796875, 0.281005859375, -0.874755859375
327, 1802590115, -5.472935199737549, -1.8514809608459473, 7.764330863952637, -0.4292560815811157, -0.8207590579986572, -1.9059820175170898, 0.28564453125, 0.27880859375, -0.873291015625
328, 1802606782, -5.487086296081543, -1.8550649881362915, 7.790158271789551, -0.450629860162735, -0.8920263648033142, -1.898759126663208, 0.28662109375, 0.281494140625, -0.872314453125
329, 1802623449, -5.463263511657715, -1.8557759523391724, 7.78633975982666, -0.4388095736503601, -1.0046709775924683, -1.9762760400772095, 0.28271484375, 0.281982421875, -0.872802734375
330, 1802640116, -5.469168186187744, -1.8619271516799927, 7.782657623291016, -0.4279625713825226, -1.1061997413635254, -2.0995371341705322, 0.28564453125, 0.280517578125, -0.87060546875
331, 1802656783, -5.452524185180664, -1.8529053926467896, 7.7762956619262695, -0.49436354637145996, -1.1470006704330444, -2.1049797534942627, 0.28369140625, 0.281494140625, -0.871826171875
332, 1802673450, -5.4571146965026855, -1.8608490228652954, 7.800086975097656, -0.4798155128955841, -1.146155595779419, -1.9691429138183594, 0.2841796875, 0.283447265625, -0.86962890625
333, 1802690117, -5.43849515914917, -1.8646260499954224, 7.805435657501221, -0.4712481200695038, -1.116483211517334, -1.9522640705108643, 0.28271484375, 0.281494140625, -0.873291015625
334, 1802706784, -5.460022449493408, -1.862900972366333, 7.778358459472656, -0.450130432844162, -1.1358721256256104, -1.927714467048645, 0.28466796875, 0.282958984375, -0.872314453125
335, 1802723451, -5.428802013397217, -1.857978105545044, 7.800808906555176, -0.33432257175445557, -1.1585007905960083, -1.9906575679779053, 0.28466796875, 0.281494140625, -0.872314453125
336, 1802740118, -5.431732177734375, -1.8602274656295776, 7.815314769744873, -0.48721763491630554, -0.7858104705810547, -2.0384252071380615, 0.2841796875, 0.282958984375, -0.873291015625
337, 1802756785, -5.4362406730651855, -1.8531503677368164, 7.799499034881592, -0.5359840989112854, -0.4874736964702606, -1.9388045072555542, 0.2822265625, 0.281494140625, -0.87451171875
338, 1802773452, -5.450389385223389, -1.8474849462509155, 7.789126873016357, -0.5114137530326843, -0.5533443093299866, -1.821031093597412, 0.28271484375, 0.281494140625, -0.872314453125
339, 1802790119, -5.446694374084473, -1.8657736778259277, 7.792551517486572, -0.516966700553894, -0.487652987241745, -1.812393069267273, 0.28466796875, 0.282470703125, -0.872802734375
340, 1802806786, -5.457358360290527, -1.865414023399353, 7.792273998260498, -0.4560084640979767, -0.6417902112007141, -1.9065965414047241, 0.28369140625, 0.282958984375, -0.874755859375
341, 1802823453, -5.458089828491211, -1.8514424562454224, 7.772215843200684, -0.41251814365386963, -0.7099583745002747, -1.9057897329330444, 0.28466796875, 0.280029296875, -0.870849609375
342, 1802840120, -5.465669631958008, -1.8610162734985352, 7.774350166320801, -0.42335233092308044, -0.9565831422805786, -1.9170851707458496, 0.283203125, 0.281494140625, -0.873291015625
343, 1802856787, -5.454122543334961, -1.8676527738571167, 7.795604705810547, -0.33758819103240967, -0.9455568790435791, -1.914498209953308, 0.28515625, 0.282470703125, -0.872802734375
344, 1802873454, -5.4564666748046875, -1.863563060760498, 7.816222667694092, -0.32225900888442993, -1.0099343061447144, -1.9318122863769531, 0.2861328125, 0.281982421875, -0.873291015625
345, 1802890121, -5.447876453399658, -1.8731342554092407, 7.78800106048584, -0.3730233609676361, -1.050722599029541, -1.8763480186462402, 0.28369140625, 0.281982421875, -0.874267578125
346, 1802906788, -5.421704292297363, -1.8770605325698853, 7.7964186668396, -0.3612799644470215, -0.9992284178733826, -1.8426547050476074, 0.2861328125, 0.281982421875, -0.87109375
347, 1802923455, -5.433009147644043, -1.8881672620773315, 7.789498329162598, -0.3119370937347412, -0.8106932044029236, -1.6230127811431885, 0.2841796875, 0.283935546875, -0.873779296875
348, 1802940122, -5.464851379394531, -1.8650598526000977, 7.805864334106445, -0.3577325642108917, -0.7079222202301025, -1.5146071910858154, 0.28466796875, 0.281494140625, -0.875244140625
349, 1802956789, -5.460047245025635, -1.8687180280685425, 7.816391468048096, -0.44923391938209534, -0.7227263450622559, -1.5764102935791016, 0.28369140625, 0.2841796875, -0.875
350, 1802973456, -5.467576026916504, -1.886466383934021, 7.801674842834473, -0.405666708946228, -0.8073633909225464, -1.7330573797225952, 0.28466796875, 0.283935546875, -0.871337890625
351, 1802990123, -5.413543701171875, -1.8790159225463867, 7.792684555053711, -0.2987464964389801, -0.7852340936660767, -1.611832618713379, 0.28466796875, 0.281494140625, -0.872314453125
352, 1803006790, -5.444584369659424, -1.8483325242996216, 7.818752765655518, -0.3910675346851349, -0.6572731733322144, -1.551950454711914, 0.281005859375, 0.283447265625, -0.87451171875
353, 1803023457, -5.455249309539795, -1.87623929977417, 7.808797359466553, -0.4618610143661499, -0.5713297128677368, -1.6075042486190796, 0.28271484375, 0.282470703125, -0.873291015625
354, 1803040124, -5.4551873207092285, -1.8665045499801636, 7.821297645568848, -0.440615177154541, -0.5132016539573669, -1.7417272329330444, 0.281982421875, 0.283447265625, -0.87744140625
355, 1803056791, -5.451503753662109, -1.8828006982803345, 7.802880764007568, -0.4368245601654053, -0.591550886631012, -1.7382314205169678, 0.282470703125, 0.282958984375, -0.872314453125
356, 1803073458, -5.4327311515808105, -1.8568886518478394, 7.793115615844727, -0.3483583331108093, -0.6699770092964172, -1.6471142768859863, 0.2841796875, 0.281005859375, -0.87646484375
357, 1803090125, -5.433886528015137, -1.888331413269043, 7.774279594421387, -0.3489602506160736, -0.5258927941322327, -1.6521857976913452, 0.281494140625, 0.282470703125, -0.872314453125
358, 1803106792, -5.438038349151611, -1.86289644241333, 7.800957679748535, -0.3995068371295929, -0.6411241888999939, -1.669691801071167, 0.281982421875, 0.282958984375, -0.871826171875
359, 1803123459, -5.420976638793945, -1.8825715780258179, 7.838265895843506, -0.21496739983558655, -0.6525092124938965, -1.5897290706634521, 0.28515625, 0.282470703125, -0.873779296875
360, 1803140126, -5.430761814117432, -1.864098310470581, 7.82549524307251, -0.2712000608444214, -0.4098159968852997, -1.5833516120910645, 0.28369140625, 0.281982421875, -0.87548828125
361, 1803156793, -5.46757173538208, -1.8643543720245361, 7.7877583503723145, -0.24257788062095642, -0.4114808440208435, -1.4682608842849731, 0.283203125, 0.282958984375, -0.872314453125
362, 1803173460, -5.482630252838135, -1.7884894609451294, 7.79000186920166, -0.924106240272522, -0.4404360055923462, -1.8294897079467773, 0.2841796875, 0.281494140625, -0.875244140625
363, 1803190127, -5.402787208557129, -1.9131288528442383, 7.8553547859191895, -0.3093757927417755, -0.36599263548851013, -1.598783016204834, 0.28515625, 0.282958984375, -0.871826171875
364, 1803206794, -5.473783493041992, -1.8455426692962646, 7.756993770599365, -0.5299267768859863, -0.4629752039909363, -1.574156641960144, 0.28515625, 0.281982421875, -0.873779296875
365, 1803223461, -5.454483509063721, -1.8439183235168457, 7.797067165374756, -0.6767387986183167, -0.6535975933074951, -1.7780206203460693, 0.283203125, 0.281982421875, -0.872314453125
366, 1803240128, -5.463090896606445, -1.86770498752594, 7.826384544372559, -0.8781698942184448, -0.6169203519821167, -1.880996823310852, 0.28515625, 0.282958984375, -0.86962890625
367, 1803256795, -5.459659576416016, -1.8488903045654297, 7.7945332527160645, -0.9386542439460754, -0.5735451579093933, -1.949626088142395, 0.28369140625, 0.281982421875, -0.873291015625
368, 1803273462, -5.467615127563477, -1.8612079620361328, 7.80564022064209, -1.1300708055496216, -0.5711631774902344, -2.075986385345459, 0.2841796875, 0.282470703125, -0.86865234375
369, 1803290129, -5.437413692474365, -1.8894048929214478, 7.805354118347168, -1.0093580484390259, -0.606419026851654, -2.107720375061035, 0.283447265625, 0.2841796875, -0.871337890625
370, 1803306796, -5.456777095794678, -1.8442457914352417, 7.8308939933776855, -1.2147718667984009, -0.4689173102378845, -2.0604519844055176, 0.28515625, 0.28369140625, -0.86962890625
371, 1803323463, -5.441956996917725, -1.8972679376602173, 7.808234214782715, -1.3576908111572266, -0.37572550773620605, -2.2171764373779297, 0.28515625, 0.283447265625, -0.8701171875
372, 1803340130, -5.479261875152588, -1.8977868556976318, 7.74302864074707, -1.2301011085510254, -0.5474330186843872, -2.1403250694274902, 0.283447265625, 0.2841796875, -0.871337890625
373, 1803356797, -5.447320938110352, -1.8568779230117798, 7.810951232910156, -1.4046902656555176, -0.7464950084686279, -2.1701769828796387, 0.28515625, 0.28466796875, -0.8701171875
374, 1803373464, -5.441946506500244, -1.905457854270935, 7.833073139190674, -1.3423230648040771, -0.6380379796028137, -2.228074312210083, 0.284423828125, 0.28369140625, -0.8681640625
375, 1803390131, -5.450938701629639, -1.914995551109314, 7.799542427062988, -1.2038226127624512, -0.5850709080696106, -1.9760198593139648, 0.281005859375, 0.28466796875, -0.871337890625
376, 1803406798, -5.4546217918396, -1.905710220336914, 7.809082984924316, -0.9893417954444885, -0.48173651099205017, -1.85980224609375, 0.28466796875, 0.2841796875, -0.871826171875
377, 1803423465, -5.469668388366699, -1.918577790260315, 7.752259731292725, -0.42867979407310486, -0.7218940258026123, -1.5773582458496094, 0.281982421875, 0.28515625, -0.871337890625
378, 1803440132, -5.469939708709717, -1.8399332761764526, 7.797778606414795, -0.4254268705844879, -1.2338019609451294, -1.5770633220672607, 0.282470703125, 0.28515625, -0.872802734375
379, 1803456799, -5.4579997062683105, -1.8724228143692017, 7.788909912109375, -0.5357152819633484, -1.32073175907135, -1.7002607583999634, 0.282958984375, 0.28564453125, -0.872802734375
380, 1803473466, -5.483455181121826, -1.9336856603622437, 7.837412357330322, -1.2830809354782104, -1.286231279373169, -2.155423641204834, 0.2861328125, 0.28564453125, -0.872802734375
381, 1803490133, -5.4836578369140625, -1.8825669288635254, 7.789581298828125, -0.8417741060256958, -1.1497669219970703, -1.772245168685913, 0.282958984375, 0.28564453125, -0.871826171875
382, 1803506800, -5.525219440460205, -1.882386565208435, 7.873266220092773, -0.933967113494873, -0.9374505281448364, -2.130362033843994, 0.281005859375, 0.284423828125, -0.872314453125
383, 1803523467, -5.517043590545654, -1.8967622518539429, 7.8291521072387695, -1.0733001232147217, -0.4773566424846649, -2.5230300426483154, 0.282958984375, 0.28564453125, -0.872314453125
384, 1803540134, -5.538483142852783, -1.8595609664916992, 7.804630756378174, -1.5743999481201172, -0.28277701139450073, -3.2049813270568848, 0.282470703125, 0.2861328125, -0.872802734375
385, 1803556801, -5.456925868988037, -1.8810197114944458, 7.79079532623291, -2.2959866523742676, 0.09380011260509491, -4.151818752288818, 0.282958984375, 0.2880859375, -0.870361328125
386, 1803573468, -5.257091522216797, -1.9747165441513062, 7.847855091094971, -2.8070881366729736, 1.2502009868621826, -4.3562211990356445, 0.283447265625, 0.289306640625, -0.870361328125
387, 1803590135, -5.1844916343688965, -2.026498556137085, 7.846979141235352, -3.381453275680542, 3.7887017726898193, -4.572264671325684, 0.283447265625, 0.28857421875, -0.870361328125
388, 1803606802, -5.148781776428223, -2.0853002071380615, 7.8762431144714355, -3.1135318279266357, 6.539339542388916, -4.049163818359375, 0.281982421875, 0.28857421875, -0.871337890625
389, 1803623469, -5.158975601196289, -2.1660072803497314, 7.9044108390808105, -3.0877017974853516, 10.253414154052734, -2.9170572757720947, 0.287353515625, 0.291259765625, -0.8681640625
390, 1803640136, -5.137003421783447, -2.028169631958008, 8.061769485473633, -4.005573272705078, 15.923335075378418, -0.8041626214981079, 0.291015625, 0.29296875, -0.869140625
391, 1803656803, -5.028793811798096, -2.1439502239227295, 8.144867897033691, -8.142973899841309, 24.412845611572266, 3.8283839225769043, 0.298583984375, 0.291015625, -0.8642578125
392, 1803673470, -4.717778205871582, -2.457975149154663, 8.399590492248535, -10.031610488891602, 35.60563278198242, 10.566388130187988, 0.30859375, 0.294677734375, -0.86181640625
393, 1803690137, -4.6801652908325195, -2.199205160140991, 8.656768798828125, -7.742084503173828, 52.67530059814453, 14.384060859680176, 0.322509765625, 0.293701171875, -0.854736328125
394, 1803706804, -4.849269866943359, -2.304626226425171, 8.808897018432617, -9.781055450439453, 74.184326171875, 20.15735626220703, 0.340576171875, 0.294921875, -0.84716796875
395, 1803723471, -5.065201759338379, -2.364119052886963, 9.13226318359375, -17.481393814086914, 98.31917572021484, 31.825950622558594, 0.365478515625, 0.29638671875, -0.837158203125
396, 1803740138, -5.4371490478515625, -3.0401198863983154, 9.51976490020752, -22.96556282043457, 121.00333404541016, 47.239471435546875, 0.3984375, 0.295654296875, -0.8212890625
397, 1803756805, -5.978818893432617, -4.069802761077881, 9.48496150970459, -24.716869354248047, 140.4673614501953, 62.41246032714844, 0.4365234375, 0.29443359375, -0.802001953125
398, 1803773472, -7.150631427764893, -3.6256585121154785, 10.093027114868164, -9.69814682006836, 141.3238067626953, 76.1343002319336, 0.47900390625, 0.287109375, -0.780517578125
399, 1803790139, -6.065586090087891, -2.9129199981689453, 8.99506664276123, -6.3968353271484375, 150.615966796875, 79.14288330078125, 0.520263671875, 0.273193359375, -0.7607421875
400, 1803806806, -3.5996389389038086, -4.255977630615234, 12.11793041229248, 4.00899600982666, 145.07713317871094, 78.28746795654297, 0.55859375, 0.26220703125, -0.736328125
401, 1803823473, -0.010167151689529419, -4.733902454376221, 15.31603717803955, 10.240753173828125, 108.6194839477539, 63.18827819824219, 0.59326171875, 0.247802734375, -0.718017578125
402, 1803840140, 1.3303951025009155, -4.839566707611084, 17.236160278320312, 1.663969874382019, 51.5057258605957, 31.74214744567871, 0.611083984375, 0.238037109375, -0.709228515625
403, 1803856807, 4.067037105560303, -4.647092342376709, 16.405879974365234, -5.651687145233154, -3.166025161743164, 4.436088562011719, 0.61376953125, 0.237060546875, -0.7060546875
404, 1803873474, 4.612192153930664, -3.7025537490844727, 15.519547462463379, -11.273491859436035, -39.84293746948242, -14.704900741577148, 0.6064453125, 0.24072265625, -0.709716796875
405, 1803890141, 3.2738466262817383, -3.2121834754943848, 15.033196449279785, -17.35150146484375, -69.15703582763672, -27.58379364013672, 0.590576171875, 0.24755859375, -0.7197265625
406, 1803906808, 1.1479072570800781, -2.98500657081604, 14.77377700805664, -19.03917694091797, -98.42540740966797, -35.26035690307617, 0.572265625, 0.2587890625, -0.73583984375
407, 1803923475, -0.5038837194442749, -2.6760048866271973, 14.138169288635254, -19.3046875, -124.81778717041016, -41.24039840698242, 0.542236328125, 0.268798828125, -0.751220703125
408, 1803940142, -2.2842729091644287, -2.4146339893341064, 13.52908706665039, -20.96942138671875, -141.26513671875, -46.04502487182617, 0.506591796875, 0.27880859375, -0.7705078125
409, 1803956809, -4.460812091827393, -2.321657419204712, 13.16876220703125, -25.976289749145508, -150.68026733398438, -51.93680953979492, 0.466796875, 0.291259765625, -0.790283203125
410, 1803973476, -7.57194185256958, -2.6944706439971924, 13.183576583862305, -26.58021354675293, -160.59207153320312, -56.40601348876953, 0.423583984375, 0.3037109375, -0.80517578125
411, 1803990143, -9.953926086425781, -2.8601973056793213, 12.629936218261719, -19.789871215820312, -179.7820281982422, -58.98334884643555, 0.375244140625, 0.318115234375, -0.826416015625
412, 1804006810, -10.089424133300781, -2.379847526550293, 11.027865409851074, -11.20259952545166, -194.3932342529297, -57.744720458984375, 0.322265625, 0.326171875, -0.845458984375
413, 1804023477, -9.409436225891113, -1.8510762453079224, 9.699634552001953, -6.142858028411865, -194.7386474609375, -52.28866195678711, 0.267822265625, 0.332275390625, -0.860595703125
414, 1804040144, -9.284384727478027, -1.6374711990356445, 9.24303150177002, -9.354269981384277, -184.86427307128906, -47.57586669921875, 0.2158203125, 0.337646484375, -0.87451171875
415, 1804056811, -10.015766143798828, -2.3708221912384033, 9.08899211883545, -12.678282737731934, -176.01048278808594, -44.93024444580078, 0.162841796875, 0.34423828125, -0.8798828125
416, 1804073478, -10.974411010742188, -3.091515064239502, 8.472610473632812, -11.607132911682129, -174.517578125, -46.251129150390625, 0.111083984375, 0.348876953125, -0.88720703125
417, 1804090145, -11.073413848876953, -3.5499839782714844, 6.988190650939941, -7.900421142578125, -173.5572967529297, -51.00999450683594, 0.05908203125, 0.3515625, -0.891357421875
418, 1804106812, -10.801997184753418, -2.8924989700317383, 5.395780086517334, -7.486380100250244, -164.13063049316406, -57.38311767578125, 0.009521484375, 0.3525390625, -0.891845703125
419, 1804123479, -11.49623966217041, -1.6887493133544922, 4.0082244873046875, -13.708425521850586, -150.28695678710938, -62.99713897705078, -0.035400390625, 0.357421875, -0.889404296875
420, 1804140146, -11.357678413391113, 0.6081871390342712, 2.188405990600586, -19.318532943725586, -136.01785278320312, -57.94990921020508, -0.07958984375, 0.361572265625, -0.885009765625
421, 1804156813, -11.184656143188477, 3.3394722938537598, 0.32209786772727966, -27.924545288085938, -112.39885711669922, -39.220367431640625, -0.116943359375, 0.366455078125, -0.881591796875
422, 1804173480, -12.67844295501709, 4.580808639526367, -1.100268006324768, -35.94027328491211, -82.00936126708984, -4.261472225189209, -0.1416015625, 0.37548828125, -0.873291015625
423, 1804190147, -14.378713607788086, 2.6699488162994385, -2.381948709487915, -32.44313430786133, -52.409881591796875, 30.929534912109375, -0.155029296875, 0.384033203125, -0.86669921875
424, 1804206814, -14.649921417236328, 0.7674949169158936, -3.4526591300964355, -15.232709884643555, -16.3154354095459, 47.36909103393555, -0.15673828125, 0.38916015625, -0.862548828125
425, 1804223481, -15.7777099609375, -0.7083362340927124, -3.555978298187256, 3.7603371143341064, 20.831748962402344, 41.00395965576172, -0.145751953125, 0.3935546875, -0.864990234375
426, 1804240148, -16.826011657714844, -1.4358720779418945, -3.199256181716919, 23.975324630737305, 50.6014518737793, 25.802919387817383, -0.13525390625, 0.389892578125, -0.8671875
427, 1804256815, 12.78665828704834, -8.37153434753418, 24.219707489013672, 1.1395024061203003, 91.3803939819336, 33.76622772216797, -0.10791015625, 0.39013671875, -0.871826171875
428, 1804273482, 10.568475723266602, -3.9068052768707275, 8.585383415222168, 28.660289764404297, 72.3519515991211, 81.41532135009766, -0.083251953125, 0.38525390625, -0.873779296875
429, 1804290149, -5.893198490142822, -0.32761529088020325, 1.0700616836547852, -6.1663641929626465, 204.4145050048828, 50.19309997558594, -0.02978515625, 0.380615234375, -0.877685546875
430, 1804306816, -13.154778480529785, -4.664516925811768, 15.79745864868164, -25.317689895629883, 171.49317932128906, -8.721434593200684, 0.02197265625, 0.389404296875, -0.875
431, 1804323483, -2.778430938720703, 4.653462886810303, 9.20090103149414, -23.56769561767578, 149.1728973388672, 26.151479721069336, 0.0625, 0.392822265625, -0.869384765625
432, 1804340150, -6.809138298034668, 0.45293128490448, 11.163464546203613, -52.347412109375, 151.27294921875, 45.56135559082031, 0.111328125, 0.4052734375, -0.865478515625
433, 1804356817, -7.873258113861084, -7.331369876861572, 7.65074348449707, -47.30086135864258, 140.52178955078125, 45.93333435058594, 0.152587890625, 0.414794921875, -0.849853515625
434, 1804373484, -7.446109771728516, -9.65617561340332, 6.78869104385376, -19.591266632080078, 136.5897216796875, 27.12985610961914, 0.190673828125, 0.419921875, -0.840576171875
435, 1804390151, -11.843188285827637, -8.850377082824707, 11.534527778625488, 43.39830017089844, 117.82461547851562, 35.24209976196289, 0.229248046875, 0.4140625, -0.82958984375
436, 1804406818, -13.47675609588623, -2.105924606323242, 8.317492485046387, 60.297607421875, 35.8148078918457, 31.117868423461914, 0.24658203125, 0.39501953125, -0.83642578125
437, 1804423485, -6.827549934387207, -2.282930612564087, 9.490736961364746, 43.195838928222656, 18.426944732666016, 18.29195213317871, 0.25439453125, 0.380859375, -0.842529296875
438, 1804440152, -6.736739158630371, -0.9450482130050659, 9.18748950958252, 27.666915893554688, 10.121465682983398, 11.960245132446289, 0.26123046875, 0.373046875, -0.844482421875
439, 1804456819, -6.339327812194824, -1.5975031852722168, 8.569252967834473, 13.338174819946289, 5.450302600860596, 4.043575286865234, 0.262939453125, 0.367919921875, -0.846435546875
440, 1804473486, -5.744867324829102, -1.4730585813522339, 8.530370712280273, 2.713531494140625, 4.194150924682617, -0.7536537647247314, 0.265625, 0.365478515625, -0.845703125
441, 1804490153, -5.490284442901611, -1.886954665184021, 8.17391586303711, -4.353455543518066, 4.710336685180664, -4.19655179977417, 0.263916015625, 0.364990234375, -0.84619140625
442, 1804506820, -5.10191011428833, -2.4744150638580322, 7.81747579574585, -5.841745376586914, 4.313787460327148, -3.433805227279663, 0.266357421875, 0.367431640625, -0.84375
443, 1804523487, -4.91734504699707, -2.720039129257202, 7.5485148429870605, -2.176708221435547, 3.774101734161377, 0.48655807971954346, 0.2685546875, 0.368408203125, -0.844482421875
444, 1804540154, -5.056318283081055, -2.787646532058716, 7.454833030700684, 2.9560327529907227, 2.3263442516326904, 3.783297300338745, 0.27001953125, 0.365478515625, -0.842041015625
445, 1804556821, -5.182858467102051, -2.9521687030792236, 7.460637092590332, 11.413620948791504, -2.222005605697632, 7.960874080657959, 0.269775390625, 0.36083984375, -0.846435546875
446, 1804573488, -5.269408702850342, -3.017225980758667, 7.470497131347656, 18.352832794189453, -8.478983879089355, 11.699102401733398, 0.270751953125, 0.358154296875, -0.845947265625
447, 1804590155, -5.39467716217041, -2.0998597145080566, 7.932491779327393, 16.088468551635742, -9.537467002868652, 8.981253623962402, 0.268798828125, 0.35302734375, -0.848388671875
448, 1804606822, -5.2747650146484375, -1.998715877532959, 8.038398742675781, 11.858299255371094, -8.147343635559082, 6.24014949798584, 0.268798828125, 0.349365234375, -0.85205078125
449, 1804623489, -5.175053119659424, -2.1045000553131104, 7.945250511169434, 7.697751522064209, -5.504413604736328, 4.297421932220459, 0.266357421875, 0.348388671875, -0.85205078125
450, 1804640156, -5.065349578857422, -2.212322235107422, 8.003901481628418, 4.919591426849365, -2.5145907402038574, 2.6126043796539307, 0.265869140625, 0.34619140625, -0.855712890625
451, 1804656823, -5.105388164520264, -2.304610013961792, 7.860880374908447, 4.218367099761963, -0.4137219488620758, 2.7118022441864014, 0.2666015625, 0.3427734375, -0.855712890625
452, 1804673490, -5.05853796005249, -2.4980947971343994, 7.765691757202148, 6.681298732757568, -0.06010022386908531, 4.960330009460449, 0.2666015625, 0.34326171875, -0.85400390625
453, 1804690157, -5.10274600982666, -2.5171329975128174, 7.774532318115234, 12.156404495239258, -1.2767044305801392, 9.368498802185059, 0.26611328125, 0.337158203125, -0.857666015625
454, 1804706824, -5.151243209838867, -2.4930472373962402, 7.778530120849609, 17.100431442260742, -2.7289481163024902, 12.678671836853027, 0.27197265625, 0.330322265625, -0.85888671875
455, 1804723491, -5.021607398986816, -2.0189929008483887, 7.901174068450928, 16.989604949951172, -1.6297900676727295, 14.198674201965332, 0.2705078125, 0.3271484375, -0.862548828125
456, 1804740158, -4.829182147979736, -2.0033209323883057, 8.034334182739258, 13.269658088684082, 3.9194211959838867, 14.877968788146973, 0.27294921875, 0.322265625, -0.861328125
457, 1804756825, -4.862852573394775, -1.882390022277832, 8.13770866394043, 9.165605545043945, 11.766682624816895, 18.10597801208496, 0.2763671875, 0.31640625, -0.861572265625
458, 1804773492, -4.687128067016602, -1.9300845861434937, 8.304303169250488, 5.2161760330200195, 21.52599334716797, 18.956327438354492, 0.282958984375, 0.3125, -0.861328125
459, 1804790159, -4.85830545425415, -1.6291767358779907, 8.509134292602539, 1.3911685943603516, 36.108612060546875, 19.95046043395996, 0.295654296875, 0.310546875, -0.85693359375
460, 1804806826, -4.852924346923828, -2.079786539077759, 8.648036003112793, -1.851654291152954, 54.795677185058594, 21.392160415649414, 0.308349609375, 0.306396484375, -0.852783203125
461, 1804823493, -4.678291320800781, -1.5361368656158447, 9.158323287963867, -4.9807000160217285, 79.46157836914062, 21.285932540893555, 0.32861328125, 0.30712890625, -0.84765625
462, 1804840160, -5.058407783508301, -1.054373860359192, 9.152973175048828, -8.144227981567383, 108.73590850830078, 17.40234375, 0.358154296875, 0.304931640625, -0.83447265625
463, 1804856827, -4.834391117095947, -1.7011818885803223, 9.587132453918457, -12.9302978515625, 150.29881286621094, 14.986517906188965, 0.3935546875, 0.305419921875, -0.81689453125
464, 1804873494, -5.0988898277282715, -2.6204335689544678, 9.458744049072266, -19.060115814208984, 201.09837341308594, 24.539094924926758, 0.441650390625, 0.307861328125, -0.791748046875
465, 1804890161, -4.876307487487793, -2.984858512878418, 9.790743827819824, -18.851022720336914, 252.0022430419922, 42.84551239013672, 0.498779296875, 0.306396484375, -0.754638671875
466, 1804906828, -5.665574550628662, -2.183887481689453, 9.136702537536621, -10.088275909423828, 323.98095703125, 60.01708984375, 0.57275390625, 0.30224609375, -0.7080078125
467, 1804923495, -5.712484359741211, -3.7686712741851807, 10.53383731842041, -0.2293378710746765, 410.28887939453125, 90.1921615600586, 0.658935546875, 0.289794921875, -0.638427734375
468, 1804940162, -10.317418098449707, -6.931870937347412, 13.081754684448242, -4.929845333099365, 460.2759704589844, 142.98184204101562, 0.74755859375, 0.2587890625, -0.5419921875
469, 1804956829, -15.27329158782959, -6.6048688888549805, 13.832225799560547, -24.75042724609375, 474.86688232421875, 200.90899658203125, 0.837890625, 0.21630859375, -0.42919921875
470, 1804973496, -22.594524383544922, -6.37221622467041, 16.87334632873535, -49.825111389160156, 446.4752502441406, 199.50094604492188, 0.903076171875, 0.167236328125, -0.31005859375
471, 1804990163, -18.860858917236328, -11.153844833374023, 19.28681755065918, -32.95647048950195, 367.3287658691406, 185.61764526367188, 0.94775390625, 0.119873046875, -0.204345703125
472, 1805006830, -5.64327335357666, -10.682066917419434, 17.456838607788086, 35.93027877807617, 312.7686767578125, 225.6609344482422, 0.971435546875, 0.05908203125, -0.116455078125
473, 1805023497, -11.371325492858887, -18.329294204711914, 16.736209869384766, 129.2835235595703, 323.5691223144531, 175.42274475097656, 0.988037109375, -0.005126953125, -0.0283203125
474, 1805040164, -25.57378578186035, -17.341686248779297, 34.95878982543945, 110.06352996826172, 75.14566802978516, -11.609789848327637, 0.98681640625, -0.016357421875, 0.015869140625
475, 1805056831, -5.900697708129883, -13.06001091003418, 22.491853713989258, 120.31678771972656, -155.9695587158203, -126.20362091064453, 0.987548828125, 0.0146484375, -0.016845703125
476, 1805073498, 2.665611505508423, -5.295196056365967, 13.134910583496094, 137.35565185546875, -207.5963134765625, -134.3754425048828, 0.978759765625, 0.052978515625, -0.07763671875
477, 1805090165, 2.512533664703369, -0.9737080931663513, 10.068001747131348, 106.14860534667969, -201.05116271972656, -125.15042114257812, 0.9697265625, 0.08154296875, -0.1357421875
478, 1805106832, -0.6879259347915649, 0.21617716550827026, 9.38195514678955, 53.14085388183594, -196.9095001220703, -118.24180603027344, 0.9560546875, 0.11279296875, -0.193603515625
479, 1805123499, -4.0983805656433105, -0.3836878538131714, 9.002059936523438, 15.064393997192383, -210.26193237304688, -104.7740707397461, 0.93505859375, 0.140380859375, -0.25048828125
480, 1805140166, -7.356744289398193, -0.982024073600769, 8.939329147338867, 1.9218865633010864, -239.6684112548828, -87.6590805053711, 0.911376953125, 0.1650390625, -0.310791015625
481, 1805156833, -9.633886337280273, -0.6993370056152344, 9.107525825500488, -3.3509111404418945, -277.57049560546875, -73.95893096923828, 0.877685546875, 0.183837890625, -0.3798828125
482, 1805173500, -10.419815063476562, -0.1817995309829712, 8.707109451293945, -17.20439338684082, -313.1241760253906, -69.36084747314453, 0.835693359375, 0.203857421875, -0.454833984375
483, 1805190167, -10.54133415222168, -0.40588629245758057, 7.983059883117676, -36.183719635009766, -334.85723876953125, -69.8010025024414, 0.777587890625, 0.2236328125, -0.527587890625
484, 1805206834, -10.615019798278809, -0.9943216443061829, 7.652797698974609, -47.384830474853516, -342.0589599609375, -72.00987243652344, 0.7158203125, 0.24853515625, -0.601318359375
485, 1805223501, -11.919578552246094, -1.4632108211517334, 8.626741409301758, -52.854949951171875, -341.1047668457031, -77.79528045654297, 0.644775390625, 0.27294921875, -0.663818359375
486, 1805240168, -13.726340293884277, -1.9960031509399414, 9.908611297607422, -56.16755294799805, -344.62261962890625, -87.20822143554688, 0.5654296875, 0.296875, -0.718017578125
487, 1805256835, -14.858955383300781, -2.4317195415496826, 10.650895118713379, -55.756649017333984, -348.14642333984375, -95.99928283691406, 0.480712890625, 0.32421875, -0.767578125
488, 1805273502, -16.56984519958496, -2.873800277709961, 11.72911262512207, -54.56538009643555, -342.4597473144531, -100.76060485839844, 0.39111328125, 0.3505859375, -0.802490234375
489, 1805290169, -20.909461975097656, -3.3707849979400635, 12.840925216674805, -56.309818267822266, -330.9975891113281, -110.23599243164062, 0.296142578125, 0.37353515625, -0.830078125
490, 1805306836, -26.872058868408203, -3.7728092670440674, 12.608723640441895, -52.02073287963867, -326.0717468261719, -130.97125244140625, 0.19775390625, 0.396728515625, -0.84814453125
491, 1805323503, -29.591129302978516, -5.465525150299072, 7.402429580688477, -20.950443267822266, -335.92315673828125, -143.4226837158203, 0.09716796875, 0.412841796875, -0.858154296875
492, 1805340170, -32.479095458984375, -6.196078300476074, -1.6992199420928955, 46.485931396484375, -339.6806335449219, -111.14533233642578, -0.00830078125, 0.405517578125, -0.866943359375
493, 1805356837, -36.76163864135742, 5.762650966644287, -12.610733985900879, 23.410076141357422, -314.3822326660156, -67.65898895263672, -0.098876953125, 0.393310546875, -0.86865234375
494, 1805373504, -30.654354095458984, 20.67486000061035, -27.89434814453125, -193.9662322998047, -193.54916381835938, -94.35033416748047, -0.169921875, 0.423828125, -0.842041015625
495, 1805390171, -19.19013786315918, 5.182234764099121, -29.389423370361328, -190.35423278808594, 25.43813133239746, -0.06236221641302109, -0.184326171875, 0.478759765625, -0.810302734375
496, 1805406838, -28.850820541381836, 1.1060112714767456, -10.04102897644043, -26.603757858276367, 132.84414672851562, 120.61743927001953, -0.14404296875, 0.49560546875, -0.8076171875
497, 1805423505, -30.38295555114746, -2.7735157012939453, 0.08070090413093567, -17.354036331176758, 101.14533996582031, 106.85655212402344, -0.09619140625, 0.5029296875, -0.810302734375
498, 1805440172, -15.262520790100098, -13.383131980895996, 1.120853304862976, -1.2944597005844116, 88.26470947265625, 45.52436065673828, -0.0654296875, 0.50634765625, -0.809326171875
499, 1805456839, 14.505952835083008, -21.68855857849121, 23.914306640625, 203.80967712402344, 162.59547424316406, 18.63445472717285, -0.023681640625, 0.468017578125, -0.8349609375
500, 1805473506, 12.843189239501953, 9.352066040039062, -1.996501088142395, 172.79376220703125, 215.0476531982422, 22.895288467407227, 0.019775390625, 0.424560546875, -0.858154296875
501, 1805490173, -20.65024185180664, 14.57884693145752, 13.471240043640137, 94.9278335571289, 358.8763427734375, 22.174659729003906, 0.114013671875, 0.392333984375, -0.86572265625
502, 1805506840, -19.469078063964844, 7.3163604736328125, 16.842185974121094, 94.0877456665039, 253.11863708496094, 99.03849029541016, 0.196533203125, 0.3642578125, -0.862060546875
503, 1805523507, -37.76025390625, -11.843782424926758, 22.16683578491211, 144.70513916015625, 80.34458923339844, 112.99745178222656, 0.251953125, 0.315673828125, -0.86767578125
504, 1805540174, -8.325462341308594, 8.42146110534668, 10.905572891235352, 43.98816680908203, 2.300213575363159, 23.253557205200195, 0.25537109375, 0.297607421875, -0.871337890625
505, 1805556841, -5.765941619873047, -0.8635997176170349, 9.152973175048828, 2.5760695934295654, 11.308187484741211, -10.395792007446289, 0.25390625, 0.296630859375, -0.872802734375
506, 1805573508, -6.0386881828308105, -4.168519496917725, 7.794822692871094, -4.376779079437256, 10.120553016662598, -10.533961296081543, 0.25927734375, 0.2998046875, -0.872802734375
507, 1805590175, -5.823127746582031, -1.6387672424316406, 8.126461029052734, -0.7597367763519287, 4.764007091522217, -3.2007808685302734, 0.26025390625, 0.29931640625, -0.86962890625
508, 1805606842, -5.26798152923584, -2.271491765975952, 8.286181449890137, -5.4193291664123535, 7.90844202041626, -6.163198471069336, 0.2587890625, 0.29931640625, -0.86767578125
509, 1805623509, -4.9482574462890625, -2.282245397567749, 8.247727394104004, -6.627495288848877, 13.275102615356445, -3.412599802017212, 0.264892578125, 0.302490234375, -0.868408203125
510, 1805640176, -5.110109806060791, -1.7209243774414062, 7.826133728027344, -9.036314964294434, 18.01409912109375, -3.5233781337738037, 0.267333984375, 0.303466796875, -0.868408203125
511, 1805656843, -5.223276615142822, -1.8778561353683472, 8.40550422668457, -11.82162857055664, 20.620895385742188, -3.5027482509613037, 0.2724609375, 0.30810546875, -0.86279296875
512, 1805673510, -5.401557445526123, -2.4707820415496826, 7.659577369689941, -11.99410629272461, 19.970945358276367, -2.9997012615203857, 0.27880859375, 0.309814453125, -0.8583984375
513, 1805690177, -5.454122543334961, -2.635413885116577, 7.527370452880859, -8.424641609191895, 17.469669342041016, -1.3114614486694336, 0.284423828125, 0.31201171875, -0.856689453125
514, 1805706844, -5.481503963470459, -2.46268367767334, 7.4549665451049805, -4.358375549316406, 14.133307456970215, 0.6128547191619873, 0.287841796875, 0.315185546875, -0.854248046875
515, 1805723511, -5.369926452636719, -2.2613675594329834, 7.600291728973389, -1.2244925498962402, 11.534870147705078, 2.5324506759643555, 0.2919921875, 0.315185546875, -0.85498046875
516, 1805740178, -5.368161678314209, -2.289700508117676, 7.634736061096191, 1.048001766204834, 10.616578102111816, 4.471998691558838, 0.294677734375, 0.314208984375, -0.85546875
517, 1805756845, -5.424083232879639, -2.3221001625061035, 7.626746654510498, 3.761425733566284, 9.968436241149902, 7.288885116577148, 0.2998046875, 0.310546875, -0.854736328125
518, 1805773512, -5.360816478729248, -2.524221897125244, 7.43271541595459, 7.099098205566406, 9.05176067352295, 11.579787254333496, 0.30224609375, 0.307373046875, -0.8544921875
519, 1805790179, -5.455657482147217, -2.5195257663726807, 7.372702598571777, 7.5782246589660645, 7.6125593185424805, 16.770301818847656, 0.305908203125, 0.304443359375, -0.85302734375
520, 1805806846, -5.237350940704346, -2.479724884033203, 7.803808212280273, 4.341393947601318, 7.748696804046631, 23.183584213256836, 0.31103515625, 0.3017578125, -0.852783203125
521, 1805823513, -5.327148914337158, -2.0147902965545654, 7.933387279510498, 3.0652036666870117, 13.487021446228027, 27.804607391357422, 0.314208984375, 0.296630859375, -0.85302734375
522, 1805840180, -5.477379322052002, -1.6534435749053955, 7.994643688201904, 1.4984970092773438, 24.286819458007812, 26.536062240600586, 0.324462890625, 0.294921875, -0.8505859375
523, 1805856847, -5.237422466278076, -1.4149986505508423, 8.336352348327637, -0.2662331759929657, 40.325435638427734, 21.86225700378418, 0.335205078125, 0.29296875, -0.84814453125
524, 1805873514, -5.150154113769531, -1.6634737253189087, 8.495134353637695, -3.9379196166992188, 60.928489685058594, 20.037019729614258, 0.350830078125, 0.289794921875, -0.842529296875
525, 1805890181, -5.052496433258057, -1.6854262351989746, 8.766764640808105, -7.945876121520996, 88.3206787109375, 18.178922653198242, 0.374267578125, 0.2900390625, -0.83056640625
526, 1805906848, -5.087950706481934, -1.7071890830993652, 8.9728422164917, -17.429075241088867, 126.80371856689453, 19.911624908447266, 0.402587890625, 0.2900390625, -0.8154296875
527, 1805923515, -5.45669412612915, -1.1335382461547852, 9.009159088134766, -24.8929443359375, 169.72332763671875, 19.921159744262695, 0.443359375, 0.29443359375, -0.797607421875
528, 1805940182, -5.514035701751709, -0.604616105556488, 9.340070724487305, -21.75811767578125, 219.80133056640625, 11.33063793182373, 0.492431640625, 0.295654296875, -0.766357421875
529, 1805956849, -4.945877552032471, -2.192776918411255, 9.324105262756348, -16.8481388092041, 290.8966979980469, 10.476600646972656, 0.55615234375, 0.29638671875, -0.7177734375
530, 1805973516, -4.872714519500732, -3.7139532566070557, 9.164712905883789, -29.94211196899414, 382.31524658203125, 38.0734748840332, 0.63037109375, 0.297119140625, -0.656494140625
531, 1805990183, -6.504435062408447, -8.041749954223633, 12.67719841003418, -38.967403411865234, 476.5458984375, 101.90892791748047, 0.7236328125, 0.287353515625, -0.556396484375
532, 1806006850, -13.079073905944824, -7.549583911895752, 12.91178035736084, -38.33707809448242, 533.33154296875, 179.1584930419922, 0.81982421875, 0.254638671875, -0.436767578125
533, 1806023517, -26.321243286132812, -8.385828971862793, 18.177526473999023, -69.45099639892578, 512.5697021484375, 198.1734161376953, 0.896728515625, 0.2119140625, -0.301025390625
534, 1806040184, -27.57982063293457, -9.086099624633789, 23.483707427978516, -93.27651977539062, 446.3960266113281, 174.54632568359375, 0.947998046875, 0.166259765625, -0.17138671875
535, 1806056851, -10.886354446411133, -11.26206111907959, 20.696889877319336, -75.52108001708984, 360.530029296875, 188.40074157714844, 0.9716796875, 0.12109375, -0.063232421875
536, 1806073518, -8.852705001831055, -15.116806030273438, 12.50164794921875, 43.01708984375, 377.6624755859375, 205.18568420410156, 0.984130859375, 0.054443359375, 0.03759765625
537, 1806090185, -31.30525016784668, -18.680622100830078, 35.20769500732422, 50.56309509277344, 177.39825439453125, 50.4143180847168, 0.9814453125, 0.029296875, 0.110595703125
538, 1806106852, -12.561371803283691, -14.84852409362793, 26.013980865478516, 80.56682586669922, -116.57726287841797, -80.18148803710938, 0.982666015625, 0.04736328125, 0.092041015625
539, 1806123519, 1.1077775955200195, -6.379286766052246, 13.691393852233887, 123.49134826660156, -210.00416564941406, -107.01414489746094, 0.980224609375, 0.07958984375, 0.032958984375
540, 1806140186, 3.0713984966278076, -0.7693740129470825, 9.240835189819336, 114.61898040771484, -214.64256286621094, -100.40107727050781, 0.977783203125, 0.1083984375, -0.030517578125
541, 1806156853, 2.2028982639312744, 2.75164794921875, 8.098929405212402, 62.856693267822266, -205.16334533691406, -101.49855041503906, 0.9658203125, 0.131591796875, -0.091796875
542, 1806173520, -0.04872728884220123, 3.317124366760254, 7.576415538787842, 0.43852272629737854, -202.90748596191406, -96.89881134033203, 0.9541015625, 0.162841796875, -0.148193359375
543, 1806190187, -2.7808940410614014, 2.0778653621673584, 7.3773980140686035, -26.438053131103516, -214.13363647460938, -75.96239471435547, 0.93798828125, 0.186279296875, -0.206298828125
544, 1806206854, -6.149146556854248, 0.9405151605606079, 7.884607791900635, -21.75601577758789, -243.3215789794922, -52.707115173339844, 0.917724609375, 0.202880859375, -0.267333984375
545, 1806223521, -8.480501174926758, 0.8290297985076904, 8.38449478149414, -15.050228118896484, -283.472900390625, -42.352378845214844, 0.88818359375, 0.2158203125, -0.338134765625
546, 1806240188, -9.68846607208252, 0.6597648859024048, 8.462373733520508, -21.43463897705078, -321.2743225097656, -47.21073913574219, 0.84912109375, 0.231689453125, -0.4140625
547, 1806256855, -9.93869686126709, -0.13650187849998474, 7.999754905700684, -28.16193389892578, -349.2907409667969, -56.95851135253906, 0.794677734375, 0.24609375, -0.49462890625
548, 1806273522, -10.335762023925781, -1.0372741222381592, 7.827581405639648, -27.547441482543945, -362.41748046875, -65.84419250488281, 0.735107421875, 0.265380859375, -0.572509765625
549, 1806290189, -11.921385765075684, -1.9712802171707153, 8.715106964111328, -23.700410842895508, -366.4937744140625, -73.85713195800781, 0.66259765625, 0.283447265625, -0.643310546875
550, 1806306856, -14.29626178741455, -2.89492130279541, 10.372489929199219, -23.419652938842773, -371.6146240234375, -85.88352966308594, 0.580322265625, 0.30419921875, -0.707763671875
551, 1806323523, -16.956501007080078, -3.929262399673462, 12.35093879699707, -29.9971981048584, -377.5613708496094, -101.97900390625, 0.48779296875, 0.326904296875, -0.763427734375
552, 1806340190, -20.633914947509766, -5.745638847351074, 14.489980697631836, -39.717342376708984, -381.444091796875, -119.41102600097656, 0.385986328125, 0.34912109375, -0.805419921875
553, 1806356857, -26.47388458251953, -6.256076335906982, 14.120737075805664, -40.81654357910156, -379.2602844238281, -140.0970458984375, 0.278564453125, 0.372802734375, -0.84033203125
554, 1806373524, -34.03157424926758, -7.635577201843262, 10.139676094055176, -22.776247024536133, -378.7107849121094, -154.68199157714844, 0.16552734375, 0.39013671875, -0.86083984375
555, 1806390191, -36.840789794921875, -8.93932819366455, 0.992002010345459, 32.98981475830078, -384.2195129394531, -144.10699462890625, 0.0458984375, 0.39306640625, -0.873779296875
556, 1806406858, -42.61857223510742, 1.9985408782958984, -11.847238540649414, 41.90222930908203, -359.535400390625, -110.35357666015625, -0.065673828125, 0.376220703125, -0.877197265625
557, 1806423525, -40.0206298828125, 28.246923446655273, -32.28890609741211, -151.1053009033203, -244.48440551757812, -123.3200912475586, -0.154296875, 0.3974609375, -0.862060546875
558, 1806440192, -25.703582763671875, 11.19708251953125, -37.571571350097656, -196.4179229736328, -2.515125036239624, -4.363050937652588, -0.18017578125, 0.45361328125, -0.828125
559, 1806456859, -32.743438720703125, -1.509119987487793, -14.19314193725586, 22.831565856933594, 140.16461181640625, 191.03848266601562, -0.129638671875, 0.466796875, -0.83056640625
560, 1806473526, -8.685343742370605, -2.3335158824920654, 7.6013665199279785, 146.08412170410156, 195.62208557128906, 230.4962921142578, -0.0517578125, 0.43212890625, -0.855712890625
561, 1806490193, -0.13456448912620544, -13.24172592163086, 13.923510551452637, 82.65965270996094, 233.50827026367188, 90.32533264160156, 0.0205078125, 0.41259765625, -0.863037109375
562, 1806506860, -19.497413635253906, 2.531768321990967, 11.855684280395508, 46.0504264831543, 320.85235595703125, -10.481157302856445, 0.102783203125, 0.396728515625, -0.864501953125
563, 1806523527, -19.249767303466797, 10.200746536254883, 17.061800003051758, 34.81167984008789, 239.35540771484375, 26.91704559326172, 0.172607421875, 0.3876953125, -0.85693359375
564, 1806540194, -7.380970478057861, 1.3993631601333618, 9.65537166595459, -3.2034101486206055, 180.12193298339844, 99.47416687011719, 0.231689453125, 0.380615234375, -0.849365234375
565, 1806556861, -30.48893165588379, -17.710880279541016, 12.797825813293457, 119.96038818359375, 55.5232048034668, 62.35398483276367, 0.264404296875, 0.350341796875, -0.8515625
566, 1806573528, -8.82136058807373, 2.2000863552093506, 11.154389381408691, 41.31940460205078, -0.9008694291114807, 21.194984436035156, 0.2734375, 0.33349609375, -0.85791015625
567, 1806590195, -6.991352558135986, -0.1314794421195984, 9.906087875366211, 19.31659507751465, 0.25636425614356995, 4.5505828857421875, 0.27392578125, 0.3251953125, -0.8583984375
568, 1806606862, -6.305331707000732, -2.42846941947937, 8.2843599319458, 2.32905912399292, 3.1145238876342773, -2.7509195804595947, 0.2744140625, 0.3251953125, -0.8603515625
569, 1806623529, -5.807244777679443, -1.4913444519042969, 8.324110984802246, -2.4591012001037598, 6.337037086486816, -3.50850510597229, 0.275146484375, 0.32470703125, -0.857177734375
570, 1806640196, -5.297719478607178, -2.045501708984375, 8.284269332885742, -7.01620626449585, 11.226290702819824, -4.370719909667969, 0.278076171875, 0.327392578125, -0.859619140625
571, 1806656863, -5.251473426818848, -1.987583875656128, 8.134636878967285, -9.508315086364746, 15.489584922790527, -2.8096392154693604, 0.281005859375, 0.327392578125, -0.85546875
572, 1806673530, -5.123898506164551, -2.345592975616455, 8.104747772216797, -11.2252197265625, 18.776399612426758, -0.791023850440979, 0.2861328125, 0.33349609375, -0.851806640625
573, 1806690197, -5.532859802246094, -2.432265043258667, 7.8687005043029785, -12.173162460327148, 19.856761932373047, 1.6415274143218994, 0.29150390625, 0.334228515625, -0.8505859375
574, 1806706864, -5.619821071624756, -2.6194398403167725, 7.451430797576904, -9.504796981811523, 18.36778450012207, 3.0310819149017334, 0.298095703125, 0.33740234375, -0.846923828125
575, 1806723531, -5.578042030334473, -2.5431535243988037, 7.425872802734375, -5.632827281951904, 14.918251991271973, 4.514312744140625, 0.30224609375, 0.3359375, -0.84521484375
576, 1806740198, -5.59058952331543, -2.3560197353363037, 7.423176288604736, -2.2548153400421143, 11.905155181884766, 4.900115489959717, 0.3076171875, 0.33837890625, -0.843017578125
577, 1806756865, -5.6203484535217285, -2.2560086250305176, 7.374952793121338, 1.4057981967926025, 8.93100357055664, 4.675900459289551, 0.310791015625, 0.3369140625, -0.845458984375
578, 1806773532, -5.599574089050293, -2.2375009059906006, 7.398123264312744, 2.6359381675720215, 6.34468412399292, 4.725768566131592, 0.309326171875, 0.3349609375, -0.84130859375
579, 1806790199, -5.579731464385986, -2.2658588886260986, 7.417909622192383, 3.97666072845459, 4.756093502044678, 5.963028430938721, 0.31396484375, 0.33740234375, -0.841796875
580, 1806806866, -5.529452800750732, -2.260357141494751, 7.492221832275391, 4.653604984283447, 3.8859922885894775, 7.963548183441162, 0.314453125, 0.331787109375, -0.841064453125
581, 1806823533, -5.497478008270264, -2.2899842262268066, 7.437736988067627, 6.131626129150391, 3.3984549045562744, 10.820250511169434, 0.316162109375, 0.32763671875, -0.842529296875
582, 1806840200, -5.469038963317871, -2.367919683456421, 7.378612518310547, 8.094255447387695, 2.8073019981384277, 14.391770362854004, 0.317626953125, 0.3232421875, -0.842529296875
583, 1806856867, -5.198774337768555, -2.3048832416534424, 7.794985771179199, 10.873716354370117, 5.073493003845215, 17.40426254272461, 0.323486328125, 0.319091796875, -0.84375
584, 1806873534, -5.304676055908203, -1.8583154678344727, 8.020151138305664, 7.5018181800842285, 12.247182846069336, 21.322525024414062, 0.328369140625, 0.31591796875, -0.843017578125
585, 1806890201, -5.268986701965332, -2.1730551719665527, 8.114842414855957, 4.733867168426514, 22.5760498046875, 24.940204620361328, 0.335205078125, 0.31103515625, -0.84375
586, 1806906868, -5.134462356567383, -2.197248697280884, 8.271531105041504, 2.489516019821167, 38.867576599121094, 26.462556838989258, 0.346923828125, 0.308349609375, -0.837890625
587, 1806923535, -4.964115619659424, -2.0212583541870117, 8.732823371887207, -2.8348371982574463, 64.31580352783203, 28.206073760986328, 0.36474609375, 0.306640625, -0.833740234375
588, 1806940202, -4.842348098754883, -1.433614730834961, 9.345383644104004, -8.233725547790527, 100.61856079101562, 27.093128204345703, 0.3916015625, 0.3017578125, -0.822021484375
589, 1806956869, -5.073888778686523, -1.367067575454712, 9.327313423156738, -16.256994247436523, 144.91864013671875, 25.785877227783203, 0.426513671875, 0.302490234375, -0.804443359375
590, 1806973536, -5.515627384185791, -0.7295464873313904, 9.369242668151855, -21.89862060546875, 195.23825073242188, 21.289243698120117, 0.469970703125, 0.30419921875, -0.777587890625
591, 1806990203, -4.994353771209717, -2.301013946533203, 9.965020179748535, -12.439445495605469, 254.57913208007812, 20.379606246948242, 0.526611328125, 0.30517578125, -0.73974609375
592, 1807006870, -5.258029937744141, -3.0384271144866943, 8.675760269165039, -11.148838996887207, 332.2257080078125, 40.828243255615234, 0.595458984375, 0.301513671875, -0.687255859375
593, 1807023537, -5.4935526847839355, -4.9040327072143555, 10.28718090057373, -12.936667442321777, 424.6997375488281, 85.8834457397461, 0.681396484375, 0.29052734375, -0.609619140625
594, 1807040204, -10.310953140258789, -9.139620780944824, 14.15818977355957, -2.4363954067230225, 494.1242980957031, 160.56292724609375, 0.775146484375, 0.26025390625, -0.508056640625
595, 1807056871, -18.44109344482422, -8.879864692687988, 17.06458282470703, -14.985020637512207, 513.2048950195312, 228.41087341308594, 0.864990234375, 0.209228515625, -0.383056640625
596, 1807073538, -27.033716201782227, -7.276480674743652, 19.787351608276367, -58.753971099853516, 478.9012756347656, 208.62098693847656, 0.930908203125, 0.154541015625, -0.25341796875
597, 1807090205, -19.34454345703125, -13.834057807922363, 21.415475845336914, -51.592063903808594, 382.095703125, 199.86915588378906, 0.9638671875, 0.10107421875, -0.138916015625
598, 1807106872, -3.842298984527588, -15.018332481384277, 13.424247741699219, 72.6083984375, 350.7796630859375, 244.29734802246094, 0.984375, 0.031494140625, -0.042724609375
599, 1807123539, -25.870418548583984, -20.742530822753906, 29.53711700439453, 106.50138854980469, 319.0392761230469, 88.56146240234375, 0.98974609375, -0.009521484375, 0.05859375
600, 1807140206, -18.21782112121582, -17.436092376708984, 30.81912612915039, 131.97390747070312, 2.5176422595977783, -82.53763580322266, 0.9892578125, 0.004150390625, 0.076171875
601, 1807156873, -1.27281653881073, -8.484888076782227, 18.50048828125, 169.3656005859375, -153.80140686035156, -138.51084899902344, 0.98828125, 0.046142578125, 0.041748046875
602, 1807173540, 2.796365261077881, -1.4495389461517334, 12.062906265258789, 157.6601104736328, -187.08828735351562, -132.19314575195312, 0.983642578125, 0.086669921875, -0.019287109375
603, 1807190207, 2.4544546604156494, 2.7329015731811523, 9.742887496948242, 99.18140411376953, -190.65443420410156, -125.97119140625, 0.97607421875, 0.117431640625, -0.075439453125
604, 1807206874, -0.28887295722961426, 3.81498122215271, 8.863765716552734, 21.565696716308594, -197.2055206298828, -114.19892883300781, 0.963134765625, 0.149169921875, -0.129150390625
605, 1807223541, -3.4831271171569824, 1.9362061023712158, 8.278430938720703, -16.132343292236328, -218.99989318847656, -81.37090301513672, 0.948974609375, 0.1767578125, -0.189453125
606, 1807240208, -6.89382791519165, 0.47019922733306885, 8.37901496887207, -11.876971244812012, -255.8658905029297, -42.649715423583984, 0.926025390625, 0.190185546875, -0.256103515625
607, 1807256875, -8.816950798034668, 0.24615837633609772, 8.24899673461914, -5.698695659637451, -297.68402099609375, -21.852027893066406, 0.897705078125, 0.198486328125, -0.33203125
608, 1807273542, -9.11777400970459, -0.04752037674188614, 7.708322525024414, -15.002742767333984, -327.6471252441406, -22.10695457458496, 0.860107421875, 0.2060546875, -0.40771484375
609, 1807290209, -9.279245376586914, -1.1522480249404907, 7.185649394989014, -27.03421401977539, -341.3839111328125, -32.46510314941406, 0.810302734375, 0.2158203125, -0.488525390625
610, 1807306876, -9.982810974121094, -2.485492706298828, 7.134335041046143, -30.54901123046875, -345.15673828125, -45.39390182495117, 0.751953125, 0.227783203125, -0.56689453125
611, 1807323543, -11.444856643676758, -3.5665910243988037, 7.96700382232666, -27.09178352355957, -346.3170471191406, -59.523780822753906, 0.6845703125, 0.244140625, -0.636962890625
612, 1807340210, -13.479514122009277, -4.330775737762451, 9.437569618225098, -24.56702995300293, -348.5522766113281, -78.63333129882812, 0.610107421875, 0.264892578125, -0.70068359375
613, 1807356877, -15.53862190246582, -5.072319984436035, 11.137483596801758, -25.362262725830078, -351.9748229980469, -101.71917724609375, 0.524658203125, 0.28515625, -0.756591796875
614, 1807373544, -18.451541900634766, -6.075563907623291, 13.537202835083008, -27.24580955505371, -354.3153991699219, -124.10702514648438, 0.43115234375, 0.307861328125, -0.802734375
615, 1807390211, -23.39505386352539, -8.928194046020508, 14.233686447143555, -22.375139236450195, -365.3075256347656, -141.85205078125, 0.328125, 0.329345703125, -0.841796875
616, 1807406878, -29.034709930419922, -5.311796188354492, 12.440301895141602, -21.988327026367188, -368.2585754394531, -165.8055877685547, 0.21875, 0.349365234375, -0.866943359375
617, 1807423545, -34.51980972290039, -6.271271228790283, 5.391290664672852, -38.61391067504883, -369.64605712890625, -166.07774353027344, 0.10400390625, 0.36376953125, -0.880859375
618, 1807440212, -37.77104949951172, -3.229806423187256, -3.519482374191284, -27.785083770751953, -351.1907653808594, -136.90213012695312, -0.004638671875, 0.375244140625, -0.8828125
619, 1807456879, -47.42424774169922, 16.925264358520508, -20.110383987426758, -115.11274719238281, -312.4151916503906, -124.84961700439453, -0.107421875, 0.393798828125, -0.870849609375
620, 1807473546, -33.87412643432617, 24.580801010131836, -40.3258171081543, -289.2525329589844, -151.53140258789062, -102.03384399414062, -0.17724609375, 0.456298828125, -0.82666015625
621, 1807490213, -25.097675323486328, -0.8062757849693298, -33.55244064331055, -56.954322814941406, 100.50006103515625, 154.3509063720703, -0.160888671875, 0.498046875, -0.80859375
622, 1807506880, -18.764202117919922, 5.159025192260742, -8.470231056213379, 188.27076721191406, 274.9982604980469, 278.2061462402344, -0.06103515625, 0.46044921875, -0.839599609375
623, 1807523547, -12.38927936553955, -17.468639373779297, 24.605789184570312, 107.1191177368164, 268.3116760253906, 107.9879150390625, 0.03466796875, 0.431884765625, -0.855224609375
624, 1807540214, -21.302927017211914, 4.650624752044678, 10.9603271484375, 108.20732116699219, 308.5052795410156, 4.799970626831055, 0.110595703125, 0.403076171875, -0.86181640625
625, 1807556881, -21.687135696411133, 15.554990768432617, 21.88729476928711, 61.515464782714844, 238.6492156982422, 43.3243522644043, 0.184814453125, 0.382080078125, -0.860107421875
626, 1807573548, -15.286787033081055, -8.350041389465332, 15.237007141113281, 68.61474609375, 125.89015197753906, 128.76922607421875, 0.23974609375, 0.364501953125, -0.8515625
627, 1807590215, -22.931215286254883, -7.6427001953125, 6.766846656799316, 117.02340698242188, 7.074700832366943, 49.325626373291016, 0.25439453125, 0.321533203125, -0.864501953125
628, 1807606882, -5.452358722686768, -1.3304238319396973, 9.900364875793457, 49.31597900390625, -26.275480270385742, 27.959238052368164, 0.253662109375, 0.304443359375, -0.8740234375
629, 1807623549, -6.1695027351379395, 2.76246976852417, 10.591552734375, 18.783058166503906, -7.673590183258057, 8.363373756408691, 0.2529296875, 0.295654296875, -0.878662109375
630, 1807640216, -6.125721454620361, -1.658876895904541, 8.465024948120117, -0.20141832530498505, 5.360079288482666, -3.4324355125427246, 0.25341796875, 0.295654296875, -0.87744140625
631, 1807656883, -5.367502212524414, -1.4740171432495117, 8.502700805664062, -7.650595664978027, 10.880953788757324, -6.355309009552002, 0.25537109375, 0.297119140625, -0.87451171875
632, 1807673550, -5.149592399597168, -2.3683552742004395, 8.231287956237793, -11.806384086608887, 16.701318740844727, -4.803669452667236, 0.2568359375, 0.30029296875, -0.873779296875
633, 1807690217, -5.290177345275879, -1.9230396747589111, 8.132017135620117, -13.87277889251709, 20.223249435424805, -4.139713287353516, 0.263916015625, 0.303955078125, -0.86962890625
634, 1807706884, -5.3118720054626465, -1.9704943895339966, 8.175588607788086, -15.476425170898438, 22.316755294799805, -3.7270545959472656, 0.268798828125, 0.30859375, -0.867431640625
635, 1807723551, -5.10860538482666, -2.6427876949310303, 7.7423505783081055, -16.43804931640625, 23.74224090576172, -2.1768553256988525, 0.27685546875, 0.312255859375, -0.865234375
636, 1807740218, -5.38922643661499, -2.617243528366089, 7.655354976654053, -14.400513648986816, 23.6826229095459, 1.1226269006729126, 0.285888671875, 0.315673828125, -0.8623046875
637, 1807756885, -5.3820600509643555, -1.9971636533737183, 7.728565216064453, -12.56177806854248, 23.177505493164062, -0.3302253186702728, 0.288330078125, 0.31982421875, -0.856201171875
638, 1807773552, -5.405732154846191, -2.386047601699829, 7.552079200744629, -10.14966869354248, 22.45281219482422, -0.12408099323511124, 0.2958984375, 0.32080078125, -0.85498046875
639, 1807790219, -5.53834342956543, -2.530876874923706, 7.306042194366455, -6.544182300567627, 19.603687286376953, 1.8641270399093628, 0.300537109375, 0.322021484375, -0.850341796875
640, 1807806886, -5.555703163146973, -2.681394577026367, 7.235898971557617, -2.3261730670928955, 14.480401039123535, 6.027141094207764, 0.303955078125, 0.323974609375, -0.84765625
641, 1807823553, -5.706292629241943, -2.5833523273468018, 7.149852752685547, 2.916283130645752, 8.218435287475586, 11.579642295837402, 0.3115234375, 0.323974609375, -0.850830078125
642, 1807840220, -5.7559685707092285, -2.7420740127563477, 6.871129989624023, 10.319084167480469, 1.541995644569397, 17.66830062866211, 0.309814453125, 0.31787109375, -0.849853515625
643, 1807856887, -5.396643161773682, -2.748249053955078, 7.286093235015869, 11.997830390930176, -3.294005870819092, 22.147602081298828, 0.31298828125, 0.311279296875, -0.851806640625
644, 1807873554, -5.059245586395264, -2.3893702030181885, 7.992050647735596, 9.264892578125, 0.6688969731330872, 28.389354705810547, 0.31640625, 0.30859375, -0.85302734375
645, 1807890221, -5.406989097595215, -1.326995849609375, 8.213912963867188, 5.871209621429443, 11.614015579223633, 26.424423217773438, 0.319580078125, 0.304931640625, -0.8525390625
646, 1807906888, -5.337014198303223, -1.1631770133972168, 8.379493713378906, 3.61490797996521, 28.95564079284668, 17.590713500976562, 0.327880859375, 0.298583984375, -0.84912109375
647, 1807923555, -5.22059965133667, -1.7341740131378174, 8.370468139648438, 0.46230706572532654, 49.26696014404297, 13.342026710510254, 0.341064453125, 0.298583984375, -0.84619140625
648, 1807940222, -4.997741222381592, -2.168715238571167, 8.572246551513672, -3.0723280906677246, 72.43891906738281, 15.08789348602295, 0.36083984375, 0.29736328125, -0.837890625
649, 1807956889, -4.9127302169799805, -2.3029704093933105, 8.925018310546875, -11.27021312713623, 104.70510864257812, 20.55756950378418, 0.3857421875, 0.29541015625, -0.8271484375
650, 1807973556, -5.314182758331299, -1.8939244747161865, 8.997265815734863, -22.980234146118164, 144.03428649902344, 28.190462112426758, 0.423095703125, 0.29833984375, -0.810302734375
651, 1807990223, -5.439441204071045, -0.48667874932289124, 9.511170387268066, -21.422393798828125, 188.74679565429688, 22.22059440612793, 0.465087890625, 0.29736328125, -0.78173828125
652, 1808006890, -5.023064613342285, -1.4695793390274048, 9.89799690246582, -8.72297191619873, 251.29388427734375, 13.763557434082031, 0.519775390625, 0.298583984375, -0.7470703125
