sep=,
DeviceTag:,A,,,,,,,,,,,,,,,,,
FirmwareVersion:,2.2.1,,,,,,,,,,,,,,,,,
AppVersion:,2022.0.1,,,,,,,,,,,,,,,,,
SyncStatus:,Synced,,,,,,,,,,,,,,,,,
OutputRate:,60Hz,,,,,,,,,,,,,,,,,
FilterProfile:,General,,,,,,,,,,,,,,,,,
Measurement Mode:,Inertial Mode - Rate quantities (with mag),,,,,,,,,,,,,,,,,
StartTime:,2022-08-16 15:25:25.448 +0300,,,,,,,,,,,,,,,,,
© Xsens Technologies B. V. 2005-2022,,,,,,,,,,,,,,,,,,,

PacketCounter,SampleTimeFine,Acc_X,Acc_Y,Acc_Z,Gyr_X,Gyr_Y,Gyr_Z,Mag_X,Mag_Y,Mag_Z
1, 948523034, -5.275036334991455, 1.600182294845581, 8.167375564575195, -2.422295570373535, -1.2281675338745117, -2.4850339889526367, 0.275634765625, -0.15966796875, -0.92578125
2, 948539701, -5.284364223480225, 1.5613678693771362, 8.169248580932617, -2.4933583736419678, -1.7314828634262085, -2.4349613189697266, 0.276123046875, -0.16015625, -0.92578125
3, 948556368, -5.259640216827393, 1.6053541898727417, 8.165619850158691, -2.5496163368225098, -2.1728920936584473, -2.2173941135406494, 0.274658203125, -0.1630859375, -0.92626953125
4, 948573035, -5.230276107788086, 1.6144782304763794, 8.241546630859375, -2.692291498184204, -2.2581562995910645, -2.204612970352173, 0.275634765625, -0.16162109375, -0.92626953125
5, 948589702, -5.172727584838867, 1.632806658744812, 8.220157623291016, -2.6871182918548584, -2.0175509452819824, -2.249474048614502, 0.274169921875, -0.16162109375, -0.92578125
6, 948606369, -5.200239181518555, 1.6091712713241577, 8.232673645019531, -2.693432092666626, -1.4537131786346436, -2.3403992652893066, 0.27294921875, -0.1611328125, -0.92626953125
7, 948623036, -5.201236724853516, 1.6111096143722534, 8.225637435913086, -2.48844051361084, -0.9974480867385864, -2.436587333679199, 0.274658203125, -0.1611328125, -0.92626953125
8, 948639703, -5.269974708557129, 1.5787904262542725, 8.20474910736084, -2.345700740814209, -0.72312331199646, -2.3004813194274902, 0.275634765625, -0.16162109375, -0.9267578125
9, 948656370, -5.293180465698242, 1.5968950986862183, 8.180337905883789, -2.201103925704956, -0.9983317255973816, -2.1845710277557373, 0.276611328125, -0.16259765625, -0.9267578125
10, 948673037, -5.2801008224487305, 1.6327805519104004, 8.165505409240723, -2.2514586448669434, -1.3290045261383057, -2.0996651649475098, 0.273681640625, -0.1611328125, -0.92578125
11, 948689704, -5.269872665405273, 1.6118813753128052, 8.178049087524414, -2.483778715133667, -1.5695973634719849, -2.1326541900634766, 0.275146484375, -0.16259765625, -0.92626953125
12, 948706371, -5.262596607208252, 1.5975031852722168, 8.218052864074707, -2.5001580715179443, -1.6734825372695923, -1.9685920476913452, 0.276611328125, -0.16015625, -0.924560546875
13, 948723038, -5.278410911560059, 1.6007192134857178, 8.182766914367676, -2.4858407974243164, -1.7561860084533691, -1.8925737142562866, 0.275146484375, -0.162109375, -0.92578125
14, 948739705, -5.244611740112305, 1.6320456266403198, 8.190317153930664, -2.6119325160980225, -2.023916006088257, -1.9061359167099, 0.276611328125, -0.16259765625, -0.9267578125
15, 948756372, -5.237590312957764, 1.601590633392334, 8.203320503234863, -2.784536361694336, -2.194931983947754, -1.9052010774612427, 0.274169921875, -0.162109375, -0.9267578125
16, 948773039, -5.210204601287842, 1.6358155012130737, 8.218718528747559, -2.9066057205200195, -2.086884021759033, -2.1108450889587402, 0.277587890625, -0.15966796875, -0.927734375
17, 948789706, -5.206128120422363, 1.595484733581543, 8.229411125183105, -2.917030096054077, -1.8417710065841675, -2.252662420272827, 0.276123046875, -0.1630859375, -0.92724609375
18, 948806373, -5.224595546722412, 1.5831998586654663, 8.216907501220703, -2.7114498615264893, -1.5156954526901245, -2.1904234886169434, 0.275634765625, -0.1611328125, -0.92578125
19, 948823040, -5.260904788970947, 1.5617672204971313, 8.175802230834961, -2.446320056915283, -1.320859670639038, -2.011237144470215, 0.274658203125, -0.1611328125, -0.925048828125
20, 948839707, -5.2325825691223145, 1.6024467945098877, 8.219450950622559, -2.3609015941619873, -1.4231312274932861, -1.8399778604507446, 0.274658203125, -0.15966796875, -0.924560546875
21, 948856374, -5.234448432922363, 1.6102514266967773, 8.165410041809082, -2.3936984539031982, -1.6787458658218384, -1.9220024347305298, 0.273681640625, -0.16259765625, -0.92529296875
22, 948873041, -5.205296516418457, 1.6163525581359863, 8.217092514038086, -2.427558660507202, -1.7241827249526978, -2.1185927391052246, 0.276123046875, -0.16015625, -0.9267578125
23, 948889708, -5.2387919425964355, 1.581858515739441, 8.209964752197266, -2.412869930267334, -1.6171603202819824, -2.230008363723755, 0.277099609375, -0.16162109375, -0.92626953125
24, 948906375, -5.259976387023926, 1.5499236583709717, 8.183378219604492, -2.1817665100097656, -1.532177209854126, -1.988531470298767, 0.273681640625, -0.1611328125, -0.92529296875
25, 948923042, -5.247716903686523, 1.5733851194381714, 8.2071533203125, -1.9704622030258179, -1.6599334478378296, -1.721724271774292, 0.277587890625, -0.1611328125, -0.926025390625
26, 948939709, -5.251142978668213, 1.5856857299804688, 8.186655044555664, -1.9763400554656982, -1.9459633827209473, -1.6542857885360718, 0.275146484375, -0.1611328125, -0.927734375
27, 948956376, -5.228287696838379, 1.6148548126220703, 8.194544792175293, -2.0617709159851074, -2.2245523929595947, -1.6988390684127808, 0.276123046875, -0.16162109375, -0.927734375
28, 948973043, -5.225070953369141, 1.6271281242370605, 8.185596466064453, -2.31577205657959, -2.3020823001861572, -1.925549864768982, 0.274169921875, -0.16064453125, -0.925048828125
29, 948989710, -5.198452472686768, 1.6359275579452515, 8.232879638671875, -2.1589584350585938, -2.1157753467559814, -2.0548813343048096, 0.27294921875, -0.162109375, -0.92529296875
30, 949006377, -5.19459867477417, 1.62007474899292, 8.231192588806152, -2.061898946762085, -1.6671561002731323, -2.138429880142212, 0.273681640625, -0.16357421875, -0.9287109375
31, 949023044, -5.212949275970459, 1.6124259233474731, 8.212882995605469, -2.0497586727142334, -1.5355199575424194, -2.169792652130127, 0.274169921875, -0.16259765625, -0.925537109375
32, 949039711, -5.216367721557617, 1.6255052089691162, 8.20057201385498, -1.950752854347229, -1.3797433376312256, -2.2332098484039307, 0.273681640625, -0.162109375, -0.92529296875
33, 949056378, -5.237639904022217, 1.605564832687378, 8.192867279052734, -1.762717366218567, -1.3809343576431274, -2.1004974842071533, 0.274169921875, -0.16162109375, -0.927734375
34, 949073045, -5.242420196533203, 1.5931968688964844, 8.213072776794434, -1.673290729522705, -1.298679232597351, -2.175670862197876, 0.2734375, -0.1611328125, -0.927734375
35, 949089712, -5.246066570281982, 1.6178181171417236, 8.207402229309082, -1.7895084619522095, -1.2900606393814087, -2.0675981044769287, 0.2724609375, -0.16259765625, -0.9267578125
36, 949106379, -5.25644063949585, 1.5995374917984009, 8.186985969543457, -1.66853928565979, -1.5616704225540161, -1.9486141204833984, 0.275634765625, -0.163330078125, -0.925537109375
37, 949123046, -5.2441630363464355, 1.617749571800232, 8.216537475585938, -1.658486247062683, -1.7010289430618286, -1.8200255632400513, 0.2724609375, -0.16064453125, -0.9267578125
38, 949139713, -5.198250770568848, 1.6378141641616821, 8.195127487182617, -1.806681513786316, -1.6723428964614868, -1.6809743642807007, 0.274169921875, -0.16259765625, -0.92578125
39, 949156380, -5.200032711029053, 1.6479495763778687, 8.212190628051758, -1.8468424081802368, -1.466903567314148, -2.0930957794189453, 0.273681640625, -0.16259765625, -0.927734375
40, 949173047, -5.212581634521484, 1.6314867734909058, 8.205373764038086, -1.8137121200561523, -1.3226910829544067, -2.191192388534546, 0.273681640625, -0.16357421875, -0.9267578125
41, 949189714, -5.22652006149292, 1.623054027557373, 8.229544639587402, -1.6969951391220093, -1.205141544342041, -2.2206594944000244, 0.277099609375, -0.163818359375, -0.926025390625
42, 949206381, -5.230701446533203, 1.63655686378479, 8.18902587890625, -1.776138424873352, -1.1691557168960571, -2.062437057495117, 0.275146484375, -0.164794921875, -0.926025390625
43, 949223048, -5.210832118988037, 1.6494635343551636, 8.21109390258789, -1.8028392791748047, -1.0970304012298584, -2.223144054412842, 0.276123046875, -0.163818359375, -0.9287109375
44, 949239715, -5.228733062744141, 1.6278375387191772, 8.192068099975586, -1.9682462215423584, -1.1355518102645874, -2.211144208908081, 0.275146484375, -0.164794921875, -0.926025390625
45, 949256382, -5.214282035827637, 1.6365734338760376, 8.204325675964355, -1.916060447692871, -1.1391503810882568, -2.3668951988220215, 0.275146484375, -0.163330078125, -0.92578125
46, 949273049, -5.237085342407227, 1.657869577407837, 8.20520305633545, -1.8781920671463013, -1.0205765962600708, -2.2840254306793213, 0.276123046875, -0.163818359375, -0.924072265625
47, 949289716, -5.244647026062012, 1.6247769594192505, 8.19734001159668, -1.9355133771896362, -0.9933887124061584, -2.25791335105896, 0.275634765625, -0.165771484375, -0.92724609375
48, 949306383, -5.255283832550049, 1.6310030221939087, 8.191529273986816, -1.9526351690292358, -1.1357054710388184, -2.250805377960205, 0.274658203125, -0.163818359375, -0.9267578125
49, 949323050, -5.223879814147949, 1.6467210054397583, 8.17010498046875, -1.9187114238739014, -1.3148534297943115, -2.223092555999756, 0.274658203125, -0.164794921875, -0.924072265625
50, 949339717, -5.215722560882568, 1.6326565742492676, 8.21247386932373, -1.9066733121871948, -1.0169010162353516, -2.338336944580078, 0.275634765625, -0.1630859375, -0.92626953125
51, 949356384, -5.26646089553833, 1.625226378440857, 8.189220428466797, -1.911104440689087, -0.9612062573432922, -2.289890766143799, 0.275634765625, -0.165771484375, -0.925537109375
52, 949373051, -5.275604248046875, 1.6443294286727905, 8.203523635864258, -1.7749090194702148, -1.112321138381958, -2.217010021209717, 0.276611328125, -0.164794921875, -0.926025390625
53, 949389718, -5.240673065185547, 1.6597427129745483, 8.189850807189941, -1.9895302057266235, -1.2907519340515137, -2.1205008029937744, 0.276123046875, -0.164306640625, -0.925048828125
54, 949406385, -5.237624168395996, 1.6456602811813354, 8.19074535369873, -2.1079635620117188, -1.330771803855896, -2.203371047973633, 0.277099609375, -0.164306640625, -0.923095703125
55, 949423052, -5.215808391571045, 1.6776374578475952, 8.21625804901123, -2.1230876445770264, -1.1526738405227661, -2.379201889038086, 0.276611328125, -0.165771484375, -0.9267578125
56, 949439719, -5.25140380859375, 1.6313496828079224, 8.210016250610352, -2.1059532165527344, -1.1069167852401733, -2.5169215202331543, 0.278564453125, -0.165771484375, -0.926513671875
57, 949456386, -5.230536937713623, 1.6286382675170898, 8.175728797912598, -1.8058875799179077, -0.9926074147224426, -2.2668392658233643, 0.277587890625, -0.165771484375, -0.925537109375
58, 949473053, -5.257587432861328, 1.6189860105514526, 8.195700645446777, -1.7467862367630005, -0.8993003964424133, -2.1681151390075684, 0.276611328125, -0.164794921875, -0.925048828125
59, 949489720, -5.253511428833008, 1.644492745399475, 8.174171447753906, -1.7577866315841675, -0.9972048401832581, -2.109039306640625, 0.276611328125, -0.167236328125, -0.925048828125
60, 949506387, -5.242756366729736, 1.66566002368927, 8.188831329345703, -1.8501335382461548, -1.0217292308807373, -2.2046263217926025, 0.276123046875, -0.166259765625, -0.925537109375
61, 949523054, -5.26386833190918, 1.6450988054275513, 8.177619934082031, -1.8889366388320923, -1.0930860042572021, -2.2201087474823, 0.276611328125, -0.166259765625, -0.926025390625
62, 949539721, -5.246272563934326, 1.6611089706420898, 8.19749641418457, -1.9006673097610474, -1.028503656387329, -2.241610527038574, 0.277099609375, -0.165283203125, -0.926025390625
63, 949556388, -5.245558261871338, 1.6554887294769287, 8.183030128479004, -1.8517471551895142, -0.9835149049758911, -2.374310255050659, 0.277587890625, -0.166748046875, -0.926513671875
64, 949573055, -5.270246505737305, 1.6499075889587402, 8.170409202575684, -1.8751699924468994, -0.8949334025382996, -2.1627109050750732, 0.275634765625, -0.167724609375, -0.924560546875
65, 949589722, -5.260014057159424, 1.662505030632019, 8.168484687805176, -1.931107997894287, -1.0756181478500366, -2.213564872741699, 0.27880859375, -0.168212890625, -0.923583984375
66, 949606389, -5.256390571594238, 1.6644366979599, 8.176555633544922, -1.9741244316101074, -1.0524898767471313, -2.20047664642334, 0.277099609375, -0.167724609375, -0.921630859375
67, 949623056, -5.266647815704346, 1.660070538520813, 8.180013656616211, -2.037682056427002, -0.9962955713272095, -2.264585256576538, 0.277587890625, -0.165283203125, -0.923095703125
68, 949639723, -5.281886100769043, 1.6438075304031372, 8.166433334350586, -1.8590850830078125, -1.0586626529693604, -2.146843671798706, 0.2783203125, -0.167236328125, -0.925048828125
69, 949656390, -5.27069616317749, 1.6613662242889404, 8.18021011352539, -2.100266933441162, -1.2330081462860107, -2.1651055812835693, 0.2783203125, -0.167724609375, -0.924072265625
70, 949673057, -5.275260925292969, 1.6541309356689453, 8.169904708862305, -2.080941915512085, -1.38837468624115, -2.0604519844055176, 0.278564453125, -0.1689453125, -0.927001953125
71, 949689724, -5.266714572906494, 1.6646668910980225, 8.196694374084473, -2.137674331665039, -1.406559944152832, -2.0128512382507324, 0.278076171875, -0.1689453125, -0.925537109375
72, 949706391, -5.2756242752075195, 1.6630717515945435, 8.191767692565918, -2.192716121673584, -1.392767310142517, -2.0777406692504883, 0.277587890625, -0.166259765625, -0.925537109375
73, 949723058, -5.288736820220947, 1.6520018577575684, 8.188789367675781, -2.120603322982788, -1.4620623588562012, -1.980796456336975, 0.277099609375, -0.168701171875, -0.925048828125
74, 949739725, -5.243310928344727, 1.6674330234527588, 8.182215690612793, -2.1444613933563232, -1.640057921409607, -1.7556352615356445, 0.2783203125, -0.167236328125, -0.924072265625
75, 949756392, -5.23366117477417, 1.6893084049224854, 8.18395709991455, -2.354165554046631, -1.611115574836731, -1.9971373081207275, 0.275634765625, -0.168212890625, -0.924072265625
76, 949773059, -5.249749660491943, 1.6721082925796509, 8.151968002319336, -2.5192010402679443, -1.526606559753418, -2.185122013092041, 0.27880859375, -0.166259765625, -0.925537109375
77, 949789726, -5.260858535766602, 1.6517070531845093, 8.163599967956543, -2.433014392852783, -1.3993498086929321, -2.1670010089874268, 0.27978515625, -0.167724609375, -0.923095703125
78, 949806393, -5.254103183746338, 1.6628541946411133, 8.190089225769043, -2.3183462619781494, -1.3682688474655151, -2.124906539916992, 0.276123046875, -0.169189453125, -0.923583984375
79, 949823060, -5.256472110748291, 1.6672841310501099, 8.166668891906738, -2.359966993331909, -1.2607210874557495, -2.146754264831543, 0.27880859375, -0.167236328125, -0.926025390625
80, 949839727, -5.257315158843994, 1.6712874174118042, 8.185690879821777, -2.2809901237487793, -1.1045091152191162, -2.2139103412628174, 0.278564453125, -0.167236328125, -0.925537109375
81, 949856394, -5.2547101974487305, 1.6787627935409546, 8.184122085571289, -2.413599729537964, -1.0733897686004639, -2.208019495010376, 0.2783203125, -0.1689453125, -0.924560546875
82, 949873061, -5.271279335021973, 1.6686385869979858, 8.180947303771973, -2.3614652156829834, -1.1007697582244873, -2.200374126434326, 0.27880859375, -0.168212890625, -0.923583984375
83, 949889728, -5.268097400665283, 1.6602773666381836, 8.188026428222656, -2.4532227516174316, -1.109145164489746, -2.217637062072754, 0.27880859375, -0.167724609375, -0.924560546875
84, 949906395, -5.258018493652344, 1.6849501132965088, 8.167424201965332, -2.4448599815368652, -1.1193132400512695, -2.228804349899292, 0.27880859375, -0.169921875, -0.923583984375
85, 949923062, -5.260470867156982, 1.6871929168701172, 8.191204071044922, -2.571835517883301, -1.0118553638458252, -2.4564759731292725, 0.27880859375, -0.168212890625, -0.923095703125
86, 949939729, -5.274102210998535, 1.6471173763275146, 8.176608085632324, -2.514911413192749, -1.1487936973571777, -2.4192092418670654, 0.27880859375, -0.167724609375, -0.924072265625
87, 949956396, -5.273864269256592, 1.6409823894500732, 8.170313835144043, -2.528536796569824, -1.3444746732711792, -2.385438919067383, 0.276611328125, -0.167236328125, -0.926025390625
88, 949973063, -5.2690887451171875, 1.6632158756256104, 8.177149772644043, -2.6466758251190186, -1.3738142251968384, -2.3824424743652344, 0.279296875, -0.167236328125, -0.92236328125
89, 949989730, -5.26894998550415, 1.673519492149353, 8.133708953857422, -2.843599319458008, -1.4323904514312744, -2.456437349319458, 0.28076171875, -0.165771484375, -0.925048828125
90, 950006397, -5.268172264099121, 1.664746880531311, 8.14700698852539, -2.9001262187957764, -1.5000332593917847, -2.514360189437866, 0.279296875, -0.16845703125, -0.926025390625
91, 950023064, -5.269393444061279, 1.6543443202972412, 8.1759672164917, -2.8339169025421143, -1.5633350610733032, -2.5627424716949463, 0.277587890625, -0.165283203125, -0.925048828125
92, 950039731, -5.278656005859375, 1.6446529626846313, 8.18008804321289, -2.815732002258301, -1.5015060901641846, -2.546837329864502, 0.27880859375, -0.166748046875, -0.925048828125
93, 950056398, -5.24580192565918, 1.6602871417999268, 8.163792610168457, -2.801158905029297, -1.5561254024505615, -2.4255101680755615, 0.28076171875, -0.166259765625, -0.923583984375
94, 950073065, -5.276077747344971, 1.6678129434585571, 8.202377319335938, -2.773010492324829, -1.4808623790740967, -2.576253652572632, 0.27978515625, -0.166748046875, -0.925048828125
95, 950089732, -5.289000034332275, 1.6344901323318481, 8.162800788879395, -2.7972264289855957, -1.5618752241134644, -2.634624719619751, 0.27978515625, -0.16845703125, -0.925537109375
96, 950106399, -5.2852911949157715, 1.6369450092315674, 8.182720184326172, -2.561347246170044, -1.4906721115112305, -2.43756103515625, 0.27880859375, -0.167236328125, -0.925048828125
97, 950123066, -5.285783290863037, 1.6324360370635986, 8.169374465942383, -2.4925639629364014, -1.5400021076202393, -2.2836668491363525, 0.279296875, -0.166259765625, -0.924072265625
98, 950139733, -5.306974411010742, 1.6296747922897339, 8.165572166442871, -2.303990364074707, -1.7234913110733032, -2.0980260372161865, 0.279296875, -0.166748046875, -0.923583984375
99, 950156400, -5.285038948059082, 1.6603363752365112, 8.159551620483398, -2.235386610031128, -1.7700039148330688, -1.9595379829406738, 0.28076171875, -0.167236328125, -0.923095703125
100, 950173067, -5.256258487701416, 1.6439847946166992, 8.174171447753906, -2.2201087474823, -1.7737051248550415, -2.057929277420044, 0.2802734375, -0.165771484375, -0.926025390625
101, 950189734, -5.28189754486084, 1.630981683731079, 8.192272186279297, -2.0910592079162598, -1.5686625242233276, -2.087204694747925, 0.278076171875, -0.168701171875, -0.925048828125
102, 950206401, -5.274216175079346, 1.6542468070983887, 8.179398536682129, -2.0949907302856445, -1.5379399061203003, -1.9913103580474854, 0.277099609375, -0.168212890625, -0.923095703125
103, 950223068, -5.271912574768066, 1.6670583486557007, 8.176712989807129, -2.120053291320801, -1.6923975944519043, -2.030626058578491, 0.279296875, -0.16845703125, -0.925537109375
104, 950239735, -5.267791271209717, 1.6730276346206665, 8.157618522644043, -2.1808571815490723, -1.5383756160736084, -2.097564697265625, 0.279296875, -0.168212890625, -0.925048828125
105, 950256402, -5.25576114654541, 1.6628305912017822, 8.14850902557373, -2.188156843185425, -1.5395792722702026, -2.2404322624206543, 0.28125, -0.166748046875, -0.925537109375
106, 950273069, -5.270644187927246, 1.6682089567184448, 8.165815353393555, -2.154693841934204, -1.5637447834014893, -2.2304561138153076, 0.279296875, -0.167724609375, -0.92919921875
107, 950289736, -5.239986419677734, 1.6644231081008911, 8.15487003326416, -2.2025129795074463, -1.3222941160202026, -2.3152599334716797, 0.27978515625, -0.165771484375, -0.923583984375
108, 950306403, -5.275568962097168, 1.6564327478408813, 8.153406143188477, -2.2375383377075195, -1.3173764944076538, -2.4113075733184814, 0.27880859375, -0.168212890625, -0.926025390625
109, 950323070, -5.298844337463379, 1.6477506160736084, 8.163433074951172, -2.2752914428710938, -1.4309430122375488, -2.385195255279541, 0.27978515625, -0.16845703125, -0.924560546875
110, 950339737, -5.28517484664917, 1.6659444570541382, 8.148212432861328, -2.305002212524414, -1.6067615747451782, -2.234964370727539, 0.2802734375, -0.167236328125, -0.924560546875
111, 950356404, -5.254754066467285, 1.6584415435791016, 8.17760944366455, -2.3553693294525146, -1.7025914192199707, -2.3072943687438965, 0.2783203125, -0.167724609375, -0.924072265625
112, 950373071, -5.246994972229004, 1.6738353967666626, 8.19491195678711, -2.418978691101074, -1.5086138248443604, -2.428365707397461, 0.277099609375, -0.167236328125, -0.923583984375
113, 950389738, -5.263742446899414, 1.660935878753662, 8.199740409851074, -2.4123387336730957, -1.2558355331420898, -2.4879727363586426, 0.27978515625, -0.165771484375, -0.926513671875
114, 950406405, -5.301994323730469, 1.6328349113464355, 8.168807983398438, -2.391099214553833, -1.215732455253601, -2.4632246494293213, 0.2802734375, -0.166748046875, -0.922607421875
115, 950423072, -5.283870220184326, 1.6534394025802612, 8.16661548614502, -2.447549819946289, -1.3891944885253906, -2.3344955444335938, 0.2802734375, -0.167236328125, -0.924560546875
116, 950439739, -5.253560543060303, 1.668175220489502, 8.156719207763672, -2.4401605129241943, -1.4536871910095215, -2.3478777408599854, 0.279296875, -0.168212890625, -0.923583984375
117, 950456406, -5.249873161315918, 1.6786303520202637, 8.166491508483887, -2.4150853157043457, -1.3431810140609741, -2.4433233737945557, 0.278564453125, -0.165771484375, -0.925537109375
118, 950473073, -5.285025119781494, 1.6216498613357544, 8.179686546325684, -2.3539481163024902, -1.2330979108810425, -2.4994540214538574, 0.2783203125, -0.167236328125, -0.924560546875
119, 950489740, -5.302591800689697, 1.6418027877807617, 8.170090675354004, -2.268965005874634, -1.2077666521072388, -2.2943854331970215, 0.279296875, -0.166259765625, -0.925048828125
120, 950506407, -5.280365943908691, 1.6518075466156006, 8.151103019714355, -2.2198140621185303, -1.3430531024932861, -2.1954948902130127, 0.27880859375, -0.166748046875, -0.925537109375
121, 950523074, -5.259944438934326, 1.673789620399475, 8.170905113220215, -2.386655569076538, -1.620887041091919, -2.267902135848999, 0.27880859375, -0.166259765625, -0.923583984375
122, 950539741, -5.25369930267334, 1.6605397462844849, 8.173879623413086, -2.4206180572509766, -1.4602185487747192, -2.3266067504882812, 0.2802734375, -0.166259765625, -0.924072265625
123, 950556408, -5.281586170196533, 1.648488163948059, 8.16780948638916, -2.3664467334747314, -1.4479498863220215, -2.3200879096984863, 0.279296875, -0.168212890625, -0.925537109375
124, 950573075, -5.294940948486328, 1.6398080587387085, 8.167291641235352, -2.340501070022583, -1.5268241167068481, -2.1444358825683594, 0.2802734375, -0.164794921875, -0.925537109375
125, 950589742, -5.28302526473999, 1.6510189771652222, 8.153188705444336, -2.3576745986938477, -1.6788870096206665, -2.089522361755371, 0.27978515625, -0.167236328125, -0.925537109375
126, 950606409, -5.269306659698486, 1.6423081159591675, 8.1434965133667, -2.3684961795806885, -1.810280203819275, -2.0263617038726807, 0.277099609375, -0.167724609375, -0.924072265625
127, 950623076, -5.267454147338867, 1.6729894876480103, 8.157845497131348, -2.570606231689453, -1.7736413478851318, -2.2295985221862793, 0.27978515625, -0.166748046875, -0.925048828125
128, 950639743, -5.27064847946167, 1.6728042364120483, 8.15621566772461, -2.6324479579925537, -1.8229457139968872, -2.281144142150879, 0.28076171875, -0.166259765625, -0.924072265625
129, 950656410, -5.28323221206665, 1.6343740224838257, 8.166839599609375, -2.7225148677825928, -1.6885045766830444, -2.3678174018859863, 0.278564453125, -0.166259765625, -0.926025390625
130, 950673077, -5.257416725158691, 1.653187870979309, 8.194234848022461, -2.633613348007202, -1.711684226989746, -2.2769439220428467, 0.278564453125, -0.166748046875, -0.925537109375
131, 950689744, -5.265035152435303, 1.6684494018554688, 8.18753719329834, -2.674030303955078, -1.5018264055252075, -2.272346019744873, 0.276611328125, -0.166259765625, -0.923583984375
132, 950706411, -5.26686429977417, 1.6550438404083252, 8.145476341247559, -2.686516523361206, -1.4632153511047363, -2.4137027263641357, 0.278564453125, -0.166259765625, -0.926025390625
133, 950723078, -5.31017541885376, 1.644529104232788, 8.147262573242188, -2.6728906631469727, -1.5208312273025513, -2.2725000381469727, 0.28173828125, -0.167724609375, -0.925537109375
134, 950739745, -5.278030872344971, 1.6501609086990356, 8.165336608886719, -2.584590435028076, -1.5768458843231201, -2.2138209342956543, 0.2802734375, -0.164306640625, -0.925048828125
135, 950756412, -5.261478900909424, 1.6485503911972046, 8.154524803161621, -2.4850080013275146, -1.6116663217544556, -2.239548921585083, 0.276611328125, -0.168212890625, -0.924560546875
136, 950773079, -5.264190196990967, 1.6475088596343994, 8.172066688537598, -2.5074450969696045, -1.5908560752868652, -2.2812721729278564, 0.2802734375, -0.166259765625, -0.925048828125
137, 950789746, -5.269932270050049, 1.631509780883789, 8.15255355834961, -2.502476215362549, -1.5937376022338867, -2.161609649658203, 0.2783203125, -0.165283203125, -0.923095703125
138, 950806413, -5.2663798332214355, 1.653733491897583, 8.174206733703613, -2.4952661991119385, -1.60081946849823, -2.153170108795166, 0.277099609375, -0.168701171875, -0.924072265625
139, 950823080, -5.288654327392578, 1.6409488916397095, 8.169236183166504, -2.558824300765991, -1.6501878499984741, -2.1790645122528076, 0.276611328125, -0.166259765625, -0.924560546875
140, 950839747, -5.2685322761535645, 1.638357400894165, 8.174564361572266, -2.5647153854370117, -1.7954249382019043, -2.1890923976898193, 0.2802734375, -0.165283203125, -0.925537109375
141, 950856414, -5.2487101554870605, 1.6656641960144043, 8.202862739562988, -2.576112747192383, -1.6964061260223389, -2.2581183910369873, 0.279296875, -0.166748046875, -0.924072265625
142, 950873081, -5.2413411140441895, 1.6428147554397583, 8.186925888061523, -2.506446123123169, -1.4260767698287964, -2.3579437732696533, 0.27880859375, -0.166748046875, -0.924560546875
143, 950889748, -5.272464752197266, 1.6470028162002563, 8.180611610412598, -2.4726502895355225, -1.273911714553833, -2.3419740200042725, 0.27880859375, -0.165771484375, -0.923583984375
144, 950906415, -5.287126541137695, 1.6337604522705078, 8.161285400390625, -2.567762851715088, -1.4605385065078735, -2.2969470024108887, 0.278076171875, -0.166748046875, -0.924072265625
145, 950923082, -5.274808406829834, 1.6338015794754028, 8.187950134277344, -2.474238157272339, -1.4966398477554321, -2.227113962173462, 0.277587890625, -0.166259765625, -0.925537109375
146, 950939749, -5.257676601409912, 1.6453619003295898, 8.183995246887207, -2.463557720184326, -1.6302869319915771, -2.212130546569824, 0.2783203125, -0.166748046875, -0.923583984375
147, 950956416, -5.268476486206055, 1.6631335020065308, 8.1935396194458, -2.4206817150115967, -1.367846131324768, -2.4014976024627686, 0.278076171875, -0.164794921875, -0.924072265625
148, 950973083, -5.271424770355225, 1.627247929573059, 8.174546241760254, -2.3639883995056152, -1.2959898710250854, -2.4433233737945557, 0.28173828125, -0.165283203125, -0.924072265625
149, 950989750, -5.265690803527832, 1.638522744178772, 8.160087585449219, -2.4529924392700195, -1.409595012664795, -2.293015480041504, 0.27978515625, -0.165283203125, -0.925048828125
150, 951006417, -5.262319564819336, 1.6327602863311768, 8.191644668579102, -2.370199203491211, -1.506961703300476, -2.278672456741333, 0.279296875, -0.166748046875, -0.926025390625
151, 951023084, -5.2489190101623535, 1.6550644636154175, 8.172994613647461, -2.427379608154297, -1.2836190462112427, -2.353487253189087, 0.27978515625, -0.168212890625, -0.925537109375
152, 951039751, -5.279592990875244, 1.639119029045105, 8.16770076751709, -2.440800666809082, -1.2911875247955322, -2.380547046661377, 0.277587890625, -0.166259765625, -0.922119140625
153, 951056418, -5.274653434753418, 1.6509945392608643, 8.169567108154297, -2.4112563133239746, -1.433056354522705, -2.3354430198669434, 0.2802734375, -0.166748046875, -0.924560546875
154, 951073085, -5.275345325469971, 1.6479414701461792, 8.179945945739746, -2.400383472442627, -1.4291373491287231, -2.4312727451324463, 0.2822265625, -0.165771484375, -0.925048828125
155, 951089752, -5.282866477966309, 1.656602144241333, 8.163607597351074, -2.5393970012664795, -1.5025691986083984, -2.399871587753296, 0.2783203125, -0.165771484375, -0.924560546875
156, 951106419, -5.273750305175781, 1.6437937021255493, 8.155092239379883, -2.614083766937256, -1.5211000442504883, -2.390113592147827, 0.2802734375, -0.164794921875, -0.922607421875
157, 951123086, -5.263864040374756, 1.6252684593200684, 8.16744613647461, -2.6312313079833984, -1.511008381843567, -2.458204746246338, 0.2802734375, -0.165283203125, -0.923583984375
158, 951139753, -5.276471138000488, 1.6276301145553589, 8.16708755493164, -2.5896620750427246, -1.435912013053894, -2.4824726581573486, 0.2783203125, -0.166748046875, -0.924560546875
159, 951156420, -5.27665376663208, 1.632596731185913, 8.16395378112793, -2.6741199493408203, -1.373609185218811, -2.417339563369751, 0.2802734375, -0.164306640625, -0.923583984375
160, 951173087, -5.283914089202881, 1.6377702951431274, 8.147968292236328, -2.618591785430908, -1.4982792139053345, -2.5491812229156494, 0.2802734375, -0.164794921875, -0.925537109375
161, 951189754, -5.29166316986084, 1.6245497465133667, 8.159281730651855, -2.637468099594116, -1.5562663078308105, -2.51462984085083, 0.27978515625, -0.165283203125, -0.925537109375
162, 951206421, -5.282997131347656, 1.6198947429656982, 8.152341842651367, -2.626826047897339, -1.581904649734497, -2.393648147583008, 0.279296875, -0.165771484375, -0.923095703125
163, 951223088, -5.285179615020752, 1.6131073236465454, 8.154561996459961, -2.4937167167663574, -1.5106881856918335, -2.348966360092163, 0.279296875, -0.164794921875, -0.924072265625
164, 951239755, -5.275719165802002, 1.6329518556594849, 8.17106819152832, -2.4198625087738037, -1.4029741287231445, -2.3177316188812256, 0.279296875, -0.164306640625, -0.924072265625
165, 951256422, -5.282163619995117, 1.6340116262435913, 8.176204681396484, -2.3152217864990234, -1.4263200759887695, -2.3747713565826416, 0.28173828125, -0.165283203125, -0.924072265625
166, 951273089, -5.294836521148682, 1.6298913955688477, 8.182826042175293, -2.4698967933654785, -1.4637402296066284, -2.3984501361846924, 0.2822265625, -0.165771484375, -0.924072265625
167, 951289756, -5.28963041305542, 1.6393887996673584, 8.154601097106934, -2.519213914871216, -1.6529924869537354, -2.293527364730835, 0.2802734375, -0.165283203125, -0.924560546875
168, 951306423, -5.273769855499268, 1.6311278343200684, 8.174032211303711, -2.4821527004241943, -1.5170658826828003, -2.2744977474212646, 0.279296875, -0.164306640625, -0.926025390625
169, 951323090, -5.260473728179932, 1.6171483993530273, 8.18624496459961, -2.525886058807373, -1.3835852146148682, -2.3560996055603027, 0.28125, -0.164794921875, -0.925048828125
170, 951339757, -5.267276287078857, 1.6448699235916138, 8.164262771606445, -2.5933501720428467, -1.4334405660629272, -2.427969217300415, 0.28125, -0.166259765625, -0.925537109375
171, 951356424, -5.285074234008789, 1.6100190877914429, 8.147173881530762, -2.620678663253784, -1.3408889770507812, -2.4277639389038086, 0.27978515625, -0.163818359375, -0.924560546875
172, 951373091, -5.288699626922607, 1.6220660209655762, 8.161919593811035, -2.6923301219940186, -1.5877057313919067, -2.365704298019409, 0.2822265625, -0.165283203125, -0.924560546875
173, 951389758, -5.293298244476318, 1.6351531744003296, 8.176434516906738, -2.6293487548828125, -1.5512206554412842, -2.3724663257598877, 0.28271484375, -0.165771484375, -0.925048828125
174, 951406425, -5.262388706207275, 1.62226402759552, 8.165335655212402, -2.5872161388397217, -1.581904649734497, -2.310816526412964, 0.28076171875, -0.165771484375, -0.924560546875
175, 951423092, -5.282268524169922, 1.6263442039489746, 8.16965389251709, -2.6257245540618896, -1.474894642829895, -2.388422727584839, 0.28076171875, -0.164306640625, -0.927001953125
176, 951439759, -5.290585041046143, 1.6199125051498413, 8.1881685256958, -2.563370704650879, -1.498573660850525, -2.436997413635254, 0.27978515625, -0.163818359375, -0.924072265625
177, 951456426, -5.301873683929443, 1.6202342510223389, 8.185032844543457, -2.5505895614624023, -1.346408486366272, -2.3391566276550293, 0.28125, -0.164794921875, -0.924560546875
178, 951473093, -5.285562992095947, 1.6221212148666382, 8.156923294067383, -2.5631144046783447, -1.2896251678466797, -2.350848913192749, 0.28076171875, -0.165283203125, -0.924560546875
179, 951489760, -5.285088062286377, 1.6236143112182617, 8.173599243164062, -2.4977762699127197, -1.2778559923171997, -2.3357629776000977, 0.283203125, -0.162841796875, -0.926513671875
180, 951506427, -5.283668518066406, 1.6213723421096802, 8.157410621643066, -2.4737260341644287, -1.3255085945129395, -2.4576027393341064, 0.279296875, -0.164306640625, -0.925537109375
181, 951523094, -5.296380043029785, 1.6232264041900635, 8.16840934753418, -2.4670920372009277, -1.5422176122665405, -2.420042037963867, 0.28125, -0.164794921875, -0.926025390625
182, 951539761, -5.289485931396484, 1.6211954355239868, 8.161166191101074, -2.5452494621276855, -1.485498309135437, -2.3545756340026855, 0.279296875, -0.162109375, -0.924560546875
183, 951556428, -5.28394079208374, 1.6228504180908203, 8.157234191894531, -2.606668710708618, -1.5641164779663086, -2.283372402191162, 0.28076171875, -0.164306640625, -0.925048828125
184, 951573095, -5.293732643127441, 1.6183018684387207, 8.170677185058594, -2.505319118499756, -1.572735071182251, -2.251023292541504, 0.28076171875, -0.163330078125, -0.925048828125
185, 951589762, -5.273382186889648, 1.6288293600082397, 8.167495727539062, -2.563242197036743, -1.5321773290634155, -2.4134719371795654, 0.28125, -0.164306640625, -0.924560546875
186, 951606429, -5.268931865692139, 1.610068440437317, 8.167561531066895, -2.499364137649536, -1.4210182428359985, -2.323199987411499, 0.27978515625, -0.162353515625, -0.923583984375
187, 951623096, -5.301474571228027, 1.6277620792388916, 8.178747177124023, -2.4748270511627197, -1.3629413843154907, -2.297548770904541, 0.28271484375, -0.164794921875, -0.923583984375
188, 951639763, -5.284329891204834, 1.614262580871582, 8.160821914672852, -2.4968924522399902, -1.3263535499572754, -2.3487355709075928, 0.28173828125, -0.163330078125, -0.924560546875
189, 951656430, -5.291460990905762, 1.6120774745941162, 8.151776313781738, -2.541163921356201, -1.3810752630233765, -2.403610944747925, 0.2802734375, -0.164306640625, -0.923583984375
190, 951673097, -5.2813334465026855, 1.6211533546447754, 8.17122745513916, -2.5311625003814697, -1.2959131002426147, -2.3756039142608643, 0.279296875, -0.164306640625, -0.925537109375
191, 951689764, -5.279965877532959, 1.6214113235473633, 8.168445587158203, -2.492717981338501, -1.2093677520751953, -2.436190366744995, 0.28173828125, -0.164794921875, -0.922607421875
192, 951706431, -5.291697025299072, 1.6060612201690674, 8.160581588745117, -2.477644443511963, -1.3758503198623657, -2.332446336746216, 0.28076171875, -0.165771484375, -0.924560546875
193, 951723098, -5.270812034606934, 1.6133960485458374, 8.16012191772461, -2.514462947845459, -1.5383628606796265, -2.3180007934570312, 0.27978515625, -0.162109375, -0.925048828125
194, 951739765, -5.288546085357666, 1.6203597784042358, 8.177075386047363, -2.4932684898376465, -1.4474761486053467, -2.3397586345672607, 0.27880859375, -0.162353515625, -0.926025390625
195, 951756432, -5.291293144226074, 1.6284325122833252, 8.18724250793457, -2.49292254447937, -1.405407428741455, -2.3706603050231934, 0.28173828125, -0.163818359375, -0.923583984375
196, 951773099, -5.289748191833496, 1.5908112525939941, 8.165074348449707, -2.4519550800323486, -1.3908978700637817, -2.374336004257202, 0.28369140625, -0.164306640625, -0.925537109375
197, 951789766, -5.289033889770508, 1.5940431356430054, 8.187132835388184, -2.3328049182891846, -1.3172354698181152, -2.2912352085113525, 0.28076171875, -0.162353515625, -0.926513671875
198, 951806433, -5.290018081665039, 1.6118977069854736, 8.171303749084473, -2.233055591583252, -1.1088122129440308, -2.2189431190490723, 0.279296875, -0.163818359375, -0.924560546875
199, 951823100, -5.292211055755615, 1.6210541725158691, 8.159749031066895, -2.288827657699585, -1.1592434644699097, -2.2514970302581787, 0.2822265625, -0.162353515625, -0.923583984375
200, 951839767, -5.3001389503479, 1.6107568740844727, 8.177427291870117, -2.174146890640259, -1.240691900253296, -2.2577850818634033, 0.283935546875, -0.162353515625, -0.923095703125
201, 951856434, -5.305734634399414, 1.6076596975326538, 8.154359817504883, -2.1420798301696777, -1.2435860633850098, -2.1066060066223145, 0.28271484375, -0.161865234375, -0.926513671875
202, 951873101, -5.293578624725342, 1.6218239068984985, 8.157842636108398, -2.0955541133880615, -1.3644781112670898, -2.0903162956237793, 0.2822265625, -0.163330078125, -0.925048828125
203, 951889768, -5.298344612121582, 1.629738211631775, 8.162445068359375, -2.2836668491363525, -1.3963277339935303, -2.093825578689575, 0.28125, -0.162841796875, -0.924560546875
204, 951906435, -5.294002532958984, 1.6275426149368286, 8.157645225524902, -2.2489871978759766, -1.4384347200393677, -2.2095305919647217, 0.2822265625, -0.162353515625, -0.925537109375
205, 951923102, -5.289026737213135, 1.632157325744629, 8.167301177978516, -2.3760135173797607, -1.4799659252166748, -2.2806191444396973, 0.2822265625, -0.162841796875, -0.92236328125
206, 951939769, -5.294056415557861, 1.6236714124679565, 8.15163803100586, -2.5545084476470947, -1.3779889345169067, -2.386988639831543, 0.28125, -0.163330078125, -0.923095703125
207, 951956436, -5.281914710998535, 1.6383963823318481, 8.168139457702637, -2.587651252746582, -1.2038354873657227, -2.6151721477508545, 0.28173828125, -0.162841796875, -0.925048828125
208, 951973103, -5.2780046463012695, 1.6068516969680786, 8.150864601135254, -2.5961804389953613, -1.1542876958847046, -2.672698497772217, 0.28125, -0.162841796875, -0.925537109375
209, 951989770, -5.285293102264404, 1.61078941822052, 8.172056198120117, -2.659367084503174, -1.2323423624038696, -2.700295925140381, 0.28076171875, -0.163818359375, -0.923583984375
210, 952006437, -5.305312156677246, 1.6168041229248047, 8.152669906616211, -2.7074549198150635, -1.1805920600891113, -2.5891242027282715, 0.28173828125, -0.161376953125, -0.924560546875
211, 952023104, -5.300562858581543, 1.6218122243881226, 8.154085159301758, -2.7902610301971436, -1.3224862813949585, -2.5780725479125977, 0.28173828125, -0.161376953125, -0.923583984375
212, 952039771, -5.306369304656982, 1.617956280708313, 8.161550521850586, -2.695237636566162, -1.4024235010147095, -2.6002912521362305, 0.28125, -0.161865234375, -0.923095703125
213, 952056438, -5.28660249710083, 1.611262559890747, 8.163334846496582, -2.7003214359283447, -1.3655155897140503, -2.6600329875946045, 0.28271484375, -0.163330078125, -0.922607421875
214, 952073105, -5.295912742614746, 1.5978856086730957, 8.159375190734863, -2.6122140884399414, -1.2583777904510498, -2.7823336124420166, 0.283203125, -0.163330078125, -0.924072265625
215, 952089772, -5.3017354011535645, 1.6040065288543701, 8.149298667907715, -2.6259424686431885, -1.106635332107544, -2.7279579639434814, 0.28369140625, -0.162353515625, -0.926025390625
216, 952106439, -5.322356224060059, 1.5854533910751343, 8.172283172607422, -2.4911301136016846, -1.2415887117385864, -2.6264419555664062, 0.283935546875, -0.163818359375, -0.92138671875
217, 952123106, -5.319997310638428, 1.593011498451233, 8.16812515258789, -2.443336009979248, -1.139380931854248, -2.4729061126708984, 0.284423828125, -0.164306640625, -0.923583984375
218, 952139773, -5.321957588195801, 1.5971866846084595, 8.13744068145752, -2.352769613265991, -1.1208372116088867, -2.2539429664611816, 0.283203125, -0.162353515625, -0.922607421875
219, 952156440, -5.330372333526611, 1.5838043689727783, 8.157618522644043, -2.330768346786499, -1.211992859840393, -2.26835036277771, 0.285888671875, -0.162841796875, -0.925048828125
220, 952173107, -5.310021877288818, 1.586394190788269, 8.168643951416016, -2.3198318481445312, -1.2925958633422852, -2.184532642364502, 0.283447265625, -0.163818359375, -0.92236328125
221, 952189774, -5.29919958114624, 1.6062960624694824, 8.137114524841309, -2.2918756008148193, -1.4394336938858032, -2.142758369445801, 0.283203125, -0.162841796875, -0.92236328125
222, 952206441, -5.313978672027588, 1.6252491474151611, 8.157081604003906, -2.4129979610443115, -1.4595398902893066, -2.250715970993042, 0.28076171875, -0.162353515625, -0.922607421875
223, 952223108, -5.326610565185547, 1.612459421157837, 8.151132583618164, -2.456181287765503, -1.6534152030944824, -2.349914073944092, 0.284423828125, -0.160888671875, -0.923095703125
224, 952239775, -5.295844554901123, 1.5949825048446655, 8.145011901855469, -2.580569267272949, -1.7127853631973267, -2.3809821605682373, 0.285888671875, -0.160400390625, -0.92333984375
225, 952256442, -5.302310943603516, 1.5984103679656982, 8.16552448272705, -2.5813376903533936, -1.7253483533859253, -2.311469554901123, 0.284423828125, -0.164306640625, -0.924560546875
226, 952273109, -5.289563179016113, 1.6123751401901245, 8.177599906921387, -2.4717025756835938, -1.6166096925735474, -2.3213818073272705, 0.284423828125, -0.163818359375, -0.923583984375
227, 952289776, -5.300828456878662, 1.604959487915039, 8.170361518859863, -2.456834316253662, -1.4256925582885742, -2.355741262435913, 0.2822265625, -0.164306640625, -0.924560546875
228, 952306443, -5.31511926651001, 1.6019922494888306, 8.161458015441895, -2.5007729530334473, -1.534508228302002, -2.3690083026885986, 0.284423828125, -0.163330078125, -0.924560546875
229, 952323110, -5.3291144371032715, 1.6007249355316162, 8.150111198425293, -2.5225820541381836, -1.4908512830734253, -2.2431859970092773, 0.283935546875, -0.162353515625, -0.923583984375
230, 952339777, -5.303117275238037, 1.5975300073623657, 8.163235664367676, -2.5138354301452637, -1.6497267484664917, -2.2157673835754395, 0.2822265625, -0.162841796875, -0.923095703125
231, 952356444, -5.312309265136719, 1.5883156061172485, 8.149028778076172, -2.445500612258911, -1.638329267501831, -2.253418445587158, 0.283203125, -0.162353515625, -0.925048828125
232, 952373111, -5.300083160400391, 1.5893596410751343, 8.161125183105469, -2.384913921356201, -1.5895370244979858, -2.108475685119629, 0.284423828125, -0.161865234375, -0.9228515625
233, 952389778, -5.304060935974121, 1.5994696617126465, 8.188533782958984, -2.4189274311065674, -1.5032092332839966, -2.149686574935913, 0.28271484375, -0.161376953125, -0.923583984375
234, 952406445, -5.320328712463379, 1.5984199047088623, 8.178053855895996, -2.4064671993255615, -1.4827193021774292, -2.1674106121063232, 0.2841796875, -0.164306640625, -0.925048828125
235, 952423112, -5.322202682495117, 1.6065388917922974, 8.143362998962402, -2.2869322299957275, -1.5031964778900146, -2.171009063720703, 0.283203125, -0.162353515625, -0.923095703125
236, 952439779, -5.317992687225342, 1.5914907455444336, 8.174269676208496, -2.41762113571167, -1.513877034187317, -2.100625514984131, 0.284423828125, -0.162841796875, -0.925048828125
237, 952456446, -5.298348903656006, 1.5774718523025513, 8.147887229919434, -2.3645262718200684, -1.6649537086486816, -2.0348782539367676, 0.2822265625, -0.162353515625, -0.92236328125
238, 952473113, -5.2879719734191895, 1.6101857423782349, 8.174582481384277, -2.3104445934295654, -1.591009497642517, -2.0017733573913574, 0.28271484375, -0.161376953125, -0.922607421875
239, 952489780, -5.29917573928833, 1.6345683336257935, 8.186685562133789, -2.3340213298797607, -1.5630533695220947, -2.119105100631714, 0.2822265625, -0.162841796875, -0.923095703125
240, 952506447, -5.307493209838867, 1.6105408668518066, 8.184934616088867, -2.311277389526367, -1.4661864042282104, -2.26835036277771, 0.283935546875, -0.162841796875, -0.921875
241, 952523114, -5.309205532073975, 1.6029706001281738, 8.139421463012695, -2.3678555488586426, -1.5045284032821655, -2.1758882999420166, 0.283203125, -0.161376953125, -0.923095703125
242, 952539781, -5.313307762145996, 1.592058539390564, 8.160955429077148, -2.3861429691314697, -1.5700839757919312, -2.096770763397217, 0.284423828125, -0.161376953125, -0.92236328125
243, 952556448, -5.297219753265381, 1.596675157546997, 8.154570579528809, -2.345252513885498, -1.5937886238098145, -2.047043800354004, 0.284423828125, -0.163818359375, -0.92236328125
244, 952573115, -5.292027473449707, 1.621921420097351, 8.183419227600098, -2.3575210571289062, -1.478774905204773, -2.10923171043396, 0.285400390625, -0.162353515625, -0.9228515625
245, 952589782, -5.307746410369873, 1.6212655305862427, 8.148962020874023, -2.4142274856567383, -1.4713984727859497, -2.150980234146118, 0.283203125, -0.1611328125, -0.924072265625
246, 952606449, -5.310490608215332, 1.6064262390136719, 8.158099174499512, -2.352513551712036, -1.5104703903198242, -2.100510358810425, 0.283203125, -0.162841796875, -0.923095703125
247, 952623116, -5.315989017486572, 1.5961353778839111, 8.164568901062012, -2.4089767932891846, -1.5921237468719482, -2.063166856765747, 0.28369140625, -0.162841796875, -0.9228515625
248, 952639783, -5.316340923309326, 1.5961170196533203, 8.147905349731445, -2.2858693599700928, -1.7049477100372314, -2.0649468898773193, 0.28125, -0.164794921875, -0.923583984375
249, 952656450, -5.299673080444336, 1.5929524898529053, 8.153836250305176, -2.334392786026001, -1.6570649147033691, -2.061591863632202, 0.28271484375, -0.164306640625, -0.9287109375
250, 952673117, -5.30374002456665, 1.6045808792114258, 8.158561706542969, -2.335686206817627, -1.6753779649734497, -2.0140421390533447, 0.2822265625, -0.162353515625, -0.924072265625
251, 952689784, -5.316287517547607, 1.603357195854187, 8.155631065368652, -2.413792371749878, -1.733762264251709, -2.061553478240967, 0.28125, -0.163330078125, -0.923583984375
252, 952706451, -5.286566257476807, 1.6038873195648193, 8.168259620666504, -2.3869500160217285, -1.777406096458435, -2.0143234729766846, 0.284423828125, -0.162841796875, -0.924072265625
253, 952723118, -5.292006015777588, 1.6235555410385132, 8.153791427612305, -2.2903900146484375, -1.7933114767074585, -2.028320789337158, 0.28271484375, -0.163818359375, -0.923583984375
254, 952739785, -5.290477752685547, 1.6147633790969849, 8.154643058776855, -2.450841188430786, -1.7167553901672363, -2.1756834983825684, 0.283203125, -0.163818359375, -0.923583984375
255, 952756452, -5.3046441078186035, 1.601515293121338, 8.166038513183594, -2.453350782394409, -1.7921075820922852, -2.146561861038208, 0.283203125, -0.163818359375, -0.923095703125
256, 952773119, -5.290635108947754, 1.6110835075378418, 8.1433744430542, -2.4639415740966797, -1.8200770616531372, -2.1481244564056396, 0.28271484375, -0.162353515625, -0.926025390625
257, 952789786, -5.299890041351318, 1.5987964868545532, 8.160886764526367, -2.459280252456665, -1.8342406749725342, -2.1228957176208496, 0.283203125, -0.162353515625, -0.925537109375
258, 952806453, -5.290415287017822, 1.6096782684326172, 8.164485931396484, -2.4115636348724365, -1.9259599447250366, -2.0688657760620117, 0.2822265625, -0.164794921875, -0.925537109375
259, 952823120, -5.283170223236084, 1.6163833141326904, 8.158035278320312, -2.422935962677002, -1.7518318891525269, -2.0975394248962402, 0.28076171875, -0.164306640625, -0.922607421875
260, 952839787, -5.2947492599487305, 1.6290117502212524, 8.158493041992188, -2.3638088703155518, -1.7952196598052979, -2.0862696170806885, 0.28125, -0.163330078125, -0.922607421875
261, 952856454, -5.290781497955322, 1.596613883972168, 8.163386344909668, -2.3246471881866455, -1.6372151374816895, -2.019728183746338, 0.28125, -0.162353515625, -0.924560546875
262, 952873121, -5.3007097244262695, 1.6098825931549072, 8.156414985656738, -2.3366336822509766, -1.6227564811706543, -2.058812379837036, 0.28271484375, -0.162841796875, -0.923583984375
263, 952889788, -5.310547828674316, 1.6079107522964478, 8.167973518371582, -2.393712043762207, -1.712823748588562, -2.178705930709839, 0.28076171875, -0.163818359375, -0.921875
264, 952906455, -5.3040008544921875, 1.6144015789031982, 8.181061744689941, -2.4164047241210938, -1.8228174448013306, -2.035262107849121, 0.27978515625, -0.163818359375, -0.926513671875
265, 952923122, -5.285808563232422, 1.6070706844329834, 8.161157608032227, -2.321599245071411, -1.8493010997772217, -2.072951316833496, 0.28076171875, -0.161865234375, -0.92138671875
266, 952939789, -5.298428058624268, 1.590761661529541, 8.168240547180176, -2.37548828125, -1.8934955596923828, -2.010315179824829, 0.2822265625, -0.161865234375, -0.925048828125
267, 952956456, -5.296911239624023, 1.6111183166503906, 8.166768074035645, -2.381481647491455, -1.8031853437423706, -2.000467300415039, 0.28173828125, -0.16064453125, -0.925048828125
268, 952973123, -5.306415557861328, 1.6093757152557373, 8.164312362670898, -2.37085223197937, -1.7519341707229614, -2.022160768508911, 0.28076171875, -0.161865234375, -0.923583984375
269, 952989790, -5.29988956451416, 1.596184253692627, 8.160931587219238, -2.425048828125, -1.8815858364105225, -1.9857527017593384, 0.28173828125, -0.163330078125, -0.925048828125
270, 953006457, -5.276706695556641, 1.6158357858657837, 8.165528297424316, -2.4481003284454346, -1.9282523393630981, -1.9648780822753906, 0.28173828125, -0.161865234375, -0.925048828125
271, 953023124, -5.2743330001831055, 1.602597951889038, 8.170591354370117, -2.3886020183563232, -1.8870922327041626, -2.07885479927063, 0.27978515625, -0.164306640625, -0.926025390625
272, 953039791, -5.271698951721191, 1.6290912628173828, 8.158442497253418, -2.4289932250976562, -1.638649344444275, -2.092634677886963, 0.283935546875, -0.164794921875, -0.923583984375
273, 953056458, -5.292327880859375, 1.6009318828582764, 8.16981029510498, -2.385169744491577, -1.6431571245193481, -2.109090566635132, 0.28173828125, -0.161376953125, -0.925048828125
274, 953073125, -5.297275066375732, 1.6229389905929565, 8.12781047821045, -2.3115203380584717, -1.7952452898025513, -2.0440213680267334, 0.28076171875, -0.162353515625, -0.925537109375
275, 953089792, -5.304769039154053, 1.6203380823135376, 8.175472259521484, -2.304271936416626, -1.8421422243118286, -1.8962745666503906, 0.279296875, -0.162353515625, -0.924072265625
276, 953106459, -5.294032096862793, 1.6059974431991577, 8.146636009216309, -2.3839147090911865, -1.9286363124847412, -1.9711661338806152, 0.2802734375, -0.163330078125, -0.923583984375
277, 953123126, -5.278071880340576, 1.6154758930206299, 8.159547805786133, -2.3905997276306152, -1.9848177433013916, -1.939611554145813, 0.2802734375, -0.164306640625, -0.926513671875
278, 953139793, -5.28400993347168, 1.6205352544784546, 8.184721946716309, -2.3965935707092285, -1.9309927225112915, -1.9482941627502441, 0.2802734375, -0.162353515625, -0.923583984375
279, 953156460, -5.287262439727783, 1.6162351369857788, 8.178299903869629, -2.406735897064209, -1.8866314888000488, -2.0044755935668945, 0.28076171875, -0.163818359375, -0.923583984375
280, 953173127, -5.282200336456299, 1.6198203563690186, 8.189824104309082, -2.432054042816162, -1.8469830751419067, -2.0833115577697754, 0.27978515625, -0.162841796875, -0.924560546875
281, 953189794, -5.282227516174316, 1.6015396118164062, 8.162615776062012, -2.422372579574585, -1.7639724016189575, -1.9946529865264893, 0.2802734375, -0.163330078125, -0.924072265625
282, 953206461, -5.273443222045898, 1.606139063835144, 8.199958801269531, -2.365025758743286, -1.728614091873169, -1.9716145992279053, 0.279296875, -0.162353515625, -0.926025390625
283, 953223128, -5.277139186859131, 1.628752589225769, 8.173200607299805, -2.4356396198272705, -1.7208278179168701, -1.9849330186843872, 0.28076171875, -0.163330078125, -0.921875
284, 953239795, -5.28317403793335, 1.6046149730682373, 8.163420677185059, -2.3519887924194336, -1.649393916130066, -2.087012529373169, 0.27880859375, -0.164306640625, -0.924560546875
285, 953256462, -5.2830376625061035, 1.5997813940048218, 8.172006607055664, -2.303619146347046, -1.860199213027954, -2.0210726261138916, 0.27978515625, -0.164306640625, -0.925537109375
286, 953273129, -5.278581142425537, 1.6111562252044678, 8.186124801635742, -2.3795993328094482, -1.8744271993637085, -1.9825128316879272, 0.28076171875, -0.162353515625, -0.925537109375
287, 953289796, -5.271877288818359, 1.6088004112243652, 8.174997329711914, -2.328399181365967, -1.7185736894607544, -2.0481834411621094, 0.27880859375, -0.163818359375, -0.925537109375
288, 953306463, -5.260500431060791, 1.6120223999023438, 8.17621898651123, -2.3089208602905273, -1.6036367416381836, -2.0433685779571533, 0.28125, -0.165283203125, -0.923095703125
289, 953323130, -5.276169776916504, 1.6205137968063354, 8.168280601501465, -2.203153371810913, -1.600934624671936, -2.03562068939209, 0.27978515625, -0.163330078125, -0.925537109375
290, 953339797, -5.285032272338867, 1.6219005584716797, 8.168377876281738, -2.3155927658081055, -1.4734857082366943, -2.0159754753112793, 0.28173828125, -0.163330078125, -0.924072265625
291, 953356464, -5.292218208312988, 1.6156104803085327, 8.180302619934082, -2.2840254306793213, -1.4848707914352417, -2.1567816734313965, 0.27978515625, -0.164794921875, -0.923583984375
292, 953373131, -5.275514602661133, 1.595888376235962, 8.151079177856445, -2.254263401031494, -1.6179285049438477, -2.136969804763794, 0.279296875, -0.163330078125, -0.923583984375
293, 953389798, -5.278201103210449, 1.6138499975204468, 8.187382698059082, -2.3096511363983154, -1.625446081161499, -2.029691219329834, 0.27978515625, -0.16162109375, -0.925537109375
294, 953406465, -5.277310371398926, 1.6359964609146118, 8.193172454833984, -2.267850875854492, -1.5190250873565674, -2.006011962890625, 0.27978515625, -0.164794921875, -0.923095703125
295, 953423132, -5.269369602203369, 1.6344187259674072, 8.1921968460083, -2.354588270187378, -1.4551599025726318, -2.16290283203125, 0.2802734375, -0.163818359375, -0.924560546875
296, 953439799, -5.271969318389893, 1.6205456256866455, 8.159000396728516, -2.314875602722168, -1.4086343050003052, -2.2562737464904785, 0.27880859375, -0.165283203125, -0.922119140625
297, 953456466, -5.265052318572998, 1.6102274656295776, 8.167197227478027, -2.371774196624756, -1.3440519571304321, -2.207404851913452, 0.2802734375, -0.162841796875, -0.924560546875
298, 953473133, -5.278338432312012, 1.6146519184112549, 8.168136596679688, -2.4316952228546143, -1.462549090385437, -2.2011682987213135, 0.27978515625, -0.1611328125, -0.923583984375
299, 953489800, -5.301017761230469, 1.6096235513687134, 8.156140327453613, -2.3168866634368896, -1.402256965637207, -2.255941152572632, 0.27978515625, -0.166259765625, -0.924560546875
300, 953506467, -5.280405521392822, 1.623849868774414, 8.176714897155762, -2.3721585273742676, -1.3361248970031738, -2.1617116928100586, 0.2783203125, -0.162841796875, -0.923095703125
301, 953523134, -5.293069362640381, 1.6271089315414429, 8.177356719970703, -2.3280792236328125, -1.3025081157684326, -2.13863468170166, 0.28125, -0.161865234375, -0.922607421875
302, 953539801, -5.288692951202393, 1.634920358657837, 8.160338401794434, -2.367868423461914, -1.3997851610183716, -2.0882930755615234, 0.279296875, -0.164306640625, -0.923583984375
303, 953556468, -5.298946380615234, 1.624718189239502, 8.162980079650879, -2.4076452255249023, -1.5545501708984375, -2.152043342590332, 0.28271484375, -0.163818359375, -0.926513671875
304, 953573135, -5.285362243652344, 1.6271941661834717, 8.173219680786133, -2.424434185028076, -1.6072098016738892, -2.1263279914855957, 0.28125, -0.163818359375, -0.925537109375
305, 953589802, -5.281736850738525, 1.6185636520385742, 8.188064575195312, -2.244952917098999, -1.6356269121170044, -2.136662483215332, 0.28076171875, -0.163330078125, -0.924560546875
306, 953606469, -5.278815269470215, 1.632085919380188, 8.154815673828125, -2.3087027072906494, -1.5944416522979736, -2.148866891860962, 0.28076171875, -0.165283203125, -0.924560546875
307, 953623136, -5.284501075744629, 1.6081840991973877, 8.184683799743652, -2.388422727584839, -1.547788143157959, -2.129183530807495, 0.28125, -0.162353515625, -0.924560546875
308, 953639803, -5.2635087966918945, 1.624591588973999, 8.171590805053711, -2.3409366607666016, -1.7259116172790527, -2.0630903244018555, 0.278564453125, -0.164794921875, -0.925537109375
309, 953656470, -5.262997627258301, 1.6223410367965698, 8.154546737670898, -2.317552089691162, -1.6057369709014893, -2.109769344329834, 0.27978515625, -0.162841796875, -0.925048828125
310, 953673137, -5.266273498535156, 1.6125041246414185, 8.162522315979004, -2.2746124267578125, -1.6249208450317383, -2.0881905555725098, 0.27978515625, -0.166259765625, -0.926513671875
311, 953689804, -5.281867980957031, 1.6219534873962402, 8.158461570739746, -2.373541831970215, -1.6488559246063232, -2.0930824279785156, 0.27880859375, -0.164306640625, -0.924560546875
312, 953706471, -5.292434215545654, 1.6137603521347046, 8.1502685546875, -2.423524856567383, -1.6654788255691528, -2.138122797012329, 0.2822265625, -0.163330078125, -0.925048828125
313, 953723138, -5.259924411773682, 1.620980143547058, 8.175675392150879, -2.4555280208587646, -1.7300866842269897, -2.117581367492676, 0.28076171875, -0.163818359375, -0.921875
314, 953739805, -5.270016670227051, 1.6245216131210327, 8.165283203125, -2.506471633911133, -1.6766968965530396, -2.222426652908325, 0.2802734375, -0.161865234375, -0.924560546875
315, 953756472, -5.283899784088135, 1.6060116291046143, 8.171759605407715, -2.350592613220215, -1.6178388595581055, -2.155846357345581, 0.28076171875, -0.163330078125, -0.923583984375
316, 953773139, -5.268679618835449, 1.6190088987350464, 8.169868469238281, -2.3698532581329346, -1.5341877937316895, -2.090508222579956, 0.27978515625, -0.1611328125, -0.923583984375
317, 953789806, -5.269384384155273, 1.6324403285980225, 8.176429748535156, -2.355433702468872, -1.5954535007476807, -2.0653953552246094, 0.27978515625, -0.163818359375, -0.924560546875
318, 953806473, -5.285904884338379, 1.6269221305847168, 8.17241096496582, -2.3318958282470703, -1.4711806774139404, -2.0711326599121094, 0.279296875, -0.162353515625, -0.925048828125
319, 953823140, -5.277521133422852, 1.6281033754348755, 8.17356014251709, -2.3559584617614746, -1.6063772439956665, -2.1110243797302246, 0.278076171875, -0.163818359375, -0.924072265625
320, 953839807, -5.275620937347412, 1.617061972618103, 8.181109428405762, -2.4009854793548584, -1.8134942054748535, -2.152183771133423, 0.2822265625, -0.162353515625, -0.923583984375
321, 953856474, -5.286868095397949, 1.6144161224365234, 8.17375373840332, -2.336672067642212, -1.5736186504364014, -2.156320095062256, 0.2802734375, -0.163330078125, -0.923583984375
322, 953873141, -5.2847676277160645, 1.615480661392212, 8.17248821258545, -2.328014850616455, -1.590919852256775, -2.108616590499878, 0.28125, -0.161376953125, -0.922607421875
323, 953889808, -5.273253440856934, 1.6354265213012695, 8.166515350341797, -2.5037310123443604, -1.6360238790512085, -2.04083251953125, 0.27880859375, -0.162109375, -0.925537109375
324, 953906475, -5.264793872833252, 1.6347205638885498, 8.164910316467285, -2.551703691482544, -1.6983782052993774, -2.151479959487915, 0.2802734375, -0.164306640625, -0.92822265625
325, 953923142, -5.280979633331299, 1.6162463426589966, 8.165199279785156, -2.6205251216888428, -1.6916292905807495, -2.308600664138794, 0.2783203125, -0.163330078125, -0.923583984375
326, 953939809, -5.279012203216553, 1.6132179498672485, 8.166150093078613, -2.6239702701568604, -1.6899135112762451, -2.230968952178955, 0.279296875, -0.163330078125, -0.924560546875
327, 953956476, -5.280113697052002, 1.604408860206604, 8.189196586608887, -2.6220622062683105, -1.7845779657363892, -2.132692813873291, 0.2783203125, -0.164306640625, -0.924560546875
328, 953973143, -5.274061679840088, 1.6201629638671875, 8.188848495483398, -2.4938573837280273, -1.852810025215149, -2.1394546031951904, 0.27978515625, -0.163818359375, -0.922119140625
329, 953989810, -5.272238731384277, 1.6132670640945435, 8.18014907836914, -2.396554708480835, -1.82053804397583, -2.04245924949646, 0.27978515625, -0.163818359375, -0.922119140625
330, 954006477, -5.281731605529785, 1.6001168489456177, 8.161296844482422, -2.3783695697784424, -1.817413091659546, -2.0169105529785156, 0.279296875, -0.164794921875, -0.922119140625
331, 954023144, -5.273679256439209, 1.635185956954956, 8.184879302978516, -2.2787234783172607, -1.8039281368255615, -1.999647617340088, 0.27880859375, -0.162109375, -0.923095703125
332, 954039811, -5.274126052856445, 1.6134312152862549, 8.182391166687012, -2.334764003753662, -1.8920228481292725, -2.0358638763427734, 0.2802734375, -0.163818359375, -0.925048828125
333, 954056478, -5.281705379486084, 1.6132025718688965, 8.175960540771484, -2.3560097217559814, -1.7743196487426758, -1.9775179624557495, 0.279296875, -0.163330078125, -0.926513671875
334, 954073145, -5.278598308563232, 1.6244288682937622, 8.199751853942871, -2.29032564163208, -1.8164397478103638, -2.0066652297973633, 0.27978515625, -0.16162109375, -0.926025390625
335, 954089812, -5.278822422027588, 1.6267672777175903, 8.189337730407715, -2.2980868816375732, -1.8984261751174927, -2.0312793254852295, 0.28125, -0.163330078125, -0.92919921875
336, 954106479, -5.264889240264893, 1.6226258277893066, 8.177474975585938, -2.2560434341430664, -1.8604426383972168, -1.9982389211654663, 0.279296875, -0.165283203125, -0.925048828125
337, 954123146, -5.273113250732422, 1.6320079565048218, 8.175541877746582, -2.291619300842285, -1.8416298627853394, -1.9676313400268555, 0.277587890625, -0.164306640625, -0.923095703125
338, 954139813, -5.272562026977539, 1.6162607669830322, 8.183082580566406, -2.266045093536377, -1.7300353050231934, -1.9419547319412231, 0.28125, -0.164306640625, -0.924560546875
339, 954156480, -5.257683277130127, 1.6191589832305908, 8.181197166442871, -2.2316086292266846, -1.6759284734725952, -1.9273300170898438, 0.2802734375, -0.164306640625, -0.923095703125
340, 954173147, -5.264264106750488, 1.6488112211227417, 8.166948318481445, -2.236065626144409, -1.7653295993804932, -2.0298447608947754, 0.277099609375, -0.164306640625, -0.925537109375
341, 954189814, -5.261295318603516, 1.6375079154968262, 8.181611061096191, -2.322892665863037, -1.6579102277755737, -2.1099488735198975, 0.2783203125, -0.164794921875, -0.923095703125
342, 954206481, -5.274264335632324, 1.623693823814392, 8.160847663879395, -2.363847255706787, -1.572555661201477, -2.135791540145874, 0.27978515625, -0.163330078125, -0.925537109375
343, 954223148, -5.2505202293396, 1.6228437423706055, 8.189117431640625, -2.357623338699341, -1.5123274326324463, -2.138148307800293, 0.2783203125, -0.165283203125, -0.924560546875
344, 954239815, -5.266520977020264, 1.6104164123535156, 8.187614440917969, -2.285677194595337, -1.5149142742156982, -2.034698724746704, 0.2783203125, -0.163818359375, -0.922607421875
345, 954256482, -5.283255577087402, 1.6256293058395386, 8.170435905456543, -2.1844429969787598, -1.6404677629470825, -1.9848175048828125, 0.279296875, -0.163818359375, -0.922607421875
346, 954273149, -5.272141456604004, 1.6258076429367065, 8.145967483520508, -2.290569543838501, -1.7286778688430786, -1.896876573562622, 0.276611328125, -0.163818359375, -0.925048828125
347, 954289816, -5.258659839630127, 1.6280755996704102, 8.16907787322998, -2.4002044200897217, -1.7849875688552856, -1.9229631423950195, 0.279296875, -0.163330078125, -0.925048828125
348, 954306483, -5.274268627166748, 1.6193629503250122, 8.181188583374023, -2.3541018962860107, -1.8814194202423096, -1.9021400213241577, 0.277099609375, -0.164306640625, -0.926513671875
349, 954323150, -5.255558490753174, 1.6300932168960571, 8.204316139221191, -2.381007671356201, -1.7594002485275269, -1.9144467115402222, 0.279296875, -0.164794921875, -0.925048828125
350, 954339817, -5.257436275482178, 1.6379077434539795, 8.205412864685059, -2.400153160095215, -1.6929224729537964, -2.0111987590789795, 0.279296875, -0.164794921875, -0.924560546875
351, 954356484, -5.255862712860107, 1.6335779428482056, 8.184847831726074, -2.320894718170166, -1.5709036588668823, -2.1345112323760986, 0.278076171875, -0.164306640625, -0.926513671875
352, 954373151, -5.253005504608154, 1.6407544612884521, 8.192572593688965, -2.391214370727539, -1.5638729333877563, -2.1250855922698975, 0.27880859375, -0.163330078125, -0.923583984375
353, 954389818, -5.250100135803223, 1.6424946784973145, 8.181600570678711, -2.4315032958984375, -1.413001537322998, -2.1811776161193848, 0.279296875, -0.162841796875, -0.923095703125
354, 954406485, -5.265926361083984, 1.6402274370193481, 8.192941665649414, -2.5298430919647217, -1.4176502227783203, -2.3261070251464844, 0.276611328125, -0.163818359375, -0.924072265625
355, 954423152, -5.272097587585449, 1.6206574440002441, 8.179390907287598, -2.4645180702209473, -1.4515101909637451, -2.3521807193756104, 0.28076171875, -0.163818359375, -0.925537109375
356, 954439819, -5.2746262550354, 1.6219472885131836, 8.195679664611816, -2.3740155696868896, -1.5437670946121216, -2.208749532699585, 0.277587890625, -0.164306640625, -0.925048828125
357, 954456486, -5.260130405426025, 1.630387783050537, 8.181097984313965, -2.4192733764648438, -1.5055783987045288, -2.13187313079834, 0.2802734375, -0.162841796875, -0.925537109375
358, 954473153, -5.268840312957764, 1.6260579824447632, 8.1858549118042, -2.343728542327881, -1.5195629596710205, -2.1417596340179443, 0.27978515625, -0.165771484375, -0.925048828125
359, 954489820, -5.260670185089111, 1.6271430253982544, 8.181059837341309, -2.3686881065368652, -1.5433573722839355, -2.218315839767456, 0.2783203125, -0.164794921875, -0.925048828125
360, 954506487, -5.270569801330566, 1.6269736289978027, 8.16326904296875, -2.358839988708496, -1.6315803527832031, -2.152094602584839, 0.27978515625, -0.166259765625, -0.924560546875
361, 954523154, -5.258309364318848, 1.6351274251937866, 8.185124397277832, -2.3382985591888428, -1.692500114440918, -2.1223578453063965, 0.27880859375, -0.167236328125, -0.922607421875
362, 954539821, -5.24523401260376, 1.6366372108459473, 8.199258804321289, -2.3517963886260986, -1.5298080444335938, -2.1332814693450928, 0.276611328125, -0.163818359375, -0.925048828125
363, 954556488, -5.249692440032959, 1.6500873565673828, 8.202609062194824, -2.367215633392334, -1.4016165733337402, -2.2665703296661377, 0.27978515625, -0.165283203125, -0.927001953125
364, 954573155, -5.25875186920166, 1.6268529891967773, 8.166156768798828, -2.3186020851135254, -1.3556544780731201, -2.2437362670898438, 0.278076171875, -0.164794921875, -0.924072265625
365, 954589822, -5.265017509460449, 1.6273760795593262, 8.192758560180664, -2.383005380630493, -1.5477370023727417, -2.178744316101074, 0.278076171875, -0.164794921875, -0.926025390625
366, 954606489, -5.2668585777282715, 1.6218901872634888, 8.168905258178711, -2.3532307147979736, -1.5630662441253662, -2.1509673595428467, 0.27880859375, -0.165283203125, -0.924560546875
367, 954623156, -5.277933597564697, 1.6372872591018677, 8.181831359863281, -2.389127016067505, -1.641876459121704, -2.1541945934295654, 0.28125, -0.164306640625, -0.924072265625
368, 954639823, -5.281797409057617, 1.6402108669281006, 8.16563606262207, -2.416046142578125, -1.762717366218567, -2.0902011394500732, 0.2783203125, -0.164794921875, -0.924072265625
369, 954656490, -5.244345188140869, 1.6307787895202637, 8.181407928466797, -2.432028293609619, -1.730983018875122, -2.2278053760528564, 0.279296875, -0.164794921875, -0.924560546875
370, 954673157, -5.25001335144043, 1.626706838607788, 8.215049743652344, -2.3295130729675293, -1.46470046043396, -2.2431983947753906, 0.278564453125, -0.164794921875, -0.925537109375
371, 954689824, -5.253140926361084, 1.6300073862075806, 8.193338394165039, -2.323122978210449, -1.380921483039856, -2.1884002685546875, 0.278076171875, -0.164306640625, -0.925537109375
372, 954706491, -5.261195659637451, 1.6204279661178589, 8.182766914367676, -2.362348794937134, -1.389681100845337, -2.1694211959838867, 0.278076171875, -0.163818359375, -0.925048828125
373, 954723158, -5.2774338722229, 1.630959153175354, 8.177314758300781, -2.3686110973358154, -1.4693748950958252, -2.169792652130127, 0.2783203125, -0.165283203125, -0.925048828125
374, 954739825, -5.265867710113525, 1.6311454772949219, 8.177179336547852, -2.366408586502075, -1.5805596113204956, -2.1053380966186523, 0.27880859375, -0.164306640625, -0.925048828125
375, 954756492, -5.249680042266846, 1.6204107999801636, 8.17309284210205, -2.415059804916382, -1.5706602334976196, -2.2416234016418457, 0.278076171875, -0.165771484375, -0.925048828125
376, 954773159, -5.2513580322265625, 1.6310116052627563, 8.178865432739258, -2.361311435699463, -1.4879697561264038, -2.124598741531372, 0.27880859375, -0.164794921875, -0.925537109375
377, 954789826, -5.265193462371826, 1.6484999656677246, 8.185578346252441, -2.4162378311157227, -1.3607257604599, -2.262343645095825, 0.2783203125, -0.166748046875, -0.924072265625
378, 954806493, -5.264925003051758, 1.6308351755142212, 8.174463272094727, -2.460432767868042, -1.3495972156524658, -2.2428531646728516, 0.276123046875, -0.164306640625, -0.923583984375
379, 954823160, -5.269833564758301, 1.632690668106079, 8.15710163116455, -2.5072784423828125, -1.4797481298446655, -2.1971726417541504, 0.27880859375, -0.163330078125, -0.923583984375
380, 954839827, -5.268992900848389, 1.6364141702651978, 8.192986488342285, -2.561782121658325, -1.5079734325408936, -2.2748944759368896, 0.2783203125, -0.164306640625, -0.922607421875
381, 954856494, -5.26206636428833, 1.6257519721984863, 8.18741226196289, -2.612393379211426, -1.6087467670440674, -2.277596950531006, 0.277587890625, -0.165283203125, -0.922607421875
382, 954873161, -5.253484725952148, 1.6220104694366455, 8.172325134277344, -2.510019302368164, -1.703936219215393, -2.273165464401245, 0.28125, -0.163330078125, -0.925537109375
383, 954889828, -5.2534403800964355, 1.6223036050796509, 8.194734573364258, -2.377985715866089, -1.512852668762207, -2.304938316345215, 0.27880859375, -0.165771484375, -0.923583984375
384, 954906495, -5.268525123596191, 1.6148052215576172, 8.200474739074707, -2.2793893814086914, -1.4239380359649658, -2.172072172164917, 0.27880859375, -0.166259765625, -0.923583984375
385, 954923162, -5.277655124664307, 1.6338427066802979, 8.21066951751709, -2.3323049545288086, -1.4353611469268799, -2.1325390338897705, 0.2802734375, -0.163818359375, -0.922119140625
386, 954939829, -5.262901306152344, 1.6298367977142334, 8.18946647644043, -2.300699234008789, -1.5164639949798584, -2.1165568828582764, 0.277099609375, -0.163818359375, -0.926513671875
387, 954956496, -5.275737762451172, 1.645723581314087, 8.191438674926758, -2.374310255050659, -1.5573548078536987, -2.1762471199035645, 0.28076171875, -0.165283203125, -0.923583984375
388, 954973163, -5.255582809448242, 1.633920431137085, 8.170462608337402, -2.3606457710266113, -1.6749297380447388, -2.152747392654419, 0.27880859375, -0.164794921875, -0.924560546875
389, 954989830, -5.259795665740967, 1.627127766609192, 8.185385704040527, -2.3088438510894775, -1.6914113759994507, -2.012223243713379, 0.27978515625, -0.164306640625, -0.926513671875
390, 955006497, -5.2761969566345215, 1.635865330696106, 8.193746566772461, -2.3375813961029053, -1.6381882429122925, -2.1630823612213135, 0.28076171875, -0.164794921875, -0.922607421875
391, 955023164, -5.269932270050049, 1.6314678192138672, 8.172210693359375, -2.3399763107299805, -1.606671929359436, -2.106055498123169, 0.27978515625, -0.165283203125, -0.923583984375
392, 955039831, -5.2745361328125, 1.6384367942810059, 8.201634407043457, -2.3610172271728516, -1.657077670097351, -2.1782193183898926, 0.278076171875, -0.164306640625, -0.923583984375
393, 955056498, -5.2653632164001465, 1.6365491151809692, 8.167885780334473, -2.3846704959869385, -1.6644670963287354, -2.14275860786438, 0.2802734375, -0.166259765625, -0.926513671875
394, 955073165, -5.247490406036377, 1.6445748805999756, 8.18873119354248, -2.4875693321228027, -1.6357038021087646, -2.261549949645996, 0.2783203125, -0.163818359375, -0.925048828125
395, 955089832, -5.2696452140808105, 1.6149177551269531, 8.195080757141113, -2.3695716857910156, -1.5436903238296509, -2.3227007389068604, 0.279296875, -0.166259765625, -0.927001953125
396, 955106499, -5.278986930847168, 1.6233065128326416, 8.187597274780273, -2.390317916870117, -1.6677325963974, -2.2429425716400146, 0.2783203125, -0.164794921875, -0.924072265625
397, 955123166, -5.2679643630981445, 1.6395478248596191, 8.178141593933105, -2.422910451889038, -1.9032542705535889, -2.207430601119995, 0.27880859375, -0.164794921875, -0.926513671875
398, 955139833, -5.243343353271484, 1.6326931715011597, 8.178918838500977, -2.435908794403076, -1.9203121662139893, -2.185903310775757, 0.27880859375, -0.163818359375, -0.925048828125
399, 955156500, -5.240320205688477, 1.6319324970245361, 8.200114250183105, -2.4476137161254883, -1.7102112770080566, -2.1538360118865967, 0.278564453125, -0.163818359375, -0.925537109375
400, 955173167, -5.246745586395264, 1.6325348615646362, 8.189201354980469, -2.2814512252807617, -1.5590320825576782, -2.1514155864715576, 0.2783203125, -0.164794921875, -0.923095703125
401, 955189834, -5.262014389038086, 1.616045594215393, 8.18875789642334, -2.287482976913452, -1.5318570137023926, -2.1312456130981445, 0.27880859375, -0.164794921875, -0.924072265625
402, 955206501, -5.273909568786621, 1.6308387517929077, 8.172157287597656, -2.264892578125, -1.4378200769424438, -2.0291659832000732, 0.276611328125, -0.163818359375, -0.924072265625
403, 955223168, -5.277174949645996, 1.631927728652954, 8.167196273803711, -2.2135133743286133, -1.5811487436294556, -1.9920405149459839, 0.279296875, -0.164306640625, -0.922607421875
404, 955239835, -5.26015567779541, 1.6433440446853638, 8.179903030395508, -2.3416154384613037, -1.6220779418945312, -1.9823719263076782, 0.2783203125, -0.164306640625, -0.925048828125
405, 955256502, -5.258675575256348, 1.6536426544189453, 8.194358825683594, -2.4054296016693115, -1.6570265293121338, -1.9945249557495117, 0.278564453125, -0.163330078125, -0.92822265625
406, 955273169, -5.2520246505737305, 1.6192753314971924, 8.202620506286621, -2.3991031646728516, -1.6157258749008179, -1.9665942192077637, 0.27880859375, -0.164306640625, -0.925537109375
407, 955289836, -5.266470909118652, 1.6438233852386475, 8.201924324035645, -2.4322075843811035, -1.487905740737915, -2.088421106338501, 0.278564453125, -0.163330078125, -0.926025390625
408, 955306503, -5.2508158683776855, 1.6249008178710938, 8.189990043640137, -2.498262643814087, -1.4856902360916138, -2.0747697353363037, 0.277587890625, -0.165771484375, -0.926025390625
409, 955323170, -5.236552715301514, 1.6355564594268799, 8.204214096069336, -2.571540594100952, -1.4793766736984253, -2.167820453643799, 0.274169921875, -0.16357421875, -0.92578125
410, 955339837, -5.255687713623047, 1.628597378730774, 8.203483581542969, -2.4546570777893066, -1.4350026845932007, -2.2251930236816406, 0.27880859375, -0.164306640625, -0.925537109375
411, 955356504, -5.257223129272461, 1.62447988986969, 8.201091766357422, -2.3629379272460938, -1.3633253574371338, -1.922335147857666, 0.2802734375, -0.162353515625, -0.924072265625
412, 955373171, -5.280451774597168, 1.629907488822937, 8.167631149291992, -2.283653736114502, -1.4395360946655273, -2.002721071243286, 0.276611328125, -0.164306640625, -0.924072265625
413, 955389838, -5.256480693817139, 1.6173827648162842, 8.195640563964844, -2.275163173675537, -1.596657156944275, -1.9887620210647583, 0.27880859375, -0.164794921875, -0.925537109375
414, 955406505, -5.252321243286133, 1.633615255355835, 8.201798439025879, -2.2516379356384277, -1.6253691911697388, -1.977543592453003, 0.276611328125, -0.163330078125, -0.92626953125
415, 955423172, -5.252192974090576, 1.6193954944610596, 8.20289134979248, -2.2031784057617188, -1.5678044557571411, -1.9110658168792725, 0.278564453125, -0.162841796875, -0.925537109375
416, 955439839, -5.245906829833984, 1.6234917640686035, 8.173039436340332, -2.2866122722625732, -1.5282714366912842, -1.9255117177963257, 0.276611328125, -0.163818359375, -0.9267578125
417, 955456506, -5.268208980560303, 1.6317342519760132, 8.181442260742188, -2.2129759788513184, -1.5133392810821533, -2.08988094329834, 0.277099609375, -0.166748046875, -0.925537109375
418, 955473173, -5.27987003326416, 1.6553170680999756, 8.172903060913086, -2.197633981704712, -1.6424529552459717, -2.094325065612793, 0.27880859375, -0.164794921875, -0.925537109375
419, 955489840, -5.25191068649292, 1.6397477388381958, 8.166095733642578, -2.349363327026367, -1.6826903820037842, -2.050565719604492, 0.2802734375, -0.164306640625, -0.924560546875
420, 955506507, -5.238916873931885, 1.6427468061447144, 8.177644729614258, -2.38063645362854, -1.6133953332901, -2.1326286792755127, 0.277099609375, -0.162841796875, -0.926025390625
421, 955523174, -5.258467674255371, 1.6458333730697632, 8.193512916564941, -2.3869760036468506, -1.6302613019943237, -2.2099406719207764, 0.2802734375, -0.165771484375, -0.925048828125
422, 955539841, -5.258903980255127, 1.6359660625457764, 8.210230827331543, -2.4871723651885986, -1.5865530967712402, -2.2398433685302734, 0.2783203125, -0.166748046875, -0.925048828125
423, 955556508, -5.267471790313721, 1.6325621604919434, 8.189141273498535, -2.464479446411133, -1.5847089290618896, -2.2383577823638916, 0.278076171875, -0.166259765625, -0.924560546875
424, 955573175, -5.259433746337891, 1.6233619451522827, 8.164073944091797, -2.5501410961151123, -1.6714718341827393, -2.1464591026306152, 0.2783203125, -0.163330078125, -0.923583984375
425, 955589842, -5.242834568023682, 1.6465568542480469, 8.193233489990234, -2.53719425201416, -1.7796473503112793, -2.1273140907287598, 0.277587890625, -0.166748046875, -0.925048828125
426, 955606509, -5.254654884338379, 1.6495507955551147, 8.18625259399414, -2.526308536529541, -1.6912449598312378, -2.1677818298339844, 0.278076171875, -0.164306640625, -0.924560546875
427, 955623176, -5.248567581176758, 1.6294463872909546, 8.21721363067627, -2.4558606147766113, -1.6506872177124023, -2.18723464012146, 0.277099609375, -0.166259765625, -0.923583984375
428, 955639843, -5.239964485168457, 1.6462730169296265, 8.191248893737793, -2.5556223392486572, -1.4268579483032227, -2.1984786987304688, 0.276611328125, -0.164794921875, -0.925048828125
429, 955656510, -5.2587175369262695, 1.6341098546981812, 8.168706893920898, -2.5891239643096924, -1.4555187225341797, -2.215383291244507, 0.277099609375, -0.164306640625, -0.925048828125
430, 955673177, -5.266422271728516, 1.6379419565200806, 8.193442344665527, -2.485968589782715, -1.560261607170105, -2.279043674468994, 0.27880859375, -0.163818359375, -0.92724609375
431, 955689844, -5.2553911209106445, 1.6468051671981812, 8.190839767456055, -2.4973537921905518, -1.6586657762527466, -2.2189948558807373, 0.277099609375, -0.163330078125, -0.926025390625
432, 955706511, -5.266458988189697, 1.6394829750061035, 8.193876266479492, -2.512490749359131, -1.6903871297836304, -2.207674026489258, 0.277099609375, -0.163818359375, -0.925048828125
433, 955723178, -5.248974323272705, 1.6407747268676758, 8.185051918029785, -2.5259244441986084, -1.7267056703567505, -2.22062087059021, 0.277587890625, -0.165283203125, -0.925537109375
434, 955739845, -5.248985767364502, 1.62812340259552, 8.193331718444824, -2.601853609085083, -1.758273720741272, -2.2819254398345947, 0.276611328125, -0.166259765625, -0.925537109375
435, 955756512, -5.241433620452881, 1.6357630491256714, 8.183621406555176, -2.564241409301758, -1.6682319641113281, -2.1831753253936768, 0.277099609375, -0.166748046875, -0.925537109375
436, 955773179, -5.249733924865723, 1.627821683883667, 8.192337036132812, -2.5117478370666504, -1.6691796779632568, -2.1842896938323975, 0.27978515625, -0.162841796875, -0.925537109375
437, 955789846, -5.245771408081055, 1.645562767982483, 8.186708450317383, -2.4260735511779785, -1.6122043132781982, -2.218341827392578, 0.278564453125, -0.163330078125, -0.926025390625
438, 955806513, -5.2718505859375, 1.639500617980957, 8.160558700561523, -2.327054738998413, -1.6632630825042725, -2.214858293533325, 0.277099609375, -0.164794921875, -0.926025390625
439, 955823180, -5.259274005889893, 1.6204590797424316, 8.19845962524414, -2.4651455879211426, -1.7346457242965698, -2.269362211227417, 0.278076171875, -0.164794921875, -0.924560546875
440, 955839847, -5.253485202789307, 1.6227141618728638, 8.19271469116211, -2.3395025730133057, -1.6758902072906494, -2.2108755111694336, 0.276611328125, -0.167236328125, -0.926025390625
441, 955856514, -5.264853477478027, 1.6309473514556885, 8.200003623962402, -2.433462619781494, -1.787343978881836, -2.009188175201416, 0.27880859375, -0.166259765625, -0.926513671875
442, 955873181, -5.255362510681152, 1.6496787071228027, 8.191344261169434, -2.3535895347595215, -1.9462965726852417, -2.0100722312927246, 0.277099609375, -0.165283203125, -0.925537109375
443, 955889848, -5.242063522338867, 1.6414375305175781, 8.202178955078125, -2.410565137863159, -2.0150792598724365, -2.0815954208374023, 0.276611328125, -0.164306640625, -0.9287109375
444, 955906515, -5.244251728057861, 1.6390459537506104, 8.195920944213867, -2.4124090671539307, -1.9581294059753418, -2.0672011375427246, 0.276123046875, -0.1630859375, -0.92626953125
445, 955923182, -5.2302961349487305, 1.6423132419586182, 8.193168640136719, -2.434640407562256, -1.9907469749450684, -2.063948154449463, 0.276123046875, -0.163818359375, -0.924560546875
446, 955939849, -5.243828773498535, 1.6334413290023804, 8.175070762634277, -2.3888068199157715, -1.9740217924118042, -2.075460910797119, 0.275634765625, -0.1630859375, -0.924560546875
447, 955956516, -5.228031158447266, 1.627691388130188, 8.18537712097168, -2.466259717941284, -1.8953527212142944, -2.126340866088867, 0.275146484375, -0.165771484375, -0.92724609375
448, 955973183, -5.225198268890381, 1.6149983406066895, 8.207144737243652, -2.483522653579712, -1.7175235748291016, -2.1989524364471436, 0.27978515625, -0.163818359375, -0.925048828125
449, 955989850, -5.230136871337891, 1.6282161474227905, 8.191056251525879, -2.4857382774353027, -1.7797369956970215, -2.1911792755126953, 0.277587890625, -0.164794921875, -0.925048828125
450, 956006517, -5.2263054847717285, 1.6252319812774658, 8.191826820373535, -2.4947028160095215, -1.6421200037002563, -2.241034507751465, 0.275146484375, -0.1630859375, -0.9267578125
451, 956023184, -5.236181259155273, 1.6434084177017212, 8.202576637268066, -2.5120809078216553, -1.704550862312317, -2.2849345207214355, 0.276611328125, -0.163330078125, -0.925048828125
452, 956039851, -5.255263805389404, 1.6338565349578857, 8.183517456054688, -2.520110607147217, -1.695906639099121, -2.2623441219329834, 0.276123046875, -0.164306640625, -0.927734375
453, 956056518, -5.2227582931518555, 1.6337348222732544, 8.191829681396484, -2.5493602752685547, -1.6212328672409058, -2.226409673690796, 0.273193359375, -0.163818359375, -0.923583984375
454, 956073185, -5.241174221038818, 1.6398911476135254, 8.214021682739258, -2.527371644973755, -1.5794199705123901, -2.334764242172241, 0.276123046875, -0.163330078125, -0.926025390625
455, 956089852, -5.247145652770996, 1.6298288106918335, 8.214645385742188, -2.5238113403320312, -1.5721714496612549, -2.1994903087615967, 0.278076171875, -0.16259765625, -0.924560546875
456, 956106519, -5.229764461517334, 1.641577959060669, 8.208951950073242, -2.515986680984497, -1.5347256660461426, -2.212911605834961, 0.276123046875, -0.165283203125, -0.9267578125
457, 956123186, -5.22950553894043, 1.6392569541931152, 8.190425872802734, -2.4930381774902344, -1.3310152292251587, -2.277570962905884, 0.277587890625, -0.163330078125, -0.926025390625
458, 956139853, -5.234066963195801, 1.6480308771133423, 8.188712120056152, -2.488415002822876, -1.3834829330444336, -2.2768666744232178, 0.278076171875, -0.162841796875, -0.926025390625
459, 956156520, -5.236964702606201, 1.6205302476882935, 8.191213607788086, -2.445129156112671, -1.5073330402374268, -2.301057815551758, 0.276611328125, -0.163330078125, -0.926025390625
460, 956173187, -5.2506489753723145, 1.6220521926879883, 8.19945240020752, -2.4609580039978027, -1.6060316562652588, -2.17378830909729, 0.275146484375, -0.163818359375, -0.92578125
461, 956189854, -5.244816303253174, 1.639567494392395, 8.212418556213379, -2.5380136966705322, -1.5560098886489868, -2.201719045639038, 0.27392578125, -0.1640625, -0.93017578125
462, 956206521, -5.235974311828613, 1.6268523931503296, 8.219489097595215, -2.5927226543426514, -1.514594316482544, -2.2392542362213135, 0.275634765625, -0.163818359375, -0.92626953125
463, 956223188, -5.22194766998291, 1.6491014957427979, 8.205967903137207, -2.456104278564453, -1.3057739734649658, -2.29768967628479, 0.276611328125, -0.1630859375, -0.9267578125
464, 956239855, -5.259207248687744, 1.6286852359771729, 8.198543548583984, -2.5164990425109863, -1.3128429651260376, -2.3247365951538086, 0.277587890625, -0.164794921875, -0.924072265625
465, 956256522, -5.2434773445129395, 1.6156080961227417, 8.205719947814941, -2.449073314666748, -1.3612765073776245, -2.187068223953247, 0.277099609375, -0.163818359375, -0.926513671875
466, 956273189, -5.250842094421387, 1.6374785900115967, 8.185163497924805, -2.4018945693969727, -1.3493536710739136, -2.1670520305633545, 0.277099609375, -0.164794921875, -0.926513671875
467, 956289856, -5.264498233795166, 1.6144875288009644, 8.183394432067871, -2.493230104446411, -1.5706604719161987, -2.138378858566284, 0.275634765625, -0.163818359375, -0.92626953125
468, 956306523, -5.249173164367676, 1.638683795928955, 8.191765785217285, -2.441953420639038, -1.602394700050354, -2.1708686351776123, 0.275634765625, -0.164794921875, -0.92626953125
469, 956323190, -5.242014408111572, 1.6270703077316284, 8.1901273727417, -2.3906638622283936, -1.6024200916290283, -2.122396469116211, 0.274169921875, -0.164306640625, -0.9267578125
470, 956339857, -5.2239670753479, 1.627504825592041, 8.194320678710938, -2.4052634239196777, -1.6255741119384766, -2.1598806381225586, 0.274658203125, -0.164306640625, -0.92724609375
471, 956356524, -5.245046138763428, 1.6312694549560547, 8.19044017791748, -2.3647053241729736, -1.51698899269104, -2.15767765045166, 0.275634765625, -0.164794921875, -0.926025390625
472, 956373191, -5.247254848480225, 1.6366580724716187, 8.191871643066406, -2.3871805667877197, -1.5455472469329834, -2.1736347675323486, 0.275634765625, -0.16259765625, -0.92578125
473, 956389858, -5.2310099601745605, 1.619874358177185, 8.19843578338623, -2.3307301998138428, -1.5812128782272339, -2.2221834659576416, 0.273681640625, -0.16357421875, -0.9267578125
474, 956406525, -5.244139194488525, 1.635616660118103, 8.1892728805542, -2.3810079097747803, -1.622551679611206, -2.076293468475342, 0.277099609375, -0.165283203125, -0.925048828125
475, 956423192, -5.237166404724121, 1.625762939453125, 8.197308540344238, -2.289058208465576, -1.3882979154586792, -2.107694625854492, 0.2802734375, -0.16162109375, -0.927734375
476, 956439859, -5.244731903076172, 1.646089792251587, 8.180232048034668, -2.2321081161499023, -1.4729349613189697, -2.1315271854400635, 0.275146484375, -0.163330078125, -0.925048828125
477, 956456526, -5.251792907714844, 1.6188459396362305, 8.204536437988281, -2.28041410446167, -1.4790822267532349, -2.23085355758667, 0.276123046875, -0.163818359375, -0.925537109375
478, 956473193, -5.242335796356201, 1.6327245235443115, 8.207978248596191, -2.2591168880462646, -1.492234230041504, -2.050257921218872, 0.277099609375, -0.16259765625, -0.925537109375
479, 956489860, -5.234847068786621, 1.6210107803344727, 8.198665618896484, -2.251560926437378, -1.4544554948806763, -2.154719352722168, 0.276123046875, -0.1630859375, -0.92626953125
480, 956506527, -5.229783058166504, 1.633731484413147, 8.204938888549805, -2.160828113555908, -1.4384859800338745, -2.117453098297119, 0.277587890625, -0.165283203125, -0.924560546875
481, 956523194, -5.249998569488525, 1.60707426071167, 8.184179306030273, -2.168498992919922, -1.44447922706604, -2.0429582595825195, 0.2783203125, -0.162109375, -0.925048828125
482, 956539861, -5.233201026916504, 1.6217317581176758, 8.197842597961426, -2.1160573959350586, -1.428317904472351, -1.9839210510253906, 0.274658203125, -0.165283203125, -0.924560546875
483, 956556528, -5.244740009307861, 1.6400021314620972, 8.179789543151855, -2.036414623260498, -1.4087239503860474, -2.0851809978485107, 0.277099609375, -0.165283203125, -0.926513671875
484, 956573195, -5.249801158905029, 1.6397199630737305, 8.175150871276855, -2.147355794906616, -1.417470932006836, -2.136918544769287, 0.276611328125, -0.164794921875, -0.92724609375
485, 956589862, -5.259039878845215, 1.6400384902954102, 8.19805908203125, -2.192715883255005, -1.3610204458236694, -2.1447689533233643, 0.278076171875, -0.164306640625, -0.927734375
486, 956606529, -5.241672039031982, 1.6297316551208496, 8.20352840423584, -2.1225881576538086, -1.3927160501480103, -2.0677261352539062, 0.275146484375, -0.165283203125, -0.925537109375
487, 956623196, -5.248697280883789, 1.6488021612167358, 8.174381256103516, -2.184584140777588, -1.480606198310852, -2.0607850551605225, 0.277587890625, -0.165283203125, -0.9267578125
488, 956639863, -5.238948822021484, 1.6320639848709106, 8.192280769348145, -2.2658145427703857, -1.5438309907913208, -2.1285433769226074, 0.276611328125, -0.164794921875, -0.925537109375
489, 956656530, -5.227038383483887, 1.6359812021255493, 8.213174819946289, -2.220825672149658, -1.5060395002365112, -2.091033458709717, 0.277099609375, -0.165771484375, -0.926025390625
490, 956673197, -5.236037731170654, 1.649369239807129, 8.2036714553833, -2.274855852127075, -1.3401715755462646, -2.223681688308716, 0.27978515625, -0.164794921875, -0.926025390625
491, 956689864, -5.2590718269348145, 1.625841498374939, 8.174220085144043, -2.3135437965393066, -1.3733913898468018, -2.1546428203582764, 0.277587890625, -0.164306640625, -0.925048828125
492, 956706531, -5.252879619598389, 1.628172516822815, 8.199679374694824, -2.370147705078125, -1.4330817461013794, -2.1365857124328613, 0.277099609375, -0.164306640625, -0.925537109375
493, 956723198, -5.252372741699219, 1.6444306373596191, 8.181034088134766, -2.4298512935638428, -1.5215991735458374, -2.163965940475464, 0.279296875, -0.165283203125, -0.925537109375
494, 956739865, -5.276081562042236, 1.6051297187805176, 8.20340347290039, -2.354959487915039, -1.5321259498596191, -2.0802760124206543, 0.277587890625, -0.163330078125, -0.924560546875
495, 956756532, -5.2117133140563965, 1.6441683769226074, 8.191035270690918, -2.3408851623535156, -1.5272339582443237, -2.107630491256714, 0.277587890625, -0.165771484375, -0.924072265625
496, 956773199, -5.216572284698486, 1.6463302373886108, 8.21107292175293, -2.3814303874969482, -1.34425687789917, -2.298753023147583, 0.277099609375, -0.164306640625, -0.924560546875
497, 956789866, -5.247576713562012, 1.626754641532898, 8.204483985900879, -2.3809309005737305, -1.2013252973556519, -2.3245320320129395, 0.276611328125, -0.165771484375, -0.9267578125
498, 956806533, -5.263293266296387, 1.6269426345825195, 8.183330535888672, -2.279466152191162, -1.220317006111145, -2.1783599853515625, 0.278564453125, -0.163818359375, -0.92724609375
499, 956823200, -5.249308109283447, 1.626054048538208, 8.19015884399414, -2.2185590267181396, -1.2767547369003296, -2.101675510406494, 0.278076171875, -0.163818359375, -0.926025390625
500, 956839867, -5.248667240142822, 1.6297507286071777, 8.197160720825195, -2.1145713329315186, -1.5269392728805542, -1.9227195978164673, 0.278076171875, -0.166259765625, -0.924560546875
501, 956856534, -5.2387309074401855, 1.6525113582611084, 8.204418182373047, -2.172072172164917, -1.5537174940109253, -2.020406484603882, 0.277099609375, -0.162841796875, -0.924560546875
502, 956873201, -5.219940662384033, 1.656301498413086, 8.201275825500488, -2.1668851375579834, -1.3066318035125732, -2.252764940261841, 0.277099609375, -0.164794921875, -0.925048828125
503, 956889868, -5.261071681976318, 1.6401851177215576, 8.189692497253418, -2.149148941040039, -1.2866922616958618, -2.2398688793182373, 0.275146484375, -0.164794921875, -0.925048828125
504, 956906535, -5.273710250854492, 1.6450532674789429, 8.193361282348633, -2.12319016456604, -1.316889762878418, -2.070197582244873, 0.278076171875, -0.165771484375, -0.925537109375
505, 956923202, -5.261324405670166, 1.645796537399292, 8.199596405029297, -2.163889169692993, -1.3949317932128906, -1.9648399353027344, 0.2783203125, -0.164794921875, -0.925048828125
506, 956939869, -5.237803936004639, 1.652190923690796, 8.180381774902344, -2.1977102756500244, -1.370292067527771, -1.992578387260437, 0.277587890625, -0.165283203125, -0.925537109375
507, 956956536, -5.239644527435303, 1.6600934267044067, 8.188997268676758, -2.1625571250915527, -1.3430531024932861, -2.126507043838501, 0.277587890625, -0.162841796875, -0.925537109375
508, 956973203, -5.2607574462890625, 1.6695071458816528, 8.198833465576172, -2.320497751235962, -1.260849118232727, -2.3145172595977783, 0.27880859375, -0.165283203125, -0.925537109375
509, 956989870, -5.283160209655762, 1.640101432800293, 8.17411994934082, -2.247450590133667, -1.2041298151016235, -2.331920862197876, 0.279296875, -0.164794921875, -0.92724609375
510, 957006537, -5.278704643249512, 1.6215461492538452, 8.193320274353027, -2.209376811981201, -1.3367908000946045, -2.2934889793395996, 0.277099609375, -0.166748046875, -0.925537109375
511, 957023204, -5.265613555908203, 1.620218276977539, 8.184151649475098, -2.1945087909698486, -1.6212326288223267, -2.089714527130127, 0.278564453125, -0.167724609375, -0.925537109375
512, 957039871, -5.239999771118164, 1.6495174169540405, 8.186210632324219, -2.198683738708496, -1.4128990173339844, -2.0708377361297607, 0.279296875, -0.164794921875, -0.926025390625
513, 957056538, -5.23329496383667, 1.655454158782959, 8.185535430908203, -2.1702792644500732, -1.426435112953186, -2.1318089962005615, 0.28076171875, -0.166748046875, -0.924560546875
514, 957073205, -5.251198768615723, 1.654303789138794, 8.219625473022461, -2.176887273788452, -1.255009412765503, -2.2923877239227295, 0.279296875, -0.163330078125, -0.9296875
515, 957089872, -5.248218059539795, 1.6515158414840698, 8.197540283203125, -2.1916403770446777, -1.14226233959198, -2.2362194061279297, 0.277587890625, -0.167236328125, -0.925537109375
516, 957106539, -5.249749660491943, 1.6358948945999146, 8.162158966064453, -2.149315357208252, -1.1501768827438354, -2.3108677864074707, 0.277099609375, -0.164306640625, -0.923095703125
517, 957123206, -5.228457927703857, 1.6457173824310303, 8.187637329101562, -1.9171361923217773, -0.9598742723464966, -2.3603124618530273, 0.277099609375, -0.165771484375, -0.925537109375
518, 957139873, -5.248012065887451, 1.6397690773010254, 8.18921947479248, -1.8258397579193115, -0.7773967385292053, -2.417429208755493, 0.278076171875, -0.166748046875, -0.92724609375
519, 957156540, -5.247098445892334, 1.6717581748962402, 8.177209854125977, -1.741074562072754, -0.6162543296813965, -2.3977203369140625, 0.277587890625, -0.167724609375, -0.925537109375
520, 957173207, -5.2702317237854, 1.6415367126464844, 8.157381057739258, -1.8340486288070679, -0.6944499611854553, -2.416327714920044, 0.2783203125, -0.165771484375, -0.924072265625
521, 957189874, -5.2714009284973145, 1.6597145795822144, 8.160286903381348, -1.7916852235794067, -0.7578029632568359, -2.3194732666015625, 0.279296875, -0.167236328125, -0.923583984375
522, 957206541, -5.2661662101745605, 1.6508063077926636, 8.157861709594727, -1.9085814952850342, -0.7147992849349976, -2.3048996925354004, 0.28125, -0.166259765625, -0.925048828125
523, 957223208, -5.260073184967041, 1.6579797267913818, 8.154016494750977, -1.9597554206848145, -0.7155674695968628, -2.522709608078003, 0.279296875, -0.167236328125, -0.923583984375
524, 957239875, -5.248495578765869, 1.652044653892517, 8.166111946105957, -1.8078597784042358, -0.592985212802887, -2.5207507610321045, 0.2802734375, -0.164306640625, -0.924560546875
525, 957256542, -5.291443824768066, 1.6473945379257202, 8.1812744140625, -1.6211687326431274, -0.5155068039894104, -2.468475103378296, 0.27978515625, -0.166259765625, -0.923583984375
526, 957273209, -5.285900592803955, 1.6616714000701904, 8.193511962890625, -1.2256702184677124, -0.5276857018470764, -2.2228493690490723, 0.283203125, -0.1689453125, -0.92333984375
527, 957289876, -5.287112236022949, 1.6465729475021362, 8.119532585144043, -1.2963354587554932, -0.9787380695343018, -2.2307894229888916, 0.28125, -0.167236328125, -0.924560546875
528, 957306543, -5.288845539093018, 1.6544537544250488, 8.168070793151855, -1.5001614093780518, -0.864928126335144, -2.3257484436035156, 0.28125, -0.16943359375, -0.923583984375
529, 957323210, -5.288896560668945, 1.6433871984481812, 8.172525405883789, -1.606569528579712, -1.0151466131210327, -2.301314115524292, 0.28173828125, -0.16943359375, -0.923583984375
530, 957339877, -5.295813083648682, 1.6576945781707764, 8.155801773071289, -1.4486160278320312, -0.9911731481552124, -2.039731502532959, 0.283203125, -0.16845703125, -0.92236328125
531, 957356544, -5.299898147583008, 1.6597864627838135, 8.141969680786133, -1.449973464012146, -1.2288718223571777, -1.960383415222168, 0.279296875, -0.1689453125, -0.923095703125
532, 957373211, -5.291379928588867, 1.6698784828186035, 8.123486518859863, -1.569699764251709, -1.4454271793365479, -1.9604730606079102, 0.28173828125, -0.1689453125, -0.925537109375
533, 957389878, -5.2404584884643555, 1.698844313621521, 8.177465438842773, -1.5538326501846313, -1.3225629329681396, -2.0589022636413574, 0.283203125, -0.169921875, -0.92333984375
534, 957406545, -5.2857465744018555, 1.6778045892715454, 8.174257278442383, -1.5454318523406982, -1.1351548433303833, -2.230212926864624, 0.28125, -0.16845703125, -0.925048828125
535, 957423212, -5.299282073974609, 1.6780294179916382, 8.151280403137207, -1.5782673358917236, -1.0056185722351074, -2.254173755645752, 0.28173828125, -0.169921875, -0.927978515625
536, 957439879, -5.3180365562438965, 1.6628485918045044, 8.144658088684082, -1.6371382474899292, -1.2480812072753906, -2.170753240585327, 0.2822265625, -0.1689453125, -0.924072265625
537, 957456546, -5.296380996704102, 1.6776589155197144, 8.14415454864502, -1.7107361555099487, -1.274910569190979, -2.0672779083251953, 0.28173828125, -0.171875, -0.92236328125
538, 957473213, -5.306664943695068, 1.6719008684158325, 8.143835067749023, -1.7163199186325073, -1.377028465270996, -2.1024441719055176, 0.283447265625, -0.16943359375, -0.921875
539, 957489880, -5.303281784057617, 1.6741602420806885, 8.175150871276855, -1.8439481258392334, -1.5175782442092896, -1.8788708448410034, 0.283203125, -0.169921875, -0.92236328125
540, 957506547, -5.303588390350342, 1.6792501211166382, 8.159107208251953, -1.7340437173843384, -1.4121817350387573, -1.9457324743270874, 0.2822265625, -0.1708984375, -0.92333984375
541, 957523214, -5.282398223876953, 1.6796581745147705, 8.162428855895996, -1.7958728075027466, -1.4667240381240845, -1.9180582761764526, 0.28125, -0.17041015625, -0.9228515625
542, 957539881, -5.296632766723633, 1.6871228218078613, 8.152715682983398, -1.8058747053146362, -1.5643341541290283, -1.9049190282821655, 0.2822265625, -0.16943359375, -0.9208984375
543, 957556548, -5.26542854309082, 1.6975352764129639, 8.15139102935791, -1.8947508335113525, -1.4197503328323364, -1.9580782651901245, 0.28369140625, -0.1708984375, -0.923828125
544, 957573215, -5.279378414154053, 1.7063721418380737, 8.161691665649414, -1.8863499164581299, -1.2564183473587036, -2.078406810760498, 0.28271484375, -0.16943359375, -0.92333984375
545, 957589882, -5.286197185516357, 1.706518292427063, 8.157551765441895, -1.871391773223877, -1.1743422746658325, -1.966338038444519, 0.283203125, -0.1708984375, -0.927001953125
546, 957606549, -5.291025638580322, 1.692887783050537, 8.156192779541016, -1.849237084388733, -1.1807838678359985, -2.148982524871826, 0.28271484375, -0.17236328125, -0.92236328125
547, 957623216, -5.327193260192871, 1.6965999603271484, 8.138812065124512, -1.9507784843444824, -1.2377721071243286, -2.0451102256774902, 0.283203125, -0.171875, -0.925537109375
548, 957639883, -5.286171913146973, 1.6967984437942505, 8.152884483337402, -2.0345447063446045, -1.4539560079574585, -2.1120870113372803, 0.284912109375, -0.17236328125, -0.9228515625
549, 957656550, -5.270097255706787, 1.731607437133789, 8.154898643493652, -2.0400257110595703, -1.1384460926055908, -2.2404837608337402, 0.28271484375, -0.17138671875, -0.92333984375
550, 957673217, -5.282896041870117, 1.7031362056732178, 8.165426254272461, -2.0018887519836426, -0.9374120831489563, -2.250127077102661, 0.283203125, -0.17236328125, -0.92236328125
551, 957689884, -5.312479496002197, 1.7092795372009277, 8.151084899902344, -1.9874173402786255, -0.7833260297775269, -2.335545301437378, 0.28125, -0.17138671875, -0.92333984375
552, 957706551, -5.321720123291016, 1.6881465911865234, 8.11801528930664, -2.050590991973877, -0.9565190076828003, -2.2525854110717773, 0.28173828125, -0.1708984375, -0.92236328125
553, 957723218, -5.302157878875732, 1.701288104057312, 8.138647079467773, -2.025477886199951, -1.1865850687026978, -2.2872395515441895, 0.28271484375, -0.17138671875, -0.92138671875
554, 957739885, -5.281207084655762, 1.6949405670166016, 8.168377876281738, -2.120065450668335, -1.272208333015442, -2.2755730152130127, 0.28125, -0.17333984375, -0.92333984375
555, 957756552, -5.292170524597168, 1.7129262685775757, 8.165870666503906, -1.9780430793762207, -1.032281517982483, -2.333919048309326, 0.28369140625, -0.171875, -0.9228515625
556, 957773219, -5.299710750579834, 1.6905893087387085, 8.153851509094238, -1.832435131072998, -1.1116552352905273, -2.1880290508270264, 0.285400390625, -0.172607421875, -0.92138671875
557, 957789886, -5.300739765167236, 1.6988338232040405, 8.1354398727417, -1.870162844657898, -1.1125260591506958, -2.188413381576538, 0.284912109375, -0.17138671875, -0.92431640625
558, 957806553, -5.283657550811768, 1.7211835384368896, 8.149544715881348, -1.9235390424728394, -1.19292414188385, -2.2935144901275635, 0.285400390625, -0.173583984375, -0.92041015625
559, 957823220, -5.295207977294922, 1.7110416889190674, 8.122543334960938, -1.807654857635498, -0.9541499018669128, -2.3563172817230225, 0.284423828125, -0.1728515625, -0.919921875
560, 957839887, -5.293069362640381, 1.716544508934021, 8.166966438293457, -1.7431620359420776, -0.764731228351593, -2.396247386932373, 0.285400390625, -0.173583984375, -0.92236328125
561, 957856554, -5.309751510620117, 1.6989483833312988, 8.160222053527832, -1.8984771966934204, -0.6460162401199341, -2.529881477355957, 0.284423828125, -0.17236328125, -0.92333984375
562, 957873221, -5.3150553703308105, 1.70314621925354, 8.145496368408203, -1.6845215559005737, -0.3004625737667084, -2.363194227218628, 0.286865234375, -0.175537109375, -0.9208984375
563, 957889888, -5.319489479064941, 1.7296411991119385, 8.121965408325195, -1.696918249130249, -0.5216282606124878, -2.3814687728881836, 0.285400390625, -0.172607421875, -0.9208984375
564, 957906555, -5.355270862579346, 1.7131409645080566, 8.099474906921387, -1.8448443412780762, -0.797822892665863, -2.3998842239379883, 0.284912109375, -0.171875, -0.92236328125
565, 957923222, -5.339090824127197, 1.717909574508667, 8.110581398010254, -1.9681949615478516, -1.1822820901870728, -2.438918113708496, 0.288330078125, -0.172607421875, -0.92138671875
566, 957939889, -5.323261260986328, 1.6859530210494995, 8.139711380004883, -2.0193819999694824, -1.3508648872375488, -2.400473117828369, 0.287353515625, -0.174072265625, -0.9228515625
567, 957956556, -5.329363822937012, 1.7202391624450684, 8.139744758605957, -2.055419445037842, -1.3811010122299194, -2.235553503036499, 0.284912109375, -0.176513671875, -0.921875
568, 957973223, -5.318470001220703, 1.7307374477386475, 8.119967460632324, -1.9790550470352173, -1.3851988315582275, -2.242788791656494, 0.284912109375, -0.1728515625, -0.92236328125
569, 957989890, -5.321800708770752, 1.701811671257019, 8.12037467956543, -1.994396686553955, -1.312279462814331, -2.2837305068969727, 0.283447265625, -0.171875, -0.921875
570, 958006557, -5.3371124267578125, 1.6937470436096191, 8.14992904663086, -1.9381769895553589, -1.3220763206481934, -2.1601624488830566, 0.28955078125, -0.175537109375, -0.92236328125
571, 958023224, -5.333059787750244, 1.7345588207244873, 8.124811172485352, -2.0547401905059814, -1.486048698425293, -2.0566611289978027, 0.287353515625, -0.174072265625, -0.925537109375
572, 958039891, -5.324418544769287, 1.721480131149292, 8.124238967895508, -2.1504294872283936, -1.6499828100204468, -1.9960103034973145, 0.287353515625, -0.171875, -0.921875
573, 958056558, -5.317924976348877, 1.7124706506729126, 8.117006301879883, -2.3064491748809814, -1.7101726531982422, -1.9106688499450684, 0.284912109375, -0.175537109375, -0.92236328125
574, 958073225, -5.355887413024902, 1.7323538064956665, 8.12186050415039, -2.319319725036621, -1.9408023357391357, -1.9206451177597046, 0.285888671875, -0.17236328125, -0.92041015625
575, 958089892, -5.325585842132568, 1.7065342664718628, 8.11345386505127, -2.4975454807281494, -2.1568710803985596, -1.8465986251831055, 0.285400390625, -0.174560546875, -0.92236328125
576, 958106559, -5.32515811920166, 1.7187273502349854, 8.115894317626953, -2.55043625831604, -2.3720948696136475, -1.7601946592330933, 0.283447265625, -0.175048828125, -0.921875
577, 958123226, -5.302949905395508, 1.7326688766479492, 8.126433372497559, -2.5402936935424805, -2.3305001258850098, -1.799638271331787, 0.287353515625, -0.174560546875, -0.9228515625
578, 958139893, -5.327632427215576, 1.715551495552063, 8.1416654586792, -2.4958550930023193, -2.2285096645355225, -1.771976113319397, 0.283935546875, -0.176025390625, -0.9228515625
579, 958156560, -5.312522888183594, 1.713799238204956, 8.146493911743164, -2.50850772857666, -2.0625264644622803, -1.7111074924468994, 0.283447265625, -0.174560546875, -0.92138671875
580, 958173227, -5.305639743804932, 1.7189701795578003, 8.116337776184082, -2.4475367069244385, -2.164875030517578, -1.77251398563385, 0.284423828125, -0.175537109375, -0.919677734375
581, 958189894, -5.3215155601501465, 1.6930642127990723, 8.090099334716797, -2.3551390171051025, -2.064255475997925, -1.6111540794372559, 0.284423828125, -0.174560546875, -0.92431640625
582, 958206561, -5.291402816772461, 1.7400474548339844, 8.144566535949707, -2.3429858684539795, -2.1198225021362305, -1.6991337537765503, 0.284912109375, -0.174072265625, -0.9228515625
583, 958223228, -5.273642063140869, 1.7264360189437866, 8.142362594604492, -2.277160882949829, -1.8381720781326294, -1.8443831205368042, 0.283935546875, -0.1728515625, -0.9208984375
584, 958239895, -5.293351173400879, 1.7317181825637817, 8.158798217773438, -2.145460367202759, -1.6165966987609863, -1.9743419885635376, 0.283203125, -0.174560546875, -0.921875
585, 958256562, -5.286983966827393, 1.7105026245117188, 8.130937576293945, -2.057481050491333, -1.4349002838134766, -2.0558416843414307, 0.284912109375, -0.175048828125, -0.92138671875
586, 958273229, -5.29883337020874, 1.7010505199432373, 8.142374038696289, -1.821523904800415, -1.3573704957962036, -1.8797543048858643, 0.284423828125, -0.173583984375, -0.926513671875
587, 958289896, -5.29496955871582, 1.736845850944519, 8.127228736877441, -1.8221259117126465, -1.3641835451126099, -1.958346962928772, 0.284423828125, -0.176025390625, -0.92138671875
588, 958306563, -5.271328926086426, 1.737028956413269, 8.125843048095703, -1.859059453010559, -1.3160189390182495, -2.065152168273926, 0.283447265625, -0.175537109375, -0.921875
589, 958323230, -5.284099102020264, 1.7195219993591309, 8.148941993713379, -1.739883542060852, -1.012495756149292, -2.228868246078491, 0.284423828125, -0.175048828125, -0.923828125
590, 958339897, -5.297099590301514, 1.7219492197036743, 8.170616149902344, -1.579880952835083, -0.7754373550415039, -2.2625362873077393, 0.284423828125, -0.175537109375, -0.92431640625
591, 958356564, -5.323668003082275, 1.7457380294799805, 8.126785278320312, -1.6282504796981812, -0.8005760908126831, -2.1596627235412598, 0.284423828125, -0.175048828125, -0.92333984375
592, 958373231, -5.335960865020752, 1.7605127096176147, 8.132474899291992, -1.6587550640106201, -0.9292158484458923, -2.1673977375030518, 0.28369140625, -0.176513671875, -0.928955078125
593, 958389898, -5.351054668426514, 1.7607173919677734, 8.1180419921875, -1.913947343826294, -1.2996010780334473, -2.23054575920105, 0.286376953125, -0.177490234375, -0.9208984375
594, 958406565, -5.346524238586426, 1.7297749519348145, 8.118364334106445, -2.15010929107666, -1.6775548458099365, -2.185493230819702, 0.285400390625, -0.177001953125, -0.923828125
595, 958423232, -5.362661838531494, 1.7383943796157837, 8.103401184082031, -2.3347129821777344, -2.140120506286621, -2.019907236099243, 0.283447265625, -0.177001953125, -0.9208984375
596, 958439899, -5.313157558441162, 1.7593281269073486, 8.135098457336426, -2.6193337440490723, -2.529202699661255, -1.865501046180725, 0.284423828125, -0.177978515625, -0.923828125
597, 958456566, -5.286078929901123, 1.760875940322876, 8.134994506835938, -2.760972499847412, -2.6462013721466064, -1.991694688796997, 0.284423828125, -0.176025390625, -0.9208984375
598, 958473233, -5.282671928405762, 1.7544981241226196, 8.131582260131836, -2.770282506942749, -2.399615526199341, -2.199862241744995, 0.284912109375, -0.176513671875, -0.921875
599, 958489900, -5.281993389129639, 1.749755859375, 8.125835418701172, -2.7598962783813477, -2.2029354572296143, -2.2462849617004395, 0.284423828125, -0.175537109375, -0.92236328125
600, 958506567, -5.3284502029418945, 1.7054939270019531, 8.161219596862793, -2.769040107727051, -2.1985812187194824, -2.090930938720703, 0.284423828125, -0.177978515625, -0.9208984375
601, 958523234, -5.320423603057861, 1.7144967317581177, 8.149858474731445, -2.679677963256836, -2.3686625957489014, -1.8752596378326416, 0.28173828125, -0.175048828125, -0.92138671875
602, 958539901, -5.288541793823242, 1.7674124240875244, 8.117011070251465, -2.6752727031707764, -2.405442714691162, -1.8697657585144043, 0.2822265625, -0.177001953125, -0.92333984375
603, 958556568, -5.303721904754639, 1.7371350526809692, 8.158659934997559, -2.724435567855835, -2.3222007751464844, -1.9646987915039062, 0.28271484375, -0.175048828125, -0.92236328125
604, 958573235, -5.310155391693115, 1.720150351524353, 8.12415599822998, -2.6036717891693115, -2.2601799964904785, -1.7752419710159302, 0.283447265625, -0.176513671875, -0.9208984375
605, 958589902, -5.2953057289123535, 1.7390843629837036, 8.151137351989746, -2.638249158859253, -2.425523042678833, -1.656680941581726, 0.28173828125, -0.176025390625, -0.92431640625
606, 958606569, -5.298067092895508, 1.719915509223938, 8.14455795288086, -2.665245294570923, -2.439136028289795, -1.718574047088623, 0.2822265625, -0.175048828125, -0.92138671875
607, 958623236, -5.2832136154174805, 1.7438194751739502, 8.144938468933105, -2.6169393062591553, -2.611945152282715, -1.6962909698486328, 0.28369140625, -0.176025390625, -0.92333984375
608, 958639903, -5.255239963531494, 1.753309726715088, 8.150229454040527, -2.6423981189727783, -2.5410356521606445, -1.8834553956985474, 0.28076171875, -0.175537109375, -0.9228515625
609, 958656570, -5.260260581970215, 1.7367205619812012, 8.172639846801758, -2.5078933238983154, -2.1144824028015137, -1.9744192361831665, 0.28125, -0.177001953125, -0.92236328125
610, 958673237, -5.268301010131836, 1.741560459136963, 8.169333457946777, -2.415674924850464, -1.8734411001205444, -1.9787861108779907, 0.279296875, -0.175048828125, -0.927001953125
611, 958689904, -5.289612770080566, 1.7426788806915283, 8.141021728515625, -2.494523525238037, -1.872583031654358, -2.051064968109131, 0.27978515625, -0.175048828125, -0.923583984375
612, 958706571, -5.2728753089904785, 1.707681655883789, 8.159219741821289, -2.4283533096313477, -1.8581758737564087, -2.1233184337615967, 0.2822265625, -0.177001953125, -0.9208984375
613, 958723238, -5.260490894317627, 1.7232469320297241, 8.155019760131836, -2.263317108154297, -1.7434436082839966, -1.9945119619369507, 0.279296875, -0.175048828125, -0.9228515625
614, 958739905, -5.290287494659424, 1.7535327672958374, 8.152515411376953, -2.181638479232788, -1.701951026916504, -1.951149821281433, 0.27880859375, -0.175048828125, -0.9208984375
615, 958756572, -5.27646541595459, 1.7829599380493164, 8.156839370727539, -2.305936813354492, -1.7056905031204224, -1.983498454093933, 0.28125, -0.177490234375, -0.9189453125
616, 958773239, -5.266384601593018, 1.7470463514328003, 8.142963409423828, -2.4546189308166504, -1.8893848657608032, -2.041473150253296, 0.2822265625, -0.176513671875, -0.923828125
617, 958789906, -5.2760138511657715, 1.727698564529419, 8.138130187988281, -2.5418813228607178, -2.0196385383605957, -2.165349006652832, 0.2802734375, -0.177001953125, -0.921875
618, 958806573, -5.277158260345459, 1.749268651008606, 8.14876651763916, -2.579775810241699, -1.8783844709396362, -2.1006898880004883, 0.279296875, -0.176513671875, -0.924072265625
619, 958823240, -5.267664909362793, 1.7456724643707275, 8.15626335144043, -2.565406560897827, -1.816235065460205, -2.1862871646881104, 0.28125, -0.177001953125, -0.921875
620, 958839907, -5.23909330368042, 1.7450544834136963, 8.151924133300781, -2.573307991027832, -1.6502134799957275, -2.2365009784698486, 0.279296875, -0.176025390625, -0.9228515625
621, 958856574, -5.265031337738037, 1.7581143379211426, 8.15597915649414, -2.594118595123291, -1.5843505859375, -2.3477885723114014, 0.27978515625, -0.176513671875, -0.92138671875
622, 958873241, -5.256290912628174, 1.7521542310714722, 8.172822952270508, -2.5423171520233154, -1.4711296558380127, -2.4270596504211426, 0.28076171875, -0.177001953125, -0.924560546875
623, 958889908, -5.279666423797607, 1.7333227396011353, 8.149148941040039, -2.6617746353149414, -1.514466404914856, -2.4526851177215576, 0.279296875, -0.175537109375, -0.92236328125
624, 958906575, -5.302452564239502, 1.7111632823944092, 8.147725105285645, -2.605593204498291, -1.652275562286377, -2.2624213695526123, 0.279296875, -0.17431640625, -0.923583984375
625, 958923242, -5.261852741241455, 1.7117133140563965, 8.13624095916748, -2.5276920795440674, -1.7871774435043335, -2.250012159347534, 0.2802734375, -0.173828125, -0.92236328125
626, 958939909, -5.2618865966796875, 1.74491286277771, 8.166611671447754, -2.5995357036590576, -1.7031549215316772, -2.2379355430603027, 0.28076171875, -0.174560546875, -0.924560546875
627, 958956576, -5.268457412719727, 1.7378770112991333, 8.155550003051758, -2.604440450668335, -1.4930156469345093, -2.2889561653137207, 0.283203125, -0.177001953125, -0.925048828125
628, 958973243, -5.278862476348877, 1.735113263130188, 8.153313636779785, -2.607167959213257, -1.4571704864501953, -2.2550318241119385, 0.28125, -0.17333984375, -0.924072265625
629, 958989910, -5.272388458251953, 1.734498143196106, 8.147526741027832, -2.657228469848633, -1.6278409957885742, -2.198568820953369, 0.2802734375, -0.177490234375, -0.925048828125
630, 959006577, -5.258600234985352, 1.7241333723068237, 8.141560554504395, -2.647982120513916, -1.7558149099349976, -2.142118453979492, 0.2783203125, -0.176513671875, -0.92333984375
631, 959023244, -5.2451090812683105, 1.7421653270721436, 8.164398193359375, -2.519585371017456, -1.690169334411621, -2.2017316818237305, 0.279296875, -0.175048828125, -0.9228515625
632, 959039911, -5.2808732986450195, 1.717382788658142, 8.161087989807129, -2.526872158050537, -1.6899389028549194, -2.2274725437164307, 0.28076171875, -0.177490234375, -0.929443359375
633, 959056578, -5.277402877807617, 1.720348834991455, 8.148236274719238, -2.5005295276641846, -1.693780779838562, -2.1204755306243896, 0.28076171875, -0.173828125, -0.92333984375
634, 959073245, -5.268125534057617, 1.7360622882843018, 8.161927223205566, -2.4488303661346436, -1.677593469619751, -2.082427978515625, 0.28076171875, -0.174560546875, -0.923828125
635, 959089912, -5.267022132873535, 1.7208141088485718, 8.185526847839355, -2.535196304321289, -1.536198616027832, -2.1526706218719482, 0.28125, -0.174560546875, -0.921875
636, 959106579, -5.2645344734191895, 1.7246283292770386, 8.14705753326416, -2.425355911254883, -1.501057744026184, -2.144064426422119, 0.27978515625, -0.176025390625, -0.92236328125
637, 959123246, -5.264739990234375, 1.734902262687683, 8.157862663269043, -2.4004478454589844, -1.370561122894287, -2.179192304611206, 0.27978515625, -0.175048828125, -0.92333984375
638, 959139913, -5.27727746963501, 1.7350817918777466, 8.15456485748291, -2.3262476921081543, -1.4469125270843506, -2.1086807250976562, 0.2802734375, -0.175537109375, -0.923828125
639, 959156580, -5.27899694442749, 1.7329047918319702, 8.168608665466309, -2.2723844051361084, -1.557239294052124, -2.0924806594848633, 0.27978515625, -0.173828125, -0.924072265625
640, 959173247, -5.277725696563721, 1.7032421827316284, 8.165984153747559, -2.2239890098571777, -1.6820114850997925, -2.0418827533721924, 0.279296875, -0.175537109375, -0.923583984375
641, 959189914, -5.269721031188965, 1.7182704210281372, 8.139350891113281, -2.2313525676727295, -1.710070252418518, -2.0632693767547607, 0.2822265625, -0.175048828125, -0.92431640625
642, 959206581, -5.288425922393799, 1.724509358406067, 8.15868854522705, -2.344125747680664, -1.8523874282836914, -2.083157777786255, 0.27880859375, -0.175537109375, -0.923583984375
643, 959223248, -5.269035339355469, 1.7437238693237305, 8.149249076843262, -2.360504627227783, -1.8465346097946167, -1.9666069746017456, 0.2802734375, -0.175537109375, -0.925537109375
644, 959239915, -5.270598888397217, 1.7225819826126099, 8.151799201965332, -2.2569527626037598, -1.8063867092132568, -2.000659227371216, 0.279296875, -0.17431640625, -0.925537109375
645, 959256582, -5.262603759765625, 1.7597668170928955, 8.155052185058594, -2.34393310546875, -1.6552973985671997, -2.034762382507324, 0.28076171875, -0.174072265625, -0.9208984375
646, 959273249, -5.268940448760986, 1.7511221170425415, 8.185396194458008, -2.3494787216186523, -1.6683217287063599, -2.165861129760742, 0.28076171875, -0.175537109375, -0.9228515625
647, 959289916, -5.272300720214844, 1.7339929342269897, 8.15334415435791, -2.335750102996826, -1.5878593921661377, -2.166898488998413, 0.27978515625, -0.173828125, -0.924072265625
648, 959306583, -5.253015995025635, 1.7307088375091553, 8.164264678955078, -2.2924389839172363, -1.4560691118240356, -2.103916645050049, 0.27978515625, -0.175537109375, -0.92333984375
649, 959323250, -5.271183490753174, 1.7205499410629272, 8.161030769348145, -2.2048816680908203, -1.4149093627929688, -2.139326333999634, 0.28125, -0.17333984375, -0.924560546875
650, 959339917, -5.291971683502197, 1.7462489604949951, 8.136765480041504, -2.230635166168213, -1.386504888534546, -2.207340717315674, 0.279296875, -0.173828125, -0.9228515625
651, 959356584, -5.289386749267578, 1.7449339628219604, 8.163981437683105, -2.2598342895507812, -1.6067872047424316, -2.1996829509735107, 0.28125, -0.175048828125, -0.92138671875
652, 959373251, -5.2753095626831055, 1.7467288970947266, 8.171355247497559, -2.426649808883667, -1.511828064918518, -2.176349401473999, 0.2802734375, -0.176513671875, -0.92333984375
653, 959389918, -5.272302150726318, 1.735003113746643, 8.176127433776855, -2.4355244636535645, -1.4523810148239136, -2.1731865406036377, 0.28173828125, -0.176513671875, -0.9228515625
