sep=,
DeviceTag:,B,,,,,,,,,,,,,,,,,
FirmwareVersion:,2.2.1,,,,,,,,,,,,,,,,,
AppVersion:,2022.0.1,,,,,,,,,,,,,,,,,
SyncStatus:,Synced,,,,,,,,,,,,,,,,,
OutputRate:,60Hz,,,,,,,,,,,,,,,,,
FilterProfile:,General,,,,,,,,,,,,,,,,,
Measurement Mode:,Inertial Mode - Rate quantities (with mag),,,,,,,,,,,,,,,,,
StartTime:,2022-08-16 15:25:25.449 +0300,,,,,,,,,,,,,,,,,
© Xsens Technologies B. V. 2005-2022,,,,,,,,,,,,,,,,,,,

PacketCounter,SampleTimeFine,Acc_X,Acc_Y,Acc_Z,Gyr_X,Gyr_Y,Gyr_Z,Mag_X,Mag_Y,Mag_Z
1, 948539701, -5.352086544036865, -2.062750816345215, 7.764435768127441, -0.7885765433311462, 0.3350204825401306, -1.8291692733764648, 0.26904296875, 0.301513671875, -0.8720703125
2, 948556368, -5.344254016876221, -2.0553648471832275, 7.771045684814453, -0.3918231129646301, -0.10291183739900589, -1.6964445114135742, 0.27197265625, 0.301513671875, -0.87451171875
3, 948573035, -5.344449520111084, -2.0394999980926514, 7.822750568389893, -0.185845747590065, -0.2679344415664673, -1.6180440187454224, 0.27099609375, 0.302978515625, -0.87255859375
4, 948589702, -5.349276065826416, -2.052292585372925, 7.811521053314209, -0.03854711353778839, -0.3344506621360779, -1.5064365863800049, 0.271484375, 0.2998046875, -0.875
5, 948606369, -5.338012218475342, -2.078953981399536, 7.80262565612793, 0.05566280335187912, -0.36747825145721436, -1.1957546472549438, 0.27001953125, 0.301025390625, -0.87255859375
6, 948623036, -5.327220916748047, -2.0616209506988525, 7.8136982917785645, 0.19938845932483673, -0.15257486701011658, -1.0910625457763672, 0.2685546875, 0.302490234375, -0.87353515625
7, 948639703, -5.349785327911377, -2.0569584369659424, 7.821715354919434, -7.683809963054955E-4, 0.06205316260457039, -0.848587155342102, 0.27099609375, 0.301513671875, -0.872314453125
8, 948656370, -5.3620219230651855, -2.0132431983947754, 7.809728622436523, -0.09476698189973831, -0.029979664832353592, -0.935273289680481, 0.2685546875, 0.300537109375, -0.873046875
9, 948673037, -5.373871803283691, -1.9933233261108398, 7.821288585662842, -0.3281243145465851, -0.13898731768131256, -1.034842848777771, 0.27099609375, 0.2998046875, -0.873046875
10, 948689704, -5.398167610168457, -1.9855101108551025, 7.809320449829102, -0.513893187046051, -0.317507803440094, -1.2461475133895874, 0.27197265625, 0.300537109375, -0.873046875
11, 948706371, -5.413593292236328, -1.999584436416626, 7.7866950035095215, -0.7101889252662659, -0.5584849119186401, -1.4955512285232544, 0.26806640625, 0.29931640625, -0.8720703125
12, 948723038, -5.400100231170654, -2.0090842247009277, 7.809971809387207, -0.9630246758460999, -0.8706269264221191, -1.7798266410827637, 0.26904296875, 0.2998046875, -0.8740234375
13, 948739705, -5.390587329864502, -2.0302765369415283, 7.79580545425415, -1.0229072570800781, -1.0794856548309326, -1.8475593328475952, 0.272705078125, 0.2998046875, -0.872314453125
14, 948756372, -5.393762588500977, -2.0306239128112793, 7.811788082122803, -1.0099726915359497, -1.3290685415267944, -1.9562722444534302, 0.2705078125, 0.300537109375, -0.87353515625
15, 948773039, -5.372106075286865, -2.03625750541687, 7.813616752624512, -1.099860429763794, -1.5528210401535034, -1.8984386920928955, 0.2705078125, 0.29931640625, -0.87548828125
16, 948789706, -5.342846870422363, -2.0423965454101562, 7.819714546203613, -1.095877766609192, -1.504554033279419, -1.8597638607025146, 0.272705078125, 0.300537109375, -0.873779296875
17, 948806373, -5.327883243560791, -2.0661308765411377, 7.829519748687744, -1.0912162065505981, -1.3381611108779907, -1.9246021509170532, 0.27001953125, 0.2998046875, -0.87451171875
18, 948823040, -5.325991153717041, -2.06510853767395, 7.7987589836120605, -1.0154539346694946, -1.1101953983306885, -1.8646559715270996, 0.26953125, 0.302490234375, -0.87451171875
19, 948839707, -5.312005996704102, -2.091679334640503, 7.796612739562988, -0.5341655611991882, -0.8764792084693909, -1.7368865013122559, 0.26806640625, 0.302001953125, -0.869873046875
20, 948856374, -5.353310585021973, -2.0698044300079346, 7.820552825927734, -0.5008307099342346, -0.9543420076370239, -1.5430114269256592, 0.26806640625, 0.300537109375, -0.8720703125
21, 948873041, -5.3248467445373535, -2.073611259460449, 7.817502975463867, -0.34716737270355225, -0.9187019467353821, -1.3663480281829834, 0.2705078125, 0.300537109375, -0.87255859375
22, 948889708, -5.353063106536865, -2.047140598297119, 7.831216812133789, -0.22639067471027374, -0.7178342938423157, -1.426589012145996, 0.27001953125, 0.301513671875, -0.8720703125
23, 948906375, -5.3506011962890625, -2.0302274227142334, 7.815621376037598, -0.15194734930992126, -0.6319805383682251, -1.5477627515792847, 0.271484375, 0.302001953125, -0.875
24, 948923042, -5.343069553375244, -2.0627312660217285, 7.8451714515686035, -0.07582639902830124, -0.46772629022598267, -1.5879490375518799, 0.26904296875, 0.30029296875, -0.87353515625
25, 948939709, -5.354109287261963, -2.0460264682769775, 7.806332588195801, 0.008368950337171555, -0.43765702843666077, -1.4674797058105469, 0.2685546875, 0.301025390625, -0.87451171875
26, 948956376, -5.354153156280518, -2.0391225814819336, 7.807255268096924, 0.15168482065200806, -0.5633129477500916, -1.3402997255325317, 0.26904296875, 0.303466796875, -0.8740234375
27, 948973043, -5.373447418212891, -2.0466010570526123, 7.824800968170166, 0.18683825433254242, -0.6989577412605286, -1.3067984580993652, 0.26904296875, 0.301513671875, -0.873046875
28, 948989710, -5.339666843414307, -2.047558069229126, 7.823103904724121, 0.14574266970157623, -0.5822663307189941, -1.3179911375045776, 0.2685546875, 0.29931640625, -0.87255859375
29, 949006377, -5.354593276977539, -2.0203380584716797, 7.817879676818848, 0.06010659784078598, -0.3121931850910187, -1.3801404237747192, 0.26806640625, 0.2998046875, -0.873046875
30, 949023044, -5.336604595184326, -2.007323980331421, 7.8365092277526855, -0.11347707360982895, -0.22231824696063995, -1.500404715538025, 0.2685546875, 0.30029296875, -0.87255859375
31, 949039711, -5.351714134216309, -2.0340616703033447, 7.830050945281982, -0.23050148785114288, -0.030940143391489983, -1.597925066947937, 0.26708984375, 0.30078125, -0.875
32, 949056378, -5.329992771148682, -2.0474934577941895, 7.814248561859131, -0.2274664044380188, 0.14140130579471588, -1.5707117319107056, 0.27099609375, 0.29833984375, -0.872314453125
33, 949073045, -5.346848964691162, -2.0411434173583984, 7.79587459564209, -0.14649184048175812, 0.24176469445228577, -1.4546092748641968, 0.271484375, 0.29931640625, -0.875
34, 949089712, -5.378089904785156, -2.0338916778564453, 7.807868480682373, -0.18597382307052612, 0.15013524889945984, -1.432748794555664, 0.2685546875, 0.29931640625, -0.8740234375
35, 949106379, -5.381340503692627, -2.022719383239746, 7.801936149597168, -0.08764664828777313, 0.012338916771113873, -1.5118021965026855, 0.26953125, 0.29931640625, -0.873046875
36, 949123046, -5.365951061248779, -2.045863389968872, 7.811302661895752, 0.10181687772274017, -0.35143184661865234, -1.4804524183273315, 0.27001953125, 0.302001953125, -0.8759765625
37, 949139713, -5.344931125640869, -2.0172064304351807, 7.821908950805664, 0.1470361053943634, -0.2984391748905182, -1.4662374258041382, 0.26904296875, 0.29931640625, -0.87353515625
38, 949156380, -5.347738265991211, -2.0295727252960205, 7.812380313873291, 0.21327054500579834, -0.08482925593852997, -1.4951283931732178, 0.27001953125, 0.29931640625, -0.8740234375
39, 949173047, -5.358876705169678, -2.0174412727355957, 7.83453893661499, 0.14026153087615967, -0.06515870243310928, -1.3836874961853027, 0.27099609375, 0.2998046875, -0.8740234375
40, 949189714, -5.363929271697998, -2.001563310623169, 7.8018670082092285, 0.060029760003089905, 0.10334084182977676, -1.4179191589355469, 0.27099609375, 0.29931640625, -0.873046875
41, 949206381, -5.370180130004883, -2.020742177963257, 7.794554710388184, 0.04147336632013321, 0.10530021041631699, -1.3463956117630005, 0.27099609375, 0.29833984375, -0.869384765625
42, 949223048, -5.352393627166748, -2.0290567874908447, 7.804947853088379, 0.014439160004258156, 0.04651906341314316, -1.3536823987960815, 0.271484375, 0.2978515625, -0.873291015625
43, 949239715, -5.375001907348633, -2.017083168029785, 7.797027111053467, 0.09669435024261475, 0.006499222945421934, -1.3035967350006104, 0.271484375, 0.29931640625, -0.871826171875
44, 949256382, -5.373399257659912, -2.0051774978637695, 7.822413444519043, -0.015367620624601841, 0.039296288043260574, -1.2451231479644775, 0.272705078125, 0.2978515625, -0.871337890625
45, 949273049, -5.373354434967041, -2.002119541168213, 7.817509174346924, -0.01202516257762909, 0.04216490685939789, -1.2356847524642944, 0.272705078125, 0.29736328125, -0.873779296875
46, 949289716, -5.400934219360352, -2.0170280933380127, 7.812798500061035, -0.05196816846728325, -0.07838767021894455, -1.3214489221572876, 0.27099609375, 0.29931640625, -0.870361328125
47, 949306383, -5.382819652557373, -2.018449068069458, 7.792271614074707, -0.042273759841918945, -0.25423166155815125, -1.373878002166748, 0.272705078125, 0.300537109375, -0.8740234375
48, 949323050, -5.364068031311035, -2.0073859691619873, 7.811171531677246, 0.008765948005020618, -0.3704620897769928, -1.3038785457611084, 0.272705078125, 0.300537109375, -0.872802734375
49, 949339717, -5.376901626586914, -1.9992133378982544, 7.802000522613525, -0.06328897923231125, -0.2879507839679718, -1.343514084815979, 0.272216796875, 0.296875, -0.873291015625
50, 949356384, -5.378202438354492, -2.0033435821533203, 7.804093837738037, -0.05406841263175011, -0.3521234095096588, -1.4280874729156494, 0.274658203125, 0.2978515625, -0.874755859375
51, 949373051, -5.364444732666016, -2.0009613037109375, 7.822458744049072, -0.1392434537410736, -0.21004974842071533, -1.440214991569519, 0.273681640625, 0.2978515625, -0.871337890625
52, 949389718, -5.381038188934326, -1.9647101163864136, 7.817653656005859, -0.19137810170650482, -0.1351454257965088, -1.437346339225769, 0.27099609375, 0.29833984375, -0.873046875
53, 949406385, -5.393895149230957, -2.001394748687744, 7.802755355834961, -0.38328123092651367, -0.14285482466220856, -1.387900948524475, 0.273681640625, 0.296875, -0.874267578125
54, 949423052, -5.394092559814453, -2.0119874477386475, 7.782339572906494, -0.3682209849357605, -0.24455006420612335, -1.4707837104797363, 0.272705078125, 0.2978515625, -0.87451171875
55, 949439719, -5.39595365524292, -2.0039234161376953, 7.803125381469727, -0.47779205441474915, -0.11936798691749573, -1.4993033409118652, 0.273681640625, 0.298828125, -0.870361328125
56, 949456386, -5.400599956512451, -2.0164613723754883, 7.787023544311523, -0.44850394129753113, -0.2692791223526001, -1.4364370107650757, 0.273681640625, 0.298828125, -0.873291015625
57, 949473053, -5.38714599609375, -2.0126595497131348, 7.776373863220215, -0.407280296087265, -0.3249354958534241, -1.3957382440567017, 0.274169921875, 0.29931640625, -0.872802734375
58, 949489720, -5.389118671417236, -1.9663801193237305, 7.770933151245117, -0.33941951394081116, -0.4086250364780426, -1.4836925268173218, 0.273681640625, 0.29638671875, -0.872314453125
59, 949506387, -5.3724260330200195, -2.0191690921783447, 7.790769577026367, -0.38454902172088623, -0.40194007754325867, -1.5808027982711792, 0.273193359375, 0.29736328125, -0.869873046875
60, 949523054, -5.379274368286133, -2.0186893939971924, 7.780151844024658, -0.2830715775489807, -0.2811890244483948, -1.5054759979248047, 0.274169921875, 0.29736328125, -0.872314453125
61, 949539721, -5.382856845855713, -1.996666431427002, 7.791801929473877, -0.27143406867980957, -0.1301843523979187, -1.3456950187683105, 0.274658203125, 0.299560546875, -0.871337890625
62, 949556388, -5.388362884521484, -2.0142219066619873, 7.798914909362793, -0.1866525560617447, -0.07110085338354111, -1.3410937786102295, 0.273193359375, 0.29736328125, -0.871826171875
63, 949573055, -5.366996765136719, -2.006953716278076, 7.782370567321777, -0.13185417652130127, 0.027219895273447037, -1.288510799407959, 0.276123046875, 0.2978515625, -0.872314453125
64, 949589722, -5.406521797180176, -2.001400947570801, 7.779119491577148, -0.1759336292743683, -0.09092508256435394, -1.2586208581924438, 0.273193359375, 0.2978515625, -0.871337890625
65, 949606389, -5.411617279052734, -1.9822566509246826, 7.771778106689453, -0.09502311795949936, -0.10293744504451752, -1.2229423522949219, 0.275146484375, 0.29736328125, -0.87060546875
66, 949623056, -5.400070667266846, -1.9726934432983398, 7.810679912567139, -0.13537593185901642, -0.20269891619682312, -1.355411410331726, 0.274658203125, 0.29638671875, -0.871337890625
67, 949639723, -5.411969184875488, -1.9941303730010986, 7.783037185668945, -0.20850017666816711, -0.3049704134464264, -1.3838156461715698, 0.273681640625, 0.29833984375, -0.86962890625
68, 949656390, -5.4035468101501465, -1.9903337955474854, 7.799379825592041, -0.04866413399577141, -0.44476455450057983, -1.4420207738876343, 0.274658203125, 0.296875, -0.871826171875
69, 949673057, -5.392858982086182, -1.9957962036132812, 7.798468112945557, -0.03862395137548447, -0.48597538471221924, -1.4090955257415771, 0.275146484375, 0.29736328125, -0.872802734375
70, 949689724, -5.406569957733154, -1.9899157285690308, 7.7992777824401855, -0.20789828896522522, -0.3361794650554657, -1.332359790802002, 0.2763671875, 0.294189453125, -0.87060546875
71, 949706391, -5.40714693069458, -1.971253514289856, 7.79525899887085, -0.29531440138816833, -0.3478332459926605, -1.3673467636108398, 0.274169921875, 0.294921875, -0.871826171875
72, 949723058, -5.409285545349121, -1.9833823442459106, 7.797796726226807, -0.4379771947860718, -0.42387741804122925, -1.4189308881759644, 0.278076171875, 0.298828125, -0.87158203125
73, 949739725, -5.392083644866943, -1.9877128601074219, 7.784216403961182, -0.21864280104637146, -0.4669579565525055, -1.4899418354034424, 0.276123046875, 0.29638671875, -0.8701171875
74, 949756392, -5.416317462921143, -1.969698429107666, 7.806146621704102, -0.39501187205314636, -0.558395266532898, -1.5632840394973755, 0.275634765625, 0.2958984375, -0.872314453125
75, 949773059, -5.40209436416626, -1.9911824464797974, 7.79611349105835, -0.4025164246559143, -0.5176839232444763, -1.6195549964904785, 0.275146484375, 0.29541015625, -0.873779296875
76, 949789726, -5.406426429748535, -1.9988058805465698, 7.807796955108643, -0.35339123010635376, -0.6899678111076355, -1.5129295587539673, 0.275146484375, 0.2958984375, -0.873291015625
77, 949806393, -5.402506351470947, -1.978886365890503, 7.770168304443359, -0.4669707417488098, -0.7500678896903992, -1.4955254793167114, 0.274169921875, 0.29638671875, -0.87060546875
78, 949823060, -5.411569595336914, -1.9893949031829834, 7.787289142608643, -0.5715473294258118, -0.7305638194084167, -1.4553775787353516, 0.275634765625, 0.29541015625, -0.871826171875
79, 949839727, -5.402557849884033, -1.985116958618164, 7.8267998695373535, -0.5441673994064331, -0.670681357383728, -1.4773279428482056, 0.27685546875, 0.29638671875, -0.874267578125
80, 949856394, -5.402096748352051, -1.9799981117248535, 7.804811000823975, -0.7192687392234802, -0.5736604928970337, -1.5173732042312622, 0.276611328125, 0.294921875, -0.87060546875
81, 949873061, -5.404592990875244, -1.994433045387268, 7.8109917640686035, -0.7571754455566406, -0.4482734203338623, -1.4521759748458862, 0.276611328125, 0.29736328125, -0.873779296875
82, 949889728, -5.3728532791137695, -2.002380847930908, 7.801342487335205, -0.8476395606994629, -0.26023784279823303, -1.446810245513916, 0.275146484375, 0.2958984375, -0.872802734375
83, 949906395, -5.404433727264404, -1.974591612815857, 7.806988716125488, -0.9352221488952637, -0.12837086617946625, -1.4979075193405151, 0.276611328125, 0.2978515625, -0.876708984375
84, 949923062, -5.41351318359375, -1.9705214500427246, 7.77301025390625, -0.9393329620361328, -0.05574604868888855, -1.502709984779358, 0.276611328125, 0.298828125, -0.872802734375
85, 949939729, -5.409524917602539, -1.9966933727264404, 7.763545989990234, -0.9274742603302002, -0.2092045545578003, -1.5102273225784302, 0.276123046875, 0.29541015625, -0.872314453125
86, 949956396, -5.406062126159668, -1.9946706295013428, 7.778478145599365, -0.7511436343193054, -0.4488753378391266, -1.6525057554244995, 0.2763671875, 0.294921875, -0.872314453125
87, 949973063, -5.383228302001953, -1.9921090602874756, 7.800717353820801, -0.5928956270217896, -0.3828074336051941, -1.593494176864624, 0.276123046875, 0.29833984375, -0.873291015625
88, 949989730, -5.426759243011475, -1.9960628747940063, 7.782720565795898, -0.5176839232444763, -0.4130944609642029, -1.5471352338790894, 0.274169921875, 0.29736328125, -0.873779296875
89, 950006397, -5.420370101928711, -1.983489990234375, 7.790263652801514, -0.38768666982650757, -0.6718468070030212, -1.52816903591156, 0.275634765625, 0.29736328125, -0.871337890625
90, 950023064, -5.393660545349121, -2.011477470397949, 7.805742263793945, -0.28668293356895447, -0.7035679817199707, -1.6285449266433716, 0.275634765625, 0.29931640625, -0.872802734375
91, 950039731, -5.405167579650879, -1.9965121746063232, 7.789926528930664, -0.24344873428344727, -0.5314379334449768, -1.5842865705490112, 0.275634765625, 0.298828125, -0.875244140625
92, 950056398, -5.4009013175964355, -1.9890822172164917, 7.800239086151123, -0.21357150375843048, -0.43051108717918396, -1.4944113492965698, 0.279296875, 0.29736328125, -0.873046875
93, 950073065, -5.417963981628418, -1.9869341850280762, 7.777279853820801, -0.3541467785835266, -0.5043524503707886, -1.4712061882019043, 0.276611328125, 0.298828125, -0.87109375
94, 950089732, -5.423332691192627, -1.9965250492095947, 7.76961612701416, -0.2975683808326721, -0.6013733744621277, -1.4974850416183472, 0.276611328125, 0.298828125, -0.874755859375
95, 950106399, -5.4167914390563965, -1.9954440593719482, 7.7895379066467285, -0.4032335579395294, -0.6318141222000122, -1.5053608417510986, 0.274658203125, 0.296875, -0.874267578125
96, 950123066, -5.433518886566162, -1.974295973777771, 7.785270690917969, -0.37520045042037964, -0.7090747952461243, -1.5266194343566895, 0.27685546875, 0.296875, -0.875732421875
97, 950139733, -5.423213481903076, -1.9918956756591797, 7.776569366455078, -0.5090652108192444, -0.7556514143943787, -1.6754547357559204, 0.276123046875, 0.296875, -0.873291015625
98, 950156400, -5.411221504211426, -1.9839776754379272, 7.762428283691406, -0.5069905519485474, -0.8305301666259766, -1.8473798036575317, 0.275634765625, 0.300048828125, -0.872802734375
99, 950173067, -5.40415620803833, -1.9896483421325684, 7.788642883300781, -0.461579293012619, -0.7508491277694702, -1.9119879007339478, 0.276123046875, 0.2978515625, -0.873291015625
100, 950189734, -5.37910795211792, -2.0099971294403076, 7.7785749435424805, -0.423160195350647, -0.592549741268158, -1.8724931478500366, 0.27783203125, 0.296875, -0.874267578125
101, 950206401, -5.377326488494873, -1.9964196681976318, 7.792839527130127, -0.4447005093097687, -0.385663241147995, -1.6711902618408203, 0.276123046875, 0.29931640625, -0.871337890625
102, 950223068, -5.401356220245361, -1.9793208837509155, 7.791597366333008, -0.4612463116645813, -0.15078195929527283, -1.5981557369232178, 0.276123046875, 0.296875, -0.871826171875
103, 950239735, -5.397146701812744, -1.993401050567627, 7.803756237030029, -0.4201635420322418, -0.029608283191919327, -1.637919545173645, 0.274658203125, 0.296875, -0.871337890625
104, 950256402, -5.415873050689697, -2.007903814315796, 7.758561134338379, -0.5323728322982788, -7.29961961042136E-4, -1.6719330549240112, 0.27783203125, 0.29736328125, -0.874755859375
105, 950273069, -5.407804012298584, -1.990134358406067, 7.779764652252197, -0.46639445424079895, -0.13212309777736664, -1.601510763168335, 0.275634765625, 0.29736328125, -0.871337890625
106, 950289736, -5.439026355743408, -1.965804100036621, 7.769245147705078, -0.4226478934288025, -0.27816668152809143, -1.5709803104400635, 0.27783203125, 0.298828125, -0.873779296875
107, 950306403, -5.406877517700195, -1.9766771793365479, 7.777350902557373, -0.37235745787620544, -0.29522478580474854, -1.7376296520233154, 0.27685546875, 0.29638671875, -0.873291015625
108, 950323070, -5.4147114753723145, -1.9833745956420898, 7.779451847076416, -0.4357873201370239, -0.3101826012134552, -1.7196111679077148, 0.27880859375, 0.2958984375, -0.87353515625
109, 950339737, -5.4191460609436035, -1.986374855041504, 7.766293525695801, -0.4041299521923065, -0.4407176375389099, -1.832255482673645, 0.276123046875, 0.296875, -0.874267578125
110, 950356404, -5.42068338394165, -1.99311363697052, 7.7693352699279785, -0.3631112277507782, -0.5295298099517822, -1.853193998336792, 0.277587890625, 0.29736328125, -0.8720703125
111, 950373071, -5.406263828277588, -2.0079421997070312, 7.78306770324707, -0.4376569986343384, -0.4633081257343292, -1.7969996929168701, 0.276123046875, 0.29833984375, -0.874755859375
112, 950389738, -5.423671245574951, -1.995545506477356, 7.814769744873047, -0.3674270212650299, -0.31424224376678467, -1.726693034172058, 0.275146484375, 0.29931640625, -0.871826171875
113, 950406405, -5.404253005981445, -1.9965423345565796, 7.778722286224365, -0.436043381690979, -0.2469320148229599, -1.6420814990997314, 0.276611328125, 0.2978515625, -0.874755859375
114, 950423072, -5.425623416900635, -1.9855492115020752, 7.769430637359619, -0.37664759159088135, -0.2999759316444397, -1.6143302917480469, 0.277099609375, 0.29833984375, -0.874267578125
115, 950439739, -5.423856735229492, -1.9802768230438232, 7.780498504638672, -0.4407433569431305, -0.40908610820770264, -1.6617008447647095, 0.277099609375, 0.298828125, -0.872314453125
116, 950456406, -5.435771465301514, -1.982581377029419, 7.778984069824219, -0.45353683829307556, -0.3213753402233124, -1.7114789485931396, 0.275634765625, 0.298828125, -0.871337890625
117, 950473073, -5.421067714691162, -1.9877657890319824, 7.768223762512207, -0.4945044219493866, -0.44630128145217896, -1.7460304498672485, 0.28125, 0.2958984375, -0.873046875
118, 950489740, -5.410024642944336, -2.0020439624786377, 7.799552917480469, -0.4880242645740509, -0.6225037574768066, -1.6899768114089966, 0.276611328125, 0.299072265625, -0.87109375
119, 950506407, -5.407007217407227, -1.979278564453125, 7.78403377532959, -0.5666681528091431, -0.45629021525382996, -1.6797575950622559, 0.278564453125, 0.298828125, -0.87060546875
120, 950523074, -5.416687488555908, -2.0021414756774902, 7.7868242263793945, -0.6881620287895203, -0.2830459177494049, -1.7635366916656494, 0.276123046875, 0.296875, -0.87158203125
121, 950539741, -5.444884300231934, -1.9960726499557495, 7.780824184417725, -0.6910946369171143, -0.2985800504684448, -1.7557121515274048, 0.27880859375, 0.29833984375, -0.873291015625
122, 950556408, -5.421910285949707, -2.0009405612945557, 7.782840251922607, -0.6111958026885986, -0.4731433689594269, -1.7858070135116577, 0.276123046875, 0.2958984375, -0.871826171875
123, 950573075, -5.431880950927734, -1.9795103073120117, 7.762183666229248, -0.6191485524177551, -0.5766186714172363, -1.83744215965271, 0.277099609375, 0.298828125, -0.872314453125
124, 950589742, -5.423131465911865, -1.9932867288589478, 7.765970230102539, -0.48790907859802246, -0.8092331886291504, -1.80075204372406, 0.276611328125, 0.2978515625, -0.87109375
125, 950606409, -5.4203104972839355, -1.9984568357467651, 7.7755937576293945, -0.4957209825515747, -0.9618721604347229, -1.974816083908081, 0.278076171875, 0.298828125, -0.87060546875
126, 950623076, -5.411868572235107, -1.9885929822921753, 7.776119232177734, -0.5460243821144104, -0.9048455357551575, -1.9061741828918457, 0.275634765625, 0.29736328125, -0.873291015625
127, 950639743, -5.427720069885254, -1.987181544303894, 7.763935089111328, -0.5220381021499634, -0.9425986409187317, -1.8425649404525757, 0.277099609375, 0.29736328125, -0.872314453125
128, 950656410, -5.404734134674072, -1.9952342510223389, 7.791377067565918, -0.5747490525245667, -0.8952023386955261, -1.988992691040039, 0.277099609375, 0.2978515625, -0.87158203125
129, 950673077, -5.428272247314453, -1.9952589273452759, 7.777985572814941, -0.5742496252059937, -0.8361009955406189, -1.9194413423538208, 0.276611328125, 0.296875, -0.87109375
130, 950689744, -5.418962478637695, -2.0080714225769043, 7.810723781585693, -0.5728535652160645, -0.7737340331077576, -1.8119704723358154, 0.275634765625, 0.299560546875, -0.871337890625
131, 950706411, -5.425253391265869, -2.006495952606201, 7.777457237243652, -0.5787573456764221, -0.8913219571113586, -1.8661285638809204, 0.279296875, 0.2978515625, -0.8720703125
132, 950723078, -5.409125328063965, -1.9907673597335815, 7.799785614013672, -0.640048623085022, -0.902748167514801, -1.817944884300232, 0.275634765625, 0.296875, -0.871337890625
133, 950739745, -5.4341888427734375, -1.9927881956100464, 7.774477958679199, -0.6027436852455139, -0.8497909903526306, -1.8343559503555298, 0.275146484375, 0.29736328125, -0.871337890625
134, 950756412, -5.406178951263428, -2.007707357406616, 7.764766693115234, -0.6071747541427612, -0.8251515626907349, -1.932119607925415, 0.278076171875, 0.298828125, -0.87158203125
135, 950773079, -5.406928539276123, -2.016843795776367, 7.770209789276123, -0.5093469619750977, -0.7661526799201965, -1.9167393445968628, 0.278076171875, 0.301025390625, -0.87060546875
136, 950789746, -5.416723251342773, -2.001727342605591, 7.7966628074646, -0.4136194884777069, -0.8269060254096985, -1.8943666219711304, 0.276123046875, 0.29833984375, -0.87109375
137, 950806413, -5.418378829956055, -1.9945850372314453, 7.763145923614502, -0.45558589696884155, -0.9829898476600647, -1.9278935194015503, 0.276611328125, 0.29931640625, -0.873779296875
138, 950823080, -5.392960548400879, -2.0169718265533447, 7.754884719848633, -0.3173541724681854, -1.1261776685714722, -1.9595638513565063, 0.275146484375, 0.2958984375, -0.872314453125
139, 950839747, -5.4052228927612305, -2.0239901542663574, 7.780754089355469, -0.3599480986595154, -1.0000479221343994, -1.8839292526245117, 0.273681640625, 0.29833984375, -0.871826171875
140, 950856414, -5.415796756744385, -2.000735282897949, 7.81913948059082, -0.3918871581554413, -0.9159614443778992, -1.8739020824432373, 0.277099609375, 0.299072265625, -0.872314453125
141, 950873081, -5.409050464630127, -2.012019157409668, 7.776668548583984, -0.42120084166526794, -0.7851956486701965, -1.8422702550888062, 0.275146484375, 0.29931640625, -0.871826171875
142, 950889748, -5.403550148010254, -2.000617742538452, 7.7983927726745605, -0.36398205161094666, -0.7131855487823486, -1.779006838798523, 0.277099609375, 0.299072265625, -0.873779296875
143, 950906415, -5.406332969665527, -2.014676809310913, 7.7840352058410645, -0.44189587235450745, -0.7401942014694214, -1.8762327432632446, 0.277099609375, 0.2978515625, -0.872802734375
144, 950923082, -5.404427528381348, -2.015223264694214, 7.7634501457214355, -0.3455409109592438, -0.6890071630477905, -1.8033387660980225, 0.276611328125, 0.300537109375, -0.871826171875
145, 950939749, -5.4160380363464355, -1.9929224252700806, 7.79053258895874, -0.4223405420780182, -0.6781729459762573, -1.7450188398361206, 0.275146484375, 0.296875, -0.871337890625
146, 950956416, -5.4008026123046875, -2.000528335571289, 7.791333198547363, -0.3895050883293152, -0.7978483438491821, -1.7958983182907104, 0.274169921875, 0.299560546875, -0.871826171875
147, 950973083, -5.406413555145264, -2.016049385070801, 7.813897132873535, -0.4700314402580261, -0.543475866317749, -1.8664740324020386, 0.277587890625, 0.299072265625, -0.87109375
148, 950989750, -5.39537239074707, -2.0058956146240234, 7.784548759460449, -0.4691605865955353, -0.47628089785575867, -1.7512041330337524, 0.275634765625, 0.298828125, -0.874755859375
149, 951006417, -5.411877632141113, -2.0183496475219727, 7.78246545791626, -0.5006002187728882, -0.5629926919937134, -1.7707339525222778, 0.276611328125, 0.2978515625, -0.872802734375
150, 951023084, -5.410157680511475, -1.9914814233779907, 7.784612655639648, -0.45292216539382935, -0.5475866794586182, -1.7769193649291992, 0.275634765625, 0.299560546875, -0.870849609375
151, 951039751, -5.415544033050537, -1.9829062223434448, 7.809408664703369, -0.5950726270675659, -0.5480605363845825, -1.7931065559387207, 0.275146484375, 0.29833984375, -0.873779296875
152, 951056418, -5.415289402008057, -1.9860409498214722, 7.777395725250244, -0.6295217871665955, -0.5766699910163879, -2.022289276123047, 0.276123046875, 0.2978515625, -0.872802734375
153, 951073085, -5.383716106414795, -2.0113117694854736, 7.786925315856934, -0.6023723483085632, -0.5760167837142944, -1.9766860008239746, 0.275634765625, 0.29736328125, -0.871337890625
154, 951089752, -5.4031171798706055, -2.02437162399292, 7.777743816375732, -0.6908897757530212, -0.5701899528503418, -1.9443625211715698, 0.278076171875, 0.300048828125, -0.87158203125
155, 951106419, -5.411800861358643, -2.0247302055358887, 7.79620361328125, -0.582944929599762, -0.5086808800697327, -1.8543720245361328, 0.276123046875, 0.298828125, -0.873291015625
156, 951123086, -5.415544033050537, -2.0302302837371826, 7.78114128112793, -0.5428226590156555, -0.5339223146438599, -1.8055799007415771, 0.273681640625, 0.2998046875, -0.874267578125
157, 951139753, -5.4072747230529785, -1.9956687688827515, 7.797127723693848, -0.5456528663635254, -0.5779761672019958, -1.8377751111984253, 0.276611328125, 0.299560546875, -0.87060546875
158, 951156420, -5.406539440155029, -1.9972702264785767, 7.794595241546631, -0.5241894721984863, -0.4988841116428375, -1.9562978744506836, 0.276611328125, 0.300048828125, -0.872314453125
159, 951173087, -5.412948131561279, -1.9943987131118774, 7.770255088806152, -0.6335428953170776, -0.4947092831134796, -1.8813551664352417, 0.277099609375, 0.299072265625, -0.869140625
160, 951189754, -5.410333156585693, -2.0279762744903564, 7.793201446533203, -0.543424665927887, -0.6243991255760193, -1.907800316810608, 0.27783203125, 0.298828125, -0.872802734375
161, 951206421, -5.388474941253662, -2.03267765045166, 7.780092716217041, -0.5041859745979309, -0.5918326377868652, -1.8915233612060547, 0.278076171875, 0.299072265625, -0.872314453125
162, 951223088, -5.392286777496338, -2.0234203338623047, 7.8104448318481445, -0.4689044952392578, -0.498781681060791, -1.82038414478302, 0.274658203125, 0.300537109375, -0.872802734375
163, 951239755, -5.399175643920898, -2.0108182430267334, 7.786283016204834, -0.43537744879722595, -0.4878706634044647, -1.7290877103805542, 0.274658203125, 0.2978515625, -0.869140625
164, 951256422, -5.40856409072876, -1.9981309175491333, 7.778531074523926, -0.4540874660015106, -0.5515950322151184, -1.7565187215805054, 0.274658203125, 0.298828125, -0.873291015625
165, 951273089, -5.405599594116211, -2.0179409980773926, 7.788983345031738, -0.5027005076408386, -0.5079766511917114, -1.8734536170959473, 0.276611328125, 0.299560546875, -0.873779296875
166, 951289756, -5.411948204040527, -2.0238585472106934, 7.785317420959473, -0.5341784358024597, -0.6024491190910339, -1.783424973487854, 0.274658203125, 0.300048828125, -0.873291015625
167, 951306423, -5.403563022613525, -2.0096216201782227, 7.814361572265625, -0.44362473487854004, -0.6066367626190186, -1.7937853336334229, 0.276123046875, 0.301025390625, -0.87060546875
168, 951323090, -5.420444965362549, -2.0160446166992188, 7.782419681549072, -0.4811473488807678, -0.5854038596153259, -1.8410792350769043, 0.274169921875, 0.298828125, -0.8701171875
169, 951339757, -5.408841133117676, -2.020707368850708, 7.796386241912842, -0.4939664304256439, -0.571188747882843, -1.7498724460601807, 0.277099609375, 0.2978515625, -0.87158203125
170, 951356424, -5.394160747528076, -2.0266757011413574, 7.768064022064209, -0.5059148073196411, -0.6790438294410706, -1.8119704723358154, 0.275634765625, 0.301025390625, -0.871826171875
171, 951373091, -5.391533851623535, -2.0319724082946777, 7.784632205963135, -0.5483806729316711, -0.6481805443763733, -1.7797751426696777, 0.276611328125, 0.302001953125, -0.871826171875
172, 951389758, -5.408463478088379, -2.0177440643310547, 7.7538557052612305, -0.5181064605712891, -0.5717522501945496, -1.8643611669540405, 0.277099609375, 0.301513671875, -0.873779296875
173, 951406425, -5.413088321685791, -2.0135891437530518, 7.75705623626709, -0.4874480366706848, -0.7263504266738892, -1.8207041025161743, 0.277587890625, 0.299072265625, -0.87109375
174, 951423092, -5.386479377746582, -2.0173985958099365, 7.769626140594482, -0.5256878733634949, -0.8775295615196228, -1.8404134511947632, 0.275634765625, 0.29833984375, -0.87109375
175, 951439759, -5.394023418426514, -2.0358643531799316, 7.795964241027832, -0.5582159757614136, -0.6372951865196228, -1.776868224143982, 0.276611328125, 0.300537109375, -0.873779296875
176, 951456426, -5.381179332733154, -2.027254819869995, 7.7826828956604, -0.4533959627151489, -0.5136755108833313, -1.828131914138794, 0.273681640625, 0.29931640625, -0.872802734375
177, 951473093, -5.402717113494873, -2.018617630004883, 7.7615790367126465, -0.5347163081169128, -0.4800716042518616, -1.8347015380859375, 0.275146484375, 0.301513671875, -0.872802734375
178, 951489760, -5.400723934173584, -2.0061841011047363, 7.782972812652588, -0.5760423541069031, -0.3620994985103607, -1.7682363986968994, 0.274169921875, 0.301513671875, -0.873779296875
179, 951506427, -5.42820930480957, -2.0184755325317383, 7.780793190002441, -0.6617425680160522, -0.3787350058555603, -1.964967966079712, 0.274658203125, 0.299560546875, -0.871826171875
180, 951523094, -5.40709114074707, -2.023350954055786, 7.786102771759033, -0.6191485524177551, -0.5969679355621338, -1.7720146179199219, 0.275146484375, 0.300048828125, -0.872314453125
181, 951539761, -5.395881175994873, -2.0202903747558594, 7.774389266967773, -0.550852358341217, -0.6574395895004272, -1.9517005681991577, 0.275634765625, 0.300048828125, -0.870849609375
182, 951556428, -5.416232585906982, -2.0246694087982178, 7.78285026550293, -0.5519281029701233, -0.7083064317703247, -1.9432483911514282, 0.276123046875, 0.301513671875, -0.872314453125
183, 951573095, -5.3980817794799805, -2.028181791305542, 7.8090643882751465, -0.7365443706512451, -0.5551040768623352, -1.9347450733184814, 0.275146484375, 0.300048828125, -0.870361328125
184, 951589762, -5.417303562164307, -2.02211594581604, 7.782156467437744, -0.7508619427680969, -0.5579854846000671, -1.8924713134765625, 0.277587890625, 0.301025390625, -0.871826171875
185, 951606429, -5.394547462463379, -2.0188000202178955, 7.791911602020264, -0.7340856194496155, -0.5342041254043579, -2.069685459136963, 0.276123046875, 0.300537109375, -0.871826171875
186, 951623096, -5.4176225662231445, -2.0353305339813232, 7.776060581207275, -0.8151882886886597, -0.45690497756004333, -2.064934492111206, 0.274658203125, 0.29931640625, -0.870849609375
187, 951639763, -5.40697717666626, -2.0519561767578125, 7.787082672119141, -0.7631559371948242, -0.4978084862232208, -1.9846513271331787, 0.276123046875, 0.299560546875, -0.871826171875
188, 951656430, -5.412513256072998, -2.0355374813079834, 7.767761707305908, -0.7307815551757812, -0.47451362013816833, -1.8913824558258057, 0.275634765625, 0.302490234375, -0.872314453125
189, 951673097, -5.3875226974487305, -2.0406970977783203, 7.778496742248535, -0.7884357571601868, -0.5110245943069458, -1.9051752090454102, 0.275634765625, 0.301025390625, -0.872314453125
190, 951689764, -5.405299663543701, -2.0293171405792236, 7.766408443450928, -0.7938656210899353, -0.43190693855285645, -1.972267508506775, 0.276123046875, 0.301025390625, -0.87060546875
191, 951706431, -5.411267280578613, -2.0420076847076416, 7.76137113571167, -0.7390288710594177, -0.49700164794921875, -2.0551247596740723, 0.273681640625, 0.29931640625, -0.870849609375
192, 951723098, -5.417057514190674, -2.0432779788970947, 7.790069103240967, -0.7761544585227966, -0.5519536733627319, -2.0772156715393066, 0.275146484375, 0.302001953125, -0.872314453125
193, 951739765, -5.383102893829346, -2.053705930709839, 7.7675323486328125, -0.7857208251953125, -0.53138667345047, -2.0358641147613525, 0.275634765625, 0.302490234375, -0.871826171875
194, 951756432, -5.4206013679504395, -2.0568251609802246, 7.77653694152832, -0.8311961889266968, -0.5315659642219543, -1.8815858364105225, 0.276611328125, 0.300537109375, -0.86962890625
195, 951773099, -5.416579246520996, -2.0380473136901855, 7.800132751464844, -0.8496116399765015, -0.4005441665649414, -1.8418476581573486, 0.276123046875, 0.301513671875, -0.873779296875
196, 951789766, -5.411304950714111, -2.0636940002441406, 7.7822370529174805, -0.8401733636856079, -0.3144471347332001, -1.768416166305542, 0.275634765625, 0.301513671875, -0.871826171875
197, 951806433, -5.412925720214844, -2.034055471420288, 7.785353660583496, -0.9262192249298096, -0.15750528872013092, -1.7220826148986816, 0.275634765625, 0.301025390625, -0.873779296875
198, 951823100, -5.424007892608643, -2.051856279373169, 7.782742977142334, -0.9803004860877991, -0.09433156996965408, -1.8238033056259155, 0.27392578125, 0.30419921875, -0.869384765625
199, 951839767, -5.4117655754089355, -2.0467069149017334, 7.784762859344482, -1.0046708583831787, 0.064614437520504, -1.8359822034835815, 0.276123046875, 0.301025390625, -0.871337890625
200, 951856434, -5.4200825691223145, -2.0579984188079834, 7.760536193847656, -1.1546589136123657, 0.08721765130758286, -1.852105736732483, 0.275634765625, 0.303955078125, -0.871826171875
201, 951873101, -5.420388221740723, -2.0447022914886475, 7.769872188568115, -1.027082085609436, -0.18760022521018982, -1.828721046447754, 0.2744140625, 0.303955078125, -0.868896484375
202, 951889768, -5.389362335205078, -2.063659191131592, 7.762691497802734, -0.8413771390914917, -0.31366589665412903, -1.8644764423370361, 0.276611328125, 0.3046875, -0.870361328125
203, 951906435, -5.386931896209717, -2.0535943508148193, 7.762223720550537, -0.809348464012146, -0.14847682416439056, -1.7714511156082153, 0.276123046875, 0.3037109375, -0.869140625
204, 951923102, -5.401491165161133, -2.0485317707061768, 7.789454460144043, -0.7478587627410889, -0.031287781894207, -1.734032392501831, 0.276123046875, 0.302978515625, -0.8701171875
205, 951939769, -5.413101673126221, -2.0552163124084473, 7.775247573852539, -0.7136338353157043, 0.06260383874177933, -1.8234319686889648, 0.277587890625, 0.303466796875, -0.871826171875
206, 951956436, -5.409926414489746, -2.0604567527770996, 7.77005672454834, -0.7919830679893494, 0.26425257325172424, -1.7082901000976562, 0.277099609375, 0.3046875, -0.870361328125
207, 951973103, -5.420913219451904, -2.0590827465057373, 7.778472423553467, -0.7758598327636719, 0.3281306326389313, -1.727128028869629, 0.277587890625, 0.302490234375, -0.8701171875
208, 951989770, -5.397918224334717, -2.0602171421051025, 7.75304651260376, -0.6374232769012451, 0.17011316120624542, -1.664249300956726, 0.278076171875, 0.302978515625, -0.8701171875
209, 952006437, -5.428274154663086, -2.06459641456604, 7.739330291748047, -0.6771997213363647, 0.25927090644836426, -1.6996712684631348, 0.28076171875, 0.30322265625, -0.8701171875
210, 952023104, -5.439169406890869, -2.0487160682678223, 7.754251956939697, -0.5784884095191956, 0.030972156673669815, -1.6691924333572388, 0.28076171875, 0.30322265625, -0.87109375
211, 952039771, -5.443264961242676, -2.068390369415283, 7.755765438079834, -0.4997933804988861, -0.2242007553577423, -1.8646557331085205, 0.278564453125, 0.30419921875, -0.87109375
212, 952056438, -5.433879852294922, -2.057342529296875, 7.757172584533691, -0.4662407338619232, -0.29093459248542786, -1.843998908996582, 0.279052734375, 0.3037109375, -0.869140625
213, 952073105, -5.430622577667236, -2.0663976669311523, 7.748640537261963, -0.3838575482368469, -0.34770524501800537, -1.6919366121292114, 0.278564453125, 0.302001953125, -0.87060546875
214, 952089772, -5.398803234100342, -2.0706377029418945, 7.776829719543457, -0.38472840189933777, -0.1353631168603897, -1.685495138168335, 0.276611328125, 0.30517578125, -0.869873046875
215, 952106439, -5.437863349914551, -2.0403666496276855, 7.768439769744873, -0.4965534210205078, 0.09823110699653625, -1.5377863645553589, 0.277587890625, 0.30419921875, -0.86962890625
216, 952123106, -5.446836471557617, -2.0404677391052246, 7.762382507324219, -0.5676158666610718, 0.04367605969309807, -1.6899645328521729, 0.278564453125, 0.302490234375, -0.8671875
217, 952139773, -5.442944049835205, -2.0741355419158936, 7.743389129638672, -0.5251243710517883, -0.2176567018032074, -1.7947970628738403, 0.277099609375, 0.3046875, -0.870361328125
218, 952156440, -5.422969341278076, -2.070920467376709, 7.744136810302734, -0.5214617848396301, -0.25110694766044617, -1.7136049270629883, 0.279052734375, 0.302978515625, -0.8701171875
219, 952173107, -5.423839569091797, -2.066229820251465, 7.744327068328857, -0.4516415596008301, -0.3937952518463135, -1.6220779418945312, 0.279541015625, 0.302978515625, -0.87060546875
220, 952189774, -5.449906826019287, -2.046243906021118, 7.748486042022705, -0.4628598988056183, -0.45942777395248413, -1.7607065439224243, 0.277587890625, 0.30419921875, -0.86962890625
221, 952206441, -5.452877521514893, -2.037525177001953, 7.741550922393799, -0.4430740177631378, -0.4800971448421478, -1.8619790077209473, 0.278564453125, 0.30322265625, -0.869140625
222, 952223108, -5.439472198486328, -2.068268299102783, 7.7359299659729, -0.39538317918777466, -0.6601160764694214, -1.8212549686431885, 0.279541015625, 0.30517578125, -0.86865234375
223, 952239775, -5.442902088165283, -2.043517827987671, 7.750715255737305, -0.31124547123908997, -0.9018741846084595, -1.7924917936325073, 0.279541015625, 0.3037109375, -0.8681640625
224, 952256442, -5.4081621170043945, -2.057790994644165, 7.771505832672119, -0.3348475992679596, -0.8125243782997131, -1.7196749448776245, 0.2802734375, 0.302978515625, -0.8701171875
225, 952273109, -5.424549102783203, -2.0516109466552734, 7.754139423370361, -0.3931293189525604, -0.7195504307746887, -1.7946048974990845, 0.278076171875, 0.3046875, -0.8681640625
226, 952289776, -5.424116611480713, -2.0580203533172607, 7.748202800750732, -0.466624915599823, -0.47954657673835754, -1.8114069700241089, 0.279541015625, 0.30322265625, -0.87060546875
227, 952306443, -5.434246063232422, -2.063541889190674, 7.761463642120361, -0.5244839787483215, -0.3831915259361267, -1.8067708015441895, 0.277099609375, 0.302978515625, -0.869140625
228, 952323110, -5.445964813232422, -2.055152416229248, 7.738719463348389, -0.4247994124889374, -0.5299011468887329, -1.8305268287658691, 0.280029296875, 0.30615234375, -0.86865234375
229, 952339777, -5.446640491485596, -2.073382616043091, 7.744757652282715, -0.2877714931964874, -0.7805085778236389, -1.7628451585769653, 0.278564453125, 0.3056640625, -0.86962890625
230, 952356444, -5.423053741455078, -2.079155206680298, 7.752099990844727, -0.26013535261154175, -0.9343255758285522, -1.747336745262146, 0.280029296875, 0.30419921875, -0.87158203125
231, 952373111, -5.41660737991333, -2.0652928352355957, 7.776832103729248, -0.2902943193912506, -0.7752067446708679, -1.6849185228347778, 0.279052734375, 0.30322265625, -0.87060546875
232, 952389778, -5.439422607421875, -2.054373025894165, 7.754415512084961, -0.38836535811424255, -0.6100560426712036, -1.695317268371582, 0.278564453125, 0.30419921875, -0.86962890625
233, 952406445, -5.437051296234131, -2.045104742050171, 7.78396463394165, -0.40000632405281067, -0.5536824464797974, -1.7032572031021118, 0.276123046875, 0.3037109375, -0.86865234375
234, 952423112, -5.460402965545654, -2.0501089096069336, 7.743801593780518, -0.413196861743927, -0.7191789746284485, -1.806463599205017, 0.278076171875, 0.303466796875, -0.869140625
235, 952439779, -5.4285688400268555, -2.0759220123291016, 7.723320484161377, -0.22986115515232086, -0.9301891922950745, -1.762909173965454, 0.277587890625, 0.30517578125, -0.869140625
236, 952456446, -5.4024553298950195, -2.0779736042022705, 7.764466285705566, -0.21197070181369781, -0.9914547801017761, -1.6499571800231934, 0.279052734375, 0.3037109375, -0.87109375
237, 952473113, -5.414811134338379, -2.0788309574127197, 7.761314392089844, -0.25076112151145935, -0.8310680985450745, -1.679603934288025, 0.278564453125, 0.3056640625, -0.87060546875
238, 952489780, -5.429742336273193, -2.057757616043091, 7.758185863494873, -0.33949631452560425, -0.6994314789772034, -1.6551309823989868, 0.277587890625, 0.303466796875, -0.86767578125
239, 952506447, -5.435871601104736, -2.053339958190918, 7.747830867767334, -0.37111520767211914, -0.6926699280738831, -1.6251513957977295, 0.280517578125, 0.3046875, -0.8701171875
240, 952523114, -5.440359592437744, -2.06532883644104, 7.753616809844971, -0.33124902844429016, -0.76272052526474, -1.671830415725708, 0.277099609375, 0.3056640625, -0.8701171875
241, 952539781, -5.43263053894043, -2.0685808658599854, 7.755838394165039, -0.1787126064300537, -0.9007474184036255, -1.645769476890564, 0.28125, 0.302734375, -0.86865234375
242, 952556448, -5.4322123527526855, -2.0657918453216553, 7.754170894622803, -0.3459635078907013, -0.890220582485199, -1.603790283203125, 0.278076171875, 0.303466796875, -0.8681640625
243, 952573115, -5.419578552246094, -2.065155267715454, 7.760998249053955, -0.3762761950492859, -0.7625669836997986, -1.6038544178009033, 0.278564453125, 0.303466796875, -0.87109375
244, 952589782, -5.4354248046875, -2.063462734222412, 7.748908042907715, -0.4122619926929474, -0.7238019704818726, -1.6928200721740723, 0.275146484375, 0.30419921875, -0.872314453125
245, 952606449, -5.435197353363037, -2.048490285873413, 7.75667142868042, -0.41712841391563416, -0.7377097606658936, -1.732430100440979, 0.278564453125, 0.30322265625, -0.869140625
246, 952623116, -5.43594217300415, -2.0725889205932617, 7.759915828704834, -0.38867267966270447, -0.8620080947875977, -1.7019380331039429, 0.278076171875, 0.30517578125, -0.871337890625
247, 952639783, -5.432207107543945, -2.052485227584839, 7.762176513671875, -0.3993147909641266, -0.8925897479057312, -1.6937549114227295, 0.278564453125, 0.30517578125, -0.869140625
248, 952656450, -5.4280900955200195, -2.060333728790283, 7.775125026702881, -0.3925018012523651, -0.9283322095870972, -1.7120552062988281, 0.276611328125, 0.3037109375, -0.870361328125
249, 952673117, -5.433555603027344, -2.0571393966674805, 7.769248962402344, -0.35757890343666077, -0.9728215336799622, -1.7507431507110596, 0.27490234375, 0.30419921875, -0.869384765625
250, 952689784, -5.424655914306641, -2.052846670150757, 7.730607986450195, -0.3314027190208435, -0.9566342830657959, -1.7994457483291626, 0.277099609375, 0.3056640625, -0.8701171875
251, 952706451, -5.409214973449707, -2.0575313568115234, 7.779535293579102, -0.35071462392807007, -0.9154233932495117, -1.7867159843444824, 0.275146484375, 0.3046875, -0.870849609375
252, 952723118, -5.414165496826172, -2.072777271270752, 7.753476142883301, -0.3640589118003845, -0.8117944598197937, -1.7996891736984253, 0.277099609375, 0.303466796875, -0.8701171875
253, 952739785, -5.419121265411377, -2.0632526874542236, 7.735105991363525, -0.3780049979686737, -0.7528852820396423, -1.7704777717590332, 0.277587890625, 0.3056640625, -0.870361328125
254, 952756452, -5.408859729766846, -2.059377908706665, 7.758929252624512, -0.4371703565120697, -0.7695591449737549, -1.7229021787643433, 0.277587890625, 0.302490234375, -0.86962890625
255, 952773119, -5.412219047546387, -2.0576441287994385, 7.755370140075684, -0.4054746627807617, -0.7316779494285583, -1.7569926977157593, 0.278564453125, 0.30322265625, -0.8681640625
256, 952789786, -5.4263787269592285, -2.0601069927215576, 7.762869358062744, -0.3978548049926758, -0.7546141147613525, -1.7557886838912964, 0.276611328125, 0.30419921875, -0.8701171875
257, 952806453, -5.426178932189941, -2.0599241256713867, 7.781467437744141, -0.27737271785736084, -0.7304100394248962, -1.802160620689392, 0.279541015625, 0.3037109375, -0.87109375
258, 952823120, -5.428111553192139, -2.0616235733032227, 7.779502868652344, -0.2220620959997177, -0.7874879837036133, -1.8057464361190796, 0.276611328125, 0.303466796875, -0.86865234375
259, 952839787, -5.418245315551758, -2.0592613220214844, 7.751627445220947, -0.34419623017311096, -0.8021385073661804, -1.6754802465438843, 0.275634765625, 0.30419921875, -0.870849609375
260, 952856454, -5.431227684020996, -2.0627245903015137, 7.758209228515625, -0.3087482452392578, -0.8129469752311707, -1.6767735481262207, 0.278564453125, 0.30419921875, -0.869140625
261, 952873121, -5.422988414764404, -2.064939260482788, 7.757855415344238, -0.26748621463775635, -0.8922695517539978, -1.6267393827438354, 0.276123046875, 0.30517578125, -0.869140625
262, 952889788, -5.432068347930908, -2.067094087600708, 7.751696586608887, -0.1852310299873352, -0.8274181485176086, -1.7053829431533813, 0.276123046875, 0.302978515625, -0.871337890625
263, 952906455, -5.4162373542785645, -2.0564980506896973, 7.770595073699951, -0.21394284069538116, -0.8689747452735901, -1.7540597915649414, 0.274658203125, 0.30419921875, -0.871826171875
264, 952923122, -5.431987285614014, -2.056556224822998, 7.756025791168213, -0.23211508989334106, -0.9870366454124451, -1.8585599660873413, 0.276123046875, 0.302490234375, -0.872314453125
265, 952939789, -5.41055965423584, -2.0744378566741943, 7.7555832862854, -0.18072322010993958, -0.997153639793396, -1.910963535308838, 0.277099609375, 0.302001953125, -0.869140625
266, 952956456, -5.40163516998291, -2.0730419158935547, 7.777131080627441, -0.187779501080513, -1.0352524518966675, -1.7822468280792236, 0.274658203125, 0.302978515625, -0.870849609375
267, 952973123, -5.418370723724365, -2.073038339614868, 7.749454021453857, -0.061111897230148315, -1.1077748537063599, -1.7732822895050049, 0.277587890625, 0.302978515625, -0.871337890625
268, 952989790, -5.4085774421691895, -2.0586860179901123, 7.743384838104248, -0.018082566559314728, -1.2087786197662354, -1.7516523599624634, 0.275146484375, 0.302001953125, -0.871337890625
269, 953006457, -5.404049873352051, -2.057563304901123, 7.773947715759277, -0.014919396489858627, -1.0228047370910645, -1.7567365169525146, 0.274658203125, 0.303466796875, -0.869873046875
270, 953023124, -5.420401573181152, -2.0530152320861816, 7.761293888092041, -0.1214810237288475, -0.8964956402778625, -1.68728768825531, 0.278564453125, 0.30517578125, -0.87060546875
271, 953039791, -5.407384395599365, -2.049449920654297, 7.781770706176758, -0.0875057801604271, -0.8697175979614258, -1.7945280075073242, 0.276611328125, 0.3046875, -0.8701171875
272, 953056458, -5.405820369720459, -2.060000419616699, 7.786535263061523, -0.19396497309207916, -0.7609148025512695, -1.6837531328201294, 0.274169921875, 0.302001953125, -0.870361328125
273, 953073125, -5.414496421813965, -2.042905807495117, 7.7618794441223145, -0.3858296573162079, -0.6722308397293091, -1.7058441638946533, 0.275146484375, 0.302001953125, -0.86865234375
274, 953089792, -5.412542819976807, -2.0330111980438232, 7.778757095336914, -0.38928744196891785, -0.6832443475723267, -1.8087559938430786, 0.278076171875, 0.302978515625, -0.86962890625
275, 953106459, -5.407784938812256, -2.0631346702575684, 7.7643513679504395, -0.34779486060142517, -0.8603689670562744, -1.8551404476165771, 0.278564453125, 0.30615234375, -0.86767578125
276, 953123126, -5.407820224761963, -2.067723512649536, 7.7754645347595215, -0.28940245509147644, -0.9206908345222473, -1.7261945009231567, 0.277099609375, 0.303466796875, -0.8701171875
277, 953139793, -5.40539026260376, -2.054945230484009, 7.774208068847656, -0.2673581540584564, -0.9791605472564697, -1.6957911252975464, 0.276611328125, 0.302001953125, -0.871826171875
278, 953156460, -5.398044109344482, -2.0671048164367676, 7.769111156463623, -0.26177453994750977, -0.9551103115081787, -1.6592161655426025, 0.275634765625, 0.302978515625, -0.871826171875
279, 953173127, -5.395536422729492, -2.046116590499878, 7.78511381149292, -0.2056443989276886, -0.8303253650665283, -1.601511001586914, 0.275634765625, 0.303955078125, -0.870849609375
280, 953189794, -5.4135894775390625, -2.0290110111236572, 7.801713943481445, -0.2852998673915863, -0.8323615193367004, -1.6968157291412354, 0.2744140625, 0.30517578125, -0.873291015625
281, 953206461, -5.399334907531738, -2.0450782775878906, 7.776896953582764, -0.2825080454349518, -0.7293215394020081, -1.7167167663574219, 0.276123046875, 0.303466796875, -0.871826171875
282, 953223128, -5.407576084136963, -2.047248601913452, 7.772961616516113, -0.2849540710449219, -0.8226926922798157, -1.6042640209197998, 0.276123046875, 0.302978515625, -0.86962890625
283, 953239795, -5.386429309844971, -2.062282085418701, 7.756402492523193, -0.2562422454357147, -0.7507849931716919, -1.6803723573684692, 0.27490234375, 0.30419921875, -0.870361328125
284, 953256462, -5.4085259437561035, -2.0500473976135254, 7.76438570022583, -0.3193391263484955, -0.8494707345962524, -1.750166893005371, 0.276123046875, 0.3046875, -0.872314453125
285, 953273129, -5.40414571762085, -2.0516273975372314, 7.792205810546875, -0.20523452758789062, -0.7345977425575256, -1.6822930574417114, 0.27392578125, 0.302490234375, -0.871826171875
286, 953289796, -5.400520324707031, -2.054633378982544, 7.780799865722656, -0.35052263736724854, -0.5816259980201721, -1.6769275665283203, 0.276611328125, 0.301025390625, -0.872802734375
287, 953306463, -5.393042087554932, -2.0505170822143555, 7.769397735595703, -0.37540531158447266, -0.6469767093658447, -1.7234656810760498, 0.275390625, 0.3046875, -0.869384765625
288, 953323130, -5.38357400894165, -2.0645604133605957, 7.764427661895752, -0.2759768068790436, -0.6606155037879944, -1.6609193086624146, 0.276611328125, 0.301513671875, -0.870849609375
289, 953339797, -5.3974809646606445, -2.04613995552063, 7.7903265953063965, -0.2928300201892853, -0.53682941198349, -1.677017092704773, 0.274658203125, 0.302978515625, -0.870849609375
290, 953356464, -5.388136863708496, -2.0411088466644287, 7.795944690704346, -0.40754929184913635, -0.49628448486328125, -1.73743736743927, 0.277099609375, 0.300048828125, -0.8701171875
291, 953373131, -5.42028284072876, -2.076458215713501, 7.77289342880249, -0.37649381160736084, -0.46894291043281555, -1.7795830965042114, 0.275146484375, 0.303466796875, -0.869873046875
292, 953389798, -5.392969608306885, -2.055912494659424, 7.776642322540283, -0.36508339643478394, -0.5889512300491333, -1.6912705898284912, 0.27294921875, 0.302490234375, -0.869384765625
293, 953406465, -5.406325817108154, -2.0402724742889404, 7.787178993225098, -0.30288296937942505, -0.4809296429157257, -1.5698665380477905, 0.274658203125, 0.303466796875, -0.869873046875
294, 953423132, -5.410398006439209, -2.043994903564453, 7.7674946784973145, -0.3615104854106903, -0.516416072845459, -1.5795481204986572, 0.275634765625, 0.302490234375, -0.870361328125
295, 953439799, -5.416192054748535, -2.049002170562744, 7.780649662017822, -0.3612543046474457, -0.5638763308525085, -1.5514250993728638, 0.275146484375, 0.302490234375, -0.870849609375
296, 953456466, -5.4033050537109375, -2.0401289463043213, 7.7846550941467285, -0.33573126792907715, -0.557793378829956, -1.662238597869873, 0.275634765625, 0.301513671875, -0.870849609375
297, 953473133, -5.388266086578369, -2.057206153869629, 7.764928817749023, -0.46037545800209045, -0.4165777266025543, -1.6487150192260742, 0.275634765625, 0.302490234375, -0.871826171875
298, 953489800, -5.399755477905273, -2.0478575229644775, 7.7880778312683105, -0.5396979451179504, -0.32216933369636536, -1.628263235092163, 0.275634765625, 0.303955078125, -0.871826171875
299, 953506467, -5.387016773223877, -2.0713465213775635, 7.773270606994629, -0.31470322608947754, -0.415770947933197, -1.5720946788787842, 0.276123046875, 0.302978515625, -0.870361328125
300, 953523134, -5.408087253570557, -2.0538487434387207, 7.7621660232543945, -0.39110589027404785, -0.3661975562572479, -1.5011602640151978, 0.27392578125, 0.302978515625, -0.869873046875
301, 953539801, -5.40817403793335, -2.0396792888641357, 7.746527194976807, -0.35054823756217957, -0.41659054160118103, -1.4887253046035767, 0.274658203125, 0.303466796875, -0.869873046875
302, 953556468, -5.4072418212890625, -2.0320475101470947, 7.761308670043945, -0.33524462580680847, -0.491546094417572, -1.5589553117752075, 0.277587890625, 0.303466796875, -0.873779296875
303, 953573135, -5.396626949310303, -2.057450294494629, 7.772089004516602, -0.3251020312309265, -0.43763139843940735, -1.563412070274353, 0.277587890625, 0.302978515625, -0.871826171875
304, 953589802, -5.414502143859863, -2.0595686435699463, 7.772627353668213, -0.3499975800514221, -0.6109525561332703, -1.5848242044448853, 0.275390625, 0.3056640625, -0.869873046875
305, 953606469, -5.388233184814453, -2.040860652923584, 7.798976421356201, -0.36595427989959717, -0.5414525270462036, -1.5886791944503784, 0.274658203125, 0.301513671875, -0.872802734375
306, 953623136, -5.412827968597412, -2.0650887489318848, 7.762533187866211, -0.28025415539741516, -0.6237717866897583, -1.5911506414413452, 0.275146484375, 0.302978515625, -0.86865234375
307, 953639803, -5.401090145111084, -2.059178113937378, 7.756767749786377, -0.2987721264362335, -0.5995292663574219, -1.5833513736724854, 0.276123046875, 0.302490234375, -0.870361328125
308, 953656470, -5.392152786254883, -2.037074565887451, 7.764649391174316, -0.11479610949754715, -0.5469719767570496, -1.47845458984375, 0.275146484375, 0.303955078125, -0.869140625
309, 953673137, -5.41978120803833, -2.0421783924102783, 7.802085876464844, -0.11222203820943832, -0.6140003800392151, -1.6265344619750977, 0.275634765625, 0.302490234375, -0.870361328125
310, 953689804, -5.413783550262451, -2.0459115505218506, 7.786064147949219, -0.24753393232822418, -0.6314170360565186, -1.7352474927902222, 0.276123046875, 0.303955078125, -0.873291015625
311, 953706471, -5.41016960144043, -2.0572826862335205, 7.753842830657959, -0.2589828073978424, -0.5914613008499146, -1.635460615158081, 0.275634765625, 0.301025390625, -0.871826171875
312, 953723138, -5.400740623474121, -2.0521798133850098, 7.768221855163574, -0.28801482915878296, -0.6294705867767334, -1.6030349731445312, 0.275146484375, 0.299560546875, -0.872802734375
313, 953739805, -5.397953987121582, -2.049090623855591, 7.7978129386901855, -0.21281591057777405, -0.6498581767082214, -1.516412615776062, 0.275146484375, 0.302978515625, -0.873291015625
314, 953756472, -5.4072723388671875, -2.040656805038452, 7.758839130401611, -0.3046758472919464, -0.511101484298706, -1.5513100624084473, 0.275634765625, 0.302978515625, -0.871826171875
315, 953773139, -5.415890216827393, -2.026923418045044, 7.773059844970703, -0.31869885325431824, -0.5170563459396362, -1.5373895168304443, 0.276123046875, 0.3037109375, -0.870849609375
316, 953789806, -5.4142255783081055, -2.0408222675323486, 7.769068717956543, -0.2186044156551361, -0.4605035185813904, -1.59779691696167, 0.275146484375, 0.302978515625, -0.870849609375
317, 953806473, -5.411623954772949, -2.053326368331909, 7.7506327629089355, -0.38950514793395996, -0.4625782370567322, -1.5905358791351318, 0.277099609375, 0.302978515625, -0.8701171875
318, 953823140, -5.397662162780762, -2.053219795227051, 7.7756123542785645, -0.3178151547908783, -0.6667113900184631, -1.7007728815078735, 0.2744140625, 0.303955078125, -0.872314453125
319, 953839807, -5.4207916259765625, -2.0144786834716797, 7.763883590698242, -0.21631206572055817, -0.8319389224052429, -1.5166689157485962, 0.276123046875, 0.303466796875, -0.872802734375
320, 953856474, -5.402902603149414, -2.0389089584350586, 7.782296180725098, -0.18699827790260315, -0.7441641092300415, -1.7583117485046387, 0.274658203125, 0.301513671875, -0.870361328125
321, 953873141, -5.400613784790039, -2.0599958896636963, 7.7705183029174805, -0.1635114699602127, -0.7965292930603027, -1.609963059425354, 0.276123046875, 0.302001953125, -0.871826171875
322, 953889808, -5.399091720581055, -2.036745548248291, 7.771308898925781, -0.20780864357948303, -0.6845762729644775, -1.5791254043579102, 0.277099609375, 0.300537109375, -0.871337890625
323, 953906475, -5.429537296295166, -2.0362308025360107, 7.760532855987549, -0.22014114260673523, -0.6869837641716003, -1.6882354021072388, 0.276123046875, 0.302001953125, -0.871826171875
324, 953923142, -5.401570796966553, -2.0334954261779785, 7.776759624481201, -0.135670468211174, -0.7712239623069763, -1.654209017753601, 0.277587890625, 0.299560546875, -0.87060546875
325, 953939809, -5.4082512855529785, -2.042842388153076, 7.787498950958252, -0.21873244643211365, -0.6523170471191406, -1.7091352939605713, 0.277587890625, 0.302001953125, -0.86865234375
326, 953956476, -5.395197868347168, -2.0376367568969727, 7.750141620635986, -0.16394686698913574, -0.8665672540664673, -1.6825621128082275, 0.277587890625, 0.302490234375, -0.87109375
327, 953973143, -5.397675037384033, -2.0362038612365723, 7.790196895599365, -0.2133922278881073, -0.6798507571220398, -1.6278407573699951, 0.272705078125, 0.300048828125, -0.872802734375
328, 953989810, -5.386944770812988, -2.0423574447631836, 7.798254013061523, -0.20770619809627533, -0.7500807642936707, -1.6040083169937134, 0.276611328125, 0.301513671875, -0.872314453125
329, 954006477, -5.395346164703369, -2.032938003540039, 7.797490119934082, -0.14183034002780914, -0.8342697024345398, -1.5976817607879639, 0.278564453125, 0.300048828125, -0.872314453125
330, 954023144, -5.400633811950684, -2.0326054096221924, 7.791773796081543, -0.1740254908800125, -0.8139203190803528, -1.6933066844940186, 0.274658203125, 0.301513671875, -0.871337890625
331, 954039811, -5.405955791473389, -2.0409326553344727, 7.762235641479492, -0.23339571058750153, -0.7402582764625549, -1.7464274168014526, 0.274658203125, 0.301025390625, -0.871826171875
332, 954056478, -5.394527435302734, -2.0503056049346924, 7.7789459228515625, -0.256050169467926, -0.7743488550186157, -1.595223069190979, 0.276123046875, 0.300048828125, -0.871337890625
333, 954073145, -5.384822845458984, -2.0395166873931885, 7.756601810455322, -0.25036415457725525, -0.7301925420761108, -1.5832875967025757, 0.274658203125, 0.301025390625, -0.871337890625
334, 954089812, -5.397153854370117, -2.028099775314331, 7.77755880355835, -0.20737320184707642, -0.6647903919219971, -1.7279479503631592, 0.2734375, 0.302490234375, -0.869873046875
335, 954106479, -5.402761459350586, -2.0251426696777344, 7.7643561363220215, -0.2098192572593689, -0.6356304287910461, -1.65839684009552, 0.275634765625, 0.301025390625, -0.870361328125
336, 954123146, -5.405937194824219, -2.0219357013702393, 7.750904083251953, -0.27327466011047363, -0.7741310000419617, -1.7511913776397705, 0.276123046875, 0.300537109375, -0.870849609375
337, 954139813, -5.399884223937988, -2.0263121128082275, 7.782894134521484, -0.3003856837749481, -0.7448299527168274, -1.7702085971832275, 0.274658203125, 0.300537109375, -0.869873046875
338, 954156480, -5.391505718231201, -2.0505526065826416, 7.80267333984375, -0.2964414060115814, -0.6022698879241943, -1.642478585243225, 0.275634765625, 0.302490234375, -0.872314453125
339, 954173147, -5.394027233123779, -2.0282928943634033, 7.766878604888916, -0.35805270075798035, -0.6300723552703857, -1.632745385169983, 0.274658203125, 0.300537109375, -0.873779296875
340, 954189814, -5.403580188751221, -2.0399727821350098, 7.763404369354248, -0.29758116602897644, -0.6814771294593811, -1.6055833101272583, 0.275634765625, 0.301025390625, -0.872314453125
341, 954206481, -5.39960241317749, -2.0316288471221924, 7.787500381469727, -0.3276248276233673, -0.5018423795700073, -1.597489595413208, 0.273681640625, 0.301025390625, -0.872314453125
342, 954223148, -5.411524772644043, -2.0140724182128906, 7.782688140869141, -0.3712817132472992, -0.6104403138160706, -1.557534098625183, 0.276611328125, 0.301513671875, -0.873779296875
343, 954239815, -5.3999762535095215, -2.0418355464935303, 7.768776893615723, -0.22800426185131073, -0.6380124092102051, -1.6199520826339722, 0.274658203125, 0.301513671875, -0.871826171875
344, 954256482, -5.414278030395508, -2.035871744155884, 7.791390895843506, -0.278051495552063, -0.6007202863693237, -1.5855798721313477, 0.275146484375, 0.300048828125, -0.871337890625
345, 954273149, -5.386198997497559, -2.0277066230773926, 7.804160118103027, -0.32859814167022705, -0.6900317668914795, -1.62045156955719, 0.275146484375, 0.299560546875, -0.871337890625
346, 954289816, -5.40071439743042, -2.039947748184204, 7.783092021942139, -0.22187000513076782, -0.751758337020874, -1.6126906871795654, 0.277587890625, 0.300048828125, -0.872314453125
347, 954306483, -5.408816337585449, -2.0287718772888184, 7.7899346351623535, -0.2463429719209671, -0.6781218647956848, -1.6657731533050537, 0.275634765625, 0.301513671875, -0.871337890625
348, 954323150, -5.3852949142456055, -2.0505244731903076, 7.814432144165039, -0.263378381729126, -0.7611525654792786, -1.6820995807647705, 0.275146484375, 0.301025390625, -0.872314453125
349, 954339817, -5.393880844116211, -2.030313491821289, 7.771978855133057, -0.3054826855659485, -0.642187237739563, -1.6098991632461548, 0.274169921875, 0.300048828125, -0.870361328125
350, 954356484, -5.403861999511719, -2.016767978668213, 7.78183650970459, -0.18713918328285217, -0.6149480938911438, -1.6244853734970093, 0.277099609375, 0.300048828125, -0.87109375
351, 954373151, -5.392993450164795, -2.0231969356536865, 7.7765703201293945, -0.27268561720848083, -0.5787957906723022, -1.6592419147491455, 0.275634765625, 0.299560546875, -0.872314453125
352, 954389818, -5.4087629318237305, -2.017040967941284, 7.790689468383789, -0.32603687047958374, -0.52657151222229, -1.600115180015564, 0.276123046875, 0.301025390625, -0.871337890625
353, 954406485, -5.398705005645752, -2.0262293815612793, 7.764643669128418, -0.40724191069602966, -0.6804782152175903, -1.5739132165908813, 0.274169921875, 0.299560546875, -0.873291015625
354, 954423152, -5.393864154815674, -2.0334324836730957, 7.777752876281738, -0.38020771741867065, -0.6720131635665894, -1.6372405290603638, 0.274658203125, 0.29931640625, -0.870849609375
355, 954439819, -5.381674289703369, -2.033299446105957, 7.7992753982543945, -0.30116698145866394, -0.6532135009765625, -1.5916885137557983, 0.276123046875, 0.299072265625, -0.8701171875
356, 954456486, -5.4059062004089355, -2.0037496089935303, 7.783809185028076, -0.4101105332374573, -0.5331795811653137, -1.7661364078521729, 0.275634765625, 0.301513671875, -0.86962890625
357, 954473153, -5.381892204284668, -2.059965133666992, 7.781997203826904, -0.3531222641468048, -0.5507498383522034, -1.685289978981018, 0.275634765625, 0.301025390625, -0.872802734375
358, 954489820, -5.405257701873779, -1.9951424598693848, 7.771322727203369, -0.2873617112636566, -0.6334661245346069, -1.596823811531067, 0.275634765625, 0.302490234375, -0.872314453125
359, 954506487, -5.392870903015137, -2.047520399093628, 7.780386924743652, -0.2378907948732376, -0.6709631085395813, -1.5902414321899414, 0.276123046875, 0.302001953125, -0.872314453125
360, 954523154, -5.407613277435303, -2.007603883743286, 7.789262294769287, -0.34888342022895813, -0.5309768915176392, -1.633309006690979, 0.2724609375, 0.301025390625, -0.871826171875
361, 954539821, -5.394458770751953, -2.026310682296753, 7.774771690368652, -0.42076539993286133, -0.5328593850135803, -1.686852216720581, 0.273193359375, 0.298828125, -0.871337890625
362, 954556488, -5.41058874130249, -2.0192673206329346, 7.785486698150635, -0.49017590284347534, -0.4757559299468994, -1.6454880237579346, 0.275634765625, 0.299560546875, -0.87060546875
363, 954573155, -5.394039154052734, -2.0349740982055664, 7.791877746582031, -0.47681885957717896, -0.2988489866256714, -1.6382396221160889, 0.274658203125, 0.300048828125, -0.871337890625
364, 954589822, -5.408429145812988, -2.0248751640319824, 7.756917476654053, -0.3618561923503876, -0.5942146182060242, -1.6401090621948242, 0.274658203125, 0.301513671875, -0.870361328125
365, 954606489, -5.377312660217285, -2.03376841545105, 7.766443729400635, -0.34879374504089355, -0.5272246599197388, -1.6455392837524414, 0.273681640625, 0.300537109375, -0.871826171875
366, 954623156, -5.408523082733154, -2.0354537963867188, 7.7771382331848145, -0.31593266129493713, -0.6151402592658997, -1.6727911233901978, 0.274169921875, 0.301513671875, -0.871826171875
367, 954639823, -5.400857925415039, -2.032104253768921, 7.776765823364258, -0.2961980700492859, -0.5793849229812622, -1.6528517007827759, 0.274658203125, 0.300048828125, -0.86962890625
368, 954656490, -5.414470672607422, -2.027357578277588, 7.805387496948242, -0.3737276494503021, -0.5552447438240051, -1.7409076690673828, 0.275634765625, 0.300537109375, -0.870849609375
369, 954673157, -5.396130561828613, -2.0291402339935303, 7.8133320808410645, -0.41660332679748535, -0.40620458126068115, -1.7219417095184326, 0.274658203125, 0.299560546875, -0.870361328125
370, 954689824, -5.411076068878174, -2.0466504096984863, 7.788575649261475, -0.43537744879722595, -0.314933717250824, -1.6416842937469482, 0.276611328125, 0.301025390625, -0.872802734375
371, 954706491, -5.406773090362549, -2.0219385623931885, 7.7975969314575195, -0.42295530438423157, -0.2562934458255768, -1.6087720394134521, 0.274169921875, 0.29931640625, -0.869873046875
372, 954723158, -5.409119129180908, -2.0338799953460693, 7.771790504455566, -0.507951021194458, -0.33511653542518616, -1.564846158027649, 0.277099609375, 0.298828125, -0.86962890625
373, 954739825, -5.422539234161377, -2.022059440612793, 7.760821342468262, -0.5618401765823364, -0.41560444235801697, -1.490646243095398, 0.274169921875, 0.302001953125, -0.871826171875
374, 954756492, -5.405224800109863, -2.014873743057251, 7.774744033813477, -0.4249146580696106, -0.572482168674469, -1.6137791872024536, 0.276611328125, 0.302001953125, -0.870849609375
375, 954773159, -5.404512882232666, -2.0234339237213135, 7.769443035125732, -0.47863730788230896, -0.6147815585136414, -1.7435588836669922, 0.278076171875, 0.300048828125, -0.874267578125
376, 954789826, -5.399925231933594, -2.0362565517425537, 7.793442249298096, -0.42344197630882263, -0.4991146922111511, -1.6467174291610718, 0.277099609375, 0.299560546875, -0.87158203125
377, 954806493, -5.405628681182861, -2.0341439247131348, 7.806365966796875, -0.37274160981178284, -0.47895753383636475, -1.6108596324920654, 0.275146484375, 0.301025390625, -0.871337890625
378, 954823160, -5.404493808746338, -2.0216217041015625, 7.790092945098877, -0.35479992628097534, -0.5294529795646667, -1.5930204391479492, 0.274658203125, 0.298828125, -0.874267578125
379, 954839827, -5.425365924835205, -2.0294852256774902, 7.76975679397583, -0.19556577503681183, -0.5398901700973511, -1.6619954109191895, 0.275146484375, 0.300048828125, -0.871826171875
380, 954856494, -5.378559112548828, -2.0779712200164795, 7.773359298706055, -0.29481494426727295, -0.5420030355453491, -1.683471441268921, 0.274169921875, 0.301025390625, -0.871826171875
381, 954873161, -5.436359882354736, -1.9972314834594727, 7.774242877960205, -0.2202051728963852, -0.556512713432312, -1.5270674228668213, 0.277587890625, 0.301513671875, -0.87060546875
382, 954889828, -5.39544677734375, -2.0328664779663086, 7.774263381958008, -0.13975569605827332, -0.6580286622047424, -1.6256123781204224, 0.275146484375, 0.300048828125, -0.870849609375
383, 954906495, -5.392976760864258, -2.00498628616333, 7.786010265350342, -0.19518157839775085, -0.5567048788070679, -1.5197551250457764, 0.273681640625, 0.300048828125, -0.871826171875
384, 954923162, -5.409597873687744, -2.0253794193267822, 7.760116100311279, -0.31606072187423706, -0.38274338841438293, -1.4841278791427612, 0.275146484375, 0.301025390625, -0.86865234375
385, 954939829, -5.421903133392334, -2.0201287269592285, 7.787639617919922, -0.24296201765537262, -0.5483551025390625, -1.6190555095672607, 0.276123046875, 0.299072265625, -0.87060546875
386, 954956496, -5.412748336791992, -2.0102288722991943, 7.7995076179504395, -0.23722483217716217, -0.5091420412063599, -1.6074018478393555, 0.275146484375, 0.301025390625, -0.871826171875
387, 954973163, -5.4068603515625, -2.0298454761505127, 7.742404937744141, -0.3160606920719147, -0.5965837836265564, -1.6654144525527954, 0.274658203125, 0.298828125, -0.871826171875
388, 954989830, -5.400468826293945, -2.030796766281128, 7.775744438171387, -0.29250988364219666, -0.6275496482849121, -1.5840176343917847, 0.277099609375, 0.301025390625, -0.871337890625
389, 955006497, -5.4210100173950195, -2.02612566947937, 7.782447338104248, -0.2709055542945862, -0.6100433468818665, -1.6539145708084106, 0.276611328125, 0.29931640625, -0.874755859375
390, 955023164, -5.410419464111328, -2.0268282890319824, 7.791058540344238, -0.23799319565296173, -0.5902445912361145, -1.5936604738235474, 0.275634765625, 0.300048828125, -0.871826171875
391, 955039831, -5.406088352203369, -2.0157597064971924, 7.776788234710693, -0.260071337223053, -0.41498976945877075, -1.5693155527114868, 0.277587890625, 0.300537109375, -0.87060546875
392, 955056498, -5.407693862915039, -2.0180444717407227, 7.787994384765625, -0.3027932941913605, -0.41364505887031555, -1.5813407897949219, 0.275146484375, 0.301025390625, -0.870849609375
393, 955073165, -5.403560161590576, -2.0261926651000977, 7.786176681518555, -0.2898973226547241, -0.3754693567752838, -1.6482411623001099, 0.276123046875, 0.299560546875, -0.873779296875
394, 955089832, -5.4184041023254395, -2.019310235977173, 7.781444549560547, -0.25894439220428467, -0.3848308324813843, -1.6913731098175049, 0.276123046875, 0.29833984375, -0.871337890625
395, 955106499, -5.421408176422119, -2.02274751663208, 7.7607550621032715, -0.1937088668346405, -0.6211720705032349, -1.6212456226348877, 0.276611328125, 0.299560546875, -0.872314453125
396, 955123166, -5.404336452484131, -2.0146684646606445, 7.796018600463867, -0.14864331483840942, -0.619135856628418, -1.6697049140930176, 0.274658203125, 0.29931640625, -0.872802734375
397, 955139833, -5.398904323577881, -2.012545347213745, 7.799572944641113, -0.19972781836986542, -0.5583824515342712, -1.7435716390609741, 0.275634765625, 0.29931640625, -0.871337890625
398, 955156500, -5.411524772644043, -2.009549379348755, 7.77814245223999, -0.2451135367155075, -0.5621987581253052, -1.6752498149871826, 0.276611328125, 0.300048828125, -0.871337890625
399, 955173167, -5.380911350250244, -2.023000955581665, 7.805546760559082, -0.3169955313205719, -0.5222301483154297, -1.669986367225647, 0.276123046875, 0.298828125, -0.871337890625
400, 955189834, -5.403138160705566, -2.0386080741882324, 7.7604498863220215, -0.3690021336078644, -0.4930444657802582, -1.544804334640503, 0.276611328125, 0.299072265625, -0.8701171875
401, 955206501, -5.423020839691162, -2.013723373413086, 7.770327091217041, -0.3344250023365021, -0.4942610561847687, -1.571121335029602, 0.276123046875, 0.300537109375, -0.871337890625
402, 955223168, -5.419856548309326, -1.9909039735794067, 7.759142875671387, -0.18354061245918274, -0.6309817433357239, -1.593238115310669, 0.275146484375, 0.298828125, -0.870849609375
403, 955239835, -5.418452262878418, -2.0050220489501953, 7.783233165740967, -0.18251608312129974, -0.7267346382141113, -1.670703411102295, 0.276123046875, 0.29833984375, -0.87109375
404, 955256502, -5.387852668762207, -2.0168795585632324, 7.797185897827148, -0.09471575915813446, -0.8035600781440735, -1.5854902267456055, 0.275634765625, 0.301513671875, -0.872314453125
405, 955273169, -5.4087605476379395, -2.005476951599121, 7.775539398193359, -0.14683760702610016, -0.7297570705413818, -1.5557667016983032, 0.278076171875, 0.301025390625, -0.871826171875
406, 955289836, -5.4127373695373535, -2.016185998916626, 7.7645063400268555, -0.23342131078243256, -0.7945571541786194, -1.472858190536499, 0.277099609375, 0.29833984375, -0.872802734375
407, 955306503, -5.405095100402832, -2.012409210205078, 7.8069610595703125, -0.20118777453899384, -0.7682657837867737, -1.5742589235305786, 0.276611328125, 0.300048828125, -0.872314453125
408, 955323170, -5.401648998260498, -2.0147247314453125, 7.796492576599121, -0.23923541605472565, -0.7123403549194336, -1.680000901222229, 0.276123046875, 0.299560546875, -0.870849609375
409, 955339837, -5.418374538421631, -1.9939608573913574, 7.78267240524292, -0.13655413687229156, -0.747340202331543, -1.6406984329223633, 0.277587890625, 0.298828125, -0.872802734375
410, 955356504, -5.409606456756592, -1.994580626487732, 7.791358470916748, -0.2500823736190796, -0.8700889348983765, -1.5878335237503052, 0.275634765625, 0.29833984375, -0.8701171875
411, 955373171, -5.416759967803955, -2.0083305835723877, 7.755581855773926, -0.20625905692577362, -0.9783538579940796, -1.5866682529449463, 0.276123046875, 0.29931640625, -0.872802734375
412, 955389838, -5.418156147003174, -2.0114879608154297, 7.787819862365723, -0.07673563063144684, -1.1025497913360596, -1.5648972988128662, 0.275146484375, 0.300537109375, -0.872802734375
413, 955406505, -5.394331932067871, -1.9912019968032837, 7.801869869232178, -0.16489455103874207, -1.0134176015853882, -1.6328480243682861, 0.277099609375, 0.2978515625, -0.87158203125
414, 955423172, -5.395359992980957, -1.9898208379745483, 7.7853617668151855, -0.1282171607017517, -0.8991721868515015, -1.5806493759155273, 0.275146484375, 0.29931640625, -0.872314453125
415, 955439839, -5.420242786407471, -1.9942127466201782, 7.780311584472656, -0.2819061577320099, -0.8541962504386902, -1.677414059638977, 0.274169921875, 0.300048828125, -0.872314453125
416, 955456506, -5.414963245391846, -2.005998373031616, 7.799091815948486, -0.26136475801467896, -0.7668442130088806, -1.7634470462799072, 0.275146484375, 0.29736328125, -0.87060546875
417, 955473173, -5.4095354080200195, -2.0185434818267822, 7.772411823272705, -0.22217735648155212, -0.8512124419212341, -1.7391278743743896, 0.276611328125, 0.29833984375, -0.875244140625
418, 955489840, -5.404033660888672, -2.0087828636169434, 7.7748308181762695, -0.23431777954101562, -0.9538682699203491, -1.6548365354537964, 0.275634765625, 0.29931640625, -0.873779296875
419, 955506507, -5.405679702758789, -2.005906581878662, 7.805605411529541, -0.25617820024490356, -0.88555908203125, -1.6914113759994507, 0.274658203125, 0.298828125, -0.872314453125
420, 955523174, -5.393105983734131, -1.9971442222595215, 7.828577041625977, -0.22648105025291443, -0.8217813968658447, -1.7279232740402222, 0.276123046875, 0.296875, -0.875244140625
421, 955539841, -5.402993202209473, -1.997043490409851, 7.8037872314453125, -0.3870719075202942, -0.7046053409576416, -1.7406517267227173, 0.274658203125, 0.298828125, -0.873779296875
422, 955556508, -5.406244277954102, -2.0034267902374268, 7.800112247467041, -0.38018208742141724, -0.6325055360794067, -1.7797237634658813, 0.276611328125, 0.29931640625, -0.872802734375
423, 955573175, -5.419071197509766, -2.015691041946411, 7.759643077850342, -0.44361191987991333, -0.6902366280555725, -1.7778669595718384, 0.276123046875, 0.296875, -0.873779296875
424, 955589842, -5.408098220825195, -2.0074777603149414, 7.80756950378418, -0.28198298811912537, -0.8203875422477722, -1.7838348150253296, 0.277099609375, 0.298828125, -0.873779296875
425, 955606509, -5.403565883636475, -2.01483416557312, 7.768153190612793, -0.2582400143146515, -0.7621313333511353, -1.7631523609161377, 0.276611328125, 0.2978515625, -0.87109375
426, 955623176, -5.409600257873535, -1.9990627765655518, 7.759642601013184, -0.36815690994262695, -0.7370181083679199, -1.7777260541915894, 0.274658203125, 0.2978515625, -0.872314453125
427, 955639843, -5.398465633392334, -2.0266714096069336, 7.776968002319336, -0.31890368461608887, -0.8038929104804993, -1.8002910614013672, 0.272705078125, 0.298828125, -0.872314453125
428, 955656510, -5.397919654846191, -2.021857261657715, 7.7704877853393555, -0.3774927258491516, -0.7270035147666931, -1.8463935852050781, 0.2734375, 0.301513671875, -0.871826171875
429, 955673177, -5.396337985992432, -1.997793436050415, 7.7864885330200195, -0.37244704365730286, -0.664944052696228, -1.7456462383270264, 0.275634765625, 0.2978515625, -0.873291015625
430, 955689844, -5.409546375274658, -1.9949172735214233, 7.774193286895752, -0.4060381054878235, -0.6185979247093201, -1.7547004222869873, 0.276611328125, 0.29833984375, -0.873779296875
431, 955706511, -5.420006275177002, -2.0014233589172363, 7.800951957702637, -0.4101489782333374, -0.7710574865341187, -1.8678187131881714, 0.276123046875, 0.296875, -0.873291015625
432, 955723178, -5.395416736602783, -2.028170347213745, 7.7732110023498535, -0.3976627290248871, -0.8804237246513367, -1.850171685218811, 0.275146484375, 0.299560546875, -0.872314453125
433, 955739845, -5.38314151763916, -1.9981802701950073, 7.7810211181640625, -0.34860163927078247, -1.0425649881362915, -1.870713233947754, 0.272705078125, 0.296875, -0.872314453125
434, 955756512, -5.402061939239502, -2.0383493900299072, 7.787695407867432, -0.3618945777416229, -0.9158589243888855, -1.827824592590332, 0.274169921875, 0.29638671875, -0.872314453125
435, 955773179, -5.411421775817871, -2.0029006004333496, 7.796682834625244, -0.3138708174228668, -0.8046613931655884, -1.8851076364517212, 0.2734375, 0.302490234375, -0.872314453125
436, 955789846, -5.3924407958984375, -1.988491415977478, 7.77275276184082, -0.34632211923599243, -0.8211303353309631, -1.8494672775268555, 0.274169921875, 0.299560546875, -0.871826171875
437, 955806513, -5.4041876792907715, -2.0106637477874756, 7.793014049530029, -0.42979392409324646, -0.7896139621734619, -1.938279628753662, 0.271240234375, 0.2958984375, -0.872314453125
438, 955823180, -5.4059224128723145, -2.0107462406158447, 7.793762683868408, -0.45262768864631653, -0.7672924399375916, -1.956784725189209, 0.272705078125, 0.298828125, -0.873291015625
439, 955839847, -5.4086198806762695, -2.0111818313598633, 7.785766124725342, -0.4176022410392761, -0.947439432144165, -2.0284619331359863, 0.273681640625, 0.29931640625, -0.872314453125
440, 955856514, -5.399176597595215, -2.0163965225219727, 7.787437915802002, -0.405141681432724, -1.0555505752563477, -2.019561290740967, 0.276611328125, 0.2978515625, -0.87109375
441, 955873181, -5.398355007171631, -2.0025110244750977, 7.782900810241699, -0.431177020072937, -1.0872464179992676, -1.9485247135162354, 0.273681640625, 0.298828125, -0.872802734375
442, 955889848, -5.382267951965332, -2.0041685104370117, 7.803615570068359, -0.45650798082351685, -1.123949408531189, -1.9531476497650146, 0.276611328125, 0.298828125, -0.871337890625
443, 955906515, -5.394018173217773, -2.0118930339813232, 7.792201995849609, -0.5369062423706055, -0.9082648158073425, -1.9577964544296265, 0.274169921875, 0.29833984375, -0.874267578125
444, 955923182, -5.387483596801758, -1.9928308725357056, 7.81643009185791, -0.4624629318714142, -0.9505897760391235, -2.0021064281463623, 0.273681640625, 0.29833984375, -0.871826171875
445, 955939849, -5.366809844970703, -2.011934518814087, 7.80610990524292, -0.4041043817996979, -0.9089563488960266, -2.004232168197632, 0.273193359375, 0.29833984375, -0.872314453125
446, 955956516, -5.387451648712158, -2.019420862197876, 7.800444602966309, -0.40283656120300293, -0.8980453610420227, -1.9860343933105469, 0.272705078125, 0.2978515625, -0.871826171875
447, 955973183, -5.371410369873047, -2.0211422443389893, 7.797585487365723, -0.4906497001647949, -0.8339495062828064, -1.8957369327545166, 0.272705078125, 0.29931640625, -0.87451171875
448, 955989850, -5.3734540939331055, -2.014434337615967, 7.803854465484619, -0.4580959975719452, -0.8348716497421265, -1.9371014833450317, 0.274169921875, 0.2978515625, -0.871826171875
449, 956006517, -5.376047134399414, -2.0040903091430664, 7.781303405761719, -0.528799831867218, -0.7912532091140747, -1.9200432300567627, 0.276123046875, 0.29931640625, -0.872802734375
450, 956023184, -5.371572017669678, -2.0219197273254395, 7.83070182800293, -0.4871664047241211, -0.737722635269165, -1.9615358114242554, 0.276123046875, 0.29833984375, -0.872802734375
451, 956039851, -5.369580268859863, -2.016528844833374, 7.799957275390625, -0.5777072906494141, -0.7354174852371216, -1.8788962364196777, 0.273681640625, 0.2998046875, -0.87451171875
452, 956056518, -5.3761115074157715, -2.008404493331909, 7.806669235229492, -0.5151994824409485, -0.736301064491272, -1.9900684356689453, 0.274169921875, 0.299560546875, -0.874267578125
453, 956073185, -5.348889350891113, -2.0172650814056396, 7.820420742034912, -0.5386862754821777, -0.5965966582298279, -1.9582703113555908, 0.272705078125, 0.2958984375, -0.87548828125
454, 956089852, -5.36610746383667, -2.014852523803711, 7.819396495819092, -0.5252012014389038, -0.46038827300071716, -1.7971662282943726, 0.27197265625, 0.2998046875, -0.870849609375
455, 956106519, -5.378286361694336, -2.016908884048462, 7.772940158843994, -0.606662392616272, -0.4008515477180481, -1.791723370552063, 0.273193359375, 0.29931640625, -0.870849609375
456, 956123186, -5.385012149810791, -2.040647268295288, 7.77710485458374, -0.5380460023880005, -0.4236212372779846, -1.8065788745880127, 0.274169921875, 0.298828125, -0.873779296875
457, 956139853, -5.376448154449463, -2.025317430496216, 7.780945777893066, -0.5033535957336426, -0.39996790885925293, -1.7936444282531738, 0.273681640625, 0.301513671875, -0.873779296875
458, 956156520, -5.398871898651123, -2.020892858505249, 7.771196365356445, -0.5065295100212097, -0.46686825156211853, -1.733454704284668, 0.273681640625, 0.302001953125, -0.87451171875
459, 956173187, -5.387997627258301, -2.009486198425293, 7.8072829246521, -0.47383493185043335, -0.6191997528076172, -1.7370147705078125, 0.274169921875, 0.300537109375, -0.873291015625
460, 956189854, -5.401790142059326, -2.0119619369506836, 7.799637794494629, -0.405641108751297, -0.6997132897377014, -1.87310791015625, 0.274169921875, 0.301025390625, -0.874267578125
461, 956206521, -5.372913360595703, -2.037860870361328, 7.809895038604736, -0.5170051455497742, -0.6552624702453613, -1.7440838813781738, 0.273681640625, 0.300537109375, -0.874267578125
462, 956223188, -5.392064571380615, -2.0139317512512207, 7.8126726150512695, -0.47095349431037903, -0.5813441872596741, -1.6763383150100708, 0.272216796875, 0.2978515625, -0.873291015625
463, 956239855, -5.387149333953857, -2.0186686515808105, 7.7975850105285645, -0.44822224974632263, -0.5290815830230713, -1.6542218923568726, 0.271484375, 0.300048828125, -0.872314453125
464, 956256522, -5.388026237487793, -2.0114285945892334, 7.8027663230896, -0.4015430808067322, -0.5340631604194641, -1.670831561088562, 0.2724609375, 0.29931640625, -0.869384765625
465, 956273189, -5.376906394958496, -2.010316848754883, 7.792666912078857, -0.46681708097457886, -0.5699722766876221, -1.655976414680481, 0.27001953125, 0.30029296875, -0.871826171875
466, 956289856, -5.3905792236328125, -2.037398338317871, 7.782580375671387, -0.3898252546787262, -0.7288733720779419, -1.7017461061477661, 0.27294921875, 0.300537109375, -0.872314453125
467, 956306523, -5.3817973136901855, -2.022027015686035, 7.794646739959717, -0.32795777916908264, -0.8349868059158325, -1.6624689102172852, 0.272705078125, 0.29931640625, -0.87548828125
468, 956323190, -5.384718894958496, -2.0183651447296143, 7.816866874694824, -0.3504457473754883, -0.7656531929969788, -1.7138736248016357, 0.27197265625, 0.298828125, -0.872802734375
469, 956339857, -5.364557266235352, -2.0126616954803467, 7.802495956420898, -0.33142831921577454, -0.7104066014289856, -1.7516779899597168, 0.272705078125, 0.2998046875, -0.872802734375
470, 956356524, -5.382524490356445, -2.0231478214263916, 7.799614429473877, -0.38517656922340393, -0.710137665271759, -1.7971405982971191, 0.271484375, 0.300048828125, -0.872802734375
471, 956373191, -5.3827223777771, -2.0018277168273926, 7.790674686431885, -0.3551328480243683, -0.7160285711288452, -1.7864089012145996, 0.273681640625, 0.29931640625, -0.873291015625
472, 956389858, -5.380685806274414, -2.0086019039154053, 7.82733154296875, -0.4207525849342346, -0.9051271677017212, -1.8381847143173218, 0.275634765625, 0.302001953125, -0.87744140625
473, 956406525, -5.378100872039795, -2.03589129447937, 7.794454097747803, -0.35059940814971924, -0.7831978797912598, -1.8036845922470093, 0.273193359375, 0.300537109375, -0.871826171875
474, 956423192, -5.383718490600586, -2.0170841217041016, 7.8155412673950195, -0.4883701205253601, -0.8090538382530212, -1.7664566040039062, 0.271484375, 0.300537109375, -0.873046875
475, 956439859, -5.377507209777832, -2.0378644466400146, 7.821099758148193, -0.35743799805641174, -0.8152393102645874, -1.7068428993225098, 0.27099609375, 0.29931640625, -0.873046875
476, 956456526, -5.3796162605285645, -2.019193410873413, 7.818585395812988, -0.28208547830581665, -0.8770685791969299, -1.917853593826294, 0.273193359375, 0.29931640625, -0.869873046875
477, 956473193, -5.368844985961914, -2.021162748336792, 7.802046775817871, -0.3344762921333313, -0.8850340843200684, -1.9365636110305786, 0.272216796875, 0.2978515625, -0.873291015625
478, 956489860, -5.38266134262085, -2.0350329875946045, 7.808350086212158, -0.23809564113616943, -0.7293215990066528, -1.8656928539276123, 0.272216796875, 0.2998046875, -0.87353515625
479, 956506527, -5.366142749786377, -2.0666489601135254, 7.7935333251953125, -0.3697192370891571, -0.7381963133811951, -1.725232720375061, 0.273193359375, 0.301025390625, -0.87548828125
480, 956523194, -5.401561737060547, -1.9874544143676758, 7.82718563079834, -0.38039982318878174, -0.800614595413208, -1.9264721870422363, 0.27197265625, 0.2998046875, -0.872802734375
481, 956539861, -5.358235836029053, -2.0616707801818848, 7.804880619049072, -0.33929145336151123, -0.8565782904624939, -1.8457536697387695, 0.271484375, 0.29833984375, -0.872314453125
482, 956556528, -5.365486145019531, -2.0179102420806885, 7.816568851470947, -0.34601473808288574, -0.7382732033729553, -1.6559377908706665, 0.273193359375, 0.29833984375, -0.872314453125
483, 956573195, -5.357276439666748, -2.022857904434204, 7.789135456085205, -0.3765067160129547, -0.5374313592910767, -1.6056345701217651, 0.2724609375, 0.300537109375, -0.870849609375
484, 956589862, -5.357635498046875, -2.009783983230591, 7.801612854003906, -0.3293793201446533, -0.4517952501773834, -1.6891320943832397, 0.272705078125, 0.29931640625, -0.873779296875
485, 956606529, -5.365063667297363, -2.010756731033325, 7.806951999664307, -0.34162217378616333, -0.3634186089038849, -1.5572139024734497, 0.2724609375, 0.300537109375, -0.871826171875
486, 956623196, -5.37213659286499, -2.0119659900665283, 7.80497932434082, -0.3308776915073395, -0.31842994689941406, -1.6280713081359863, 0.27197265625, 0.300048828125, -0.871826171875
487, 956639863, -5.367550849914551, -2.0029165744781494, 7.800774574279785, -0.27116167545318604, -0.35706666111946106, -1.5829801559448242, 0.272216796875, 0.29931640625, -0.872314453125
488, 956656530, -5.383293628692627, -2.013946533203125, 7.810952186584473, -0.31755906343460083, -0.37776169180870056, -1.596516489982605, 0.272705078125, 0.2978515625, -0.872314453125
489, 956673197, -5.374716281890869, -2.014744281768799, 7.799945831298828, -0.3439144790172577, -0.4667273163795471, -1.7459534406661987, 0.272705078125, 0.298828125, -0.871337890625
490, 956689864, -5.37719202041626, -2.032738208770752, 7.830822467803955, -0.27382537722587585, -0.6332996487617493, -1.6025227308273315, 0.2705078125, 0.298828125, -0.872314453125
491, 956706531, -5.376422882080078, -2.0100481510162354, 7.793449878692627, -0.24631735682487488, -0.5446668863296509, -1.5244295597076416, 0.274658203125, 0.298828125, -0.873291015625
492, 956723198, -5.381555557250977, -2.017890214920044, 7.788014888763428, -0.1769431233406067, -0.6323001980781555, -1.566912293434143, 0.27001953125, 0.301025390625, -0.870849609375
493, 956739865, -5.3757100105285645, -2.0109333992004395, 7.804443359375, -0.1774960160255432, -0.5877346992492676, -1.5844401121139526, 0.273681640625, 0.299560546875, -0.871826171875
494, 956756532, -5.361515045166016, -2.0261707305908203, 7.81058931350708, -0.3125389516353607, -0.29879772663116455, -1.5178085565567017, 0.272705078125, 0.2998046875, -0.8740234375
495, 956773199, -5.374904632568359, -2.020848035812378, 7.800759315490723, -0.3081079423427582, -0.20176401734352112, -1.4442360401153564, 0.272216796875, 0.29833984375, -0.872802734375
496, 956789866, -5.379640579223633, -2.021407127380371, 7.800378799438477, -0.30664804577827454, -0.23138512670993805, -1.4116183519363403, 0.273193359375, 0.29833984375, -0.871337890625
497, 956806533, -5.383361339569092, -2.013820171356201, 7.776379108428955, -0.34858885407447815, -0.41253095865249634, -1.4739340543746948, 0.27197265625, 0.300048828125, -0.8740234375
498, 956823200, -5.379889488220215, -2.0146167278289795, 7.796420574188232, -0.21340501308441162, -0.49435070157051086, -1.4586176872253418, 0.2724609375, 0.29931640625, -0.871826171875
499, 956839867, -5.365900039672852, -2.026118040084839, 7.8019328117370605, -0.20007361471652985, -0.5762729644775391, -1.4881107807159424, 0.272705078125, 0.2998046875, -0.871337890625
500, 956856534, -5.366640090942383, -2.010666608810425, 7.8150506019592285, -0.30075713992118835, -0.34268513321876526, -1.3668345212936401, 0.273193359375, 0.29736328125, -0.871337890625
501, 956873201, -5.384491920471191, -2.0243568420410156, 7.818166255950928, -0.34264665842056274, -0.1225951761007309, -1.4362447261810303, 0.274169921875, 0.298828125, -0.872314453125
502, 956889868, -5.3971991539001465, -2.0229082107543945, 7.796539783477783, -0.3506762981414795, -0.24068255722522736, -1.4437750577926636, 0.27197265625, 0.29931640625, -0.873291015625
503, 956906535, -5.398421287536621, -2.0165116786956787, 7.779198169708252, -0.29840078949928284, -0.507400393486023, -1.514005184173584, 0.276123046875, 0.29736328125, -0.873779296875
504, 956923202, -5.3850860595703125, -2.0167088508605957, 7.790855884552002, -0.2246105819940567, -0.715670108795166, -1.526581048965454, 0.273193359375, 0.29833984375, -0.871826171875
505, 956939869, -5.3631110191345215, -2.007594347000122, 7.821356773376465, -0.170644611120224, -0.544474720954895, -1.5170146226882935, 0.275146484375, 0.298828125, -0.875244140625
506, 956956536, -5.360300540924072, -2.0132105350494385, 7.822973251342773, -0.3529813885688782, -0.32622894644737244, -1.526580810546875, 0.273681640625, 0.29736328125, -0.872802734375
507, 956973203, -5.3846821784973145, -2.0245490074157715, 7.818551063537598, -0.318558007478714, -0.06601673364639282, -1.4043186902999878, 0.27099609375, 0.29736328125, -0.87353515625
508, 956989870, -5.387301921844482, -2.0108697414398193, 7.789560794830322, -0.3247690498828888, -0.14907872676849365, -1.482629656791687, 0.273193359375, 0.2958984375, -0.872314453125
509, 957006537, -5.409709453582764, -2.012991428375244, 7.770415782928467, -0.3830379247665405, -0.35990968346595764, -1.4880338907241821, 0.274658203125, 0.300048828125, -0.871337890625
510, 957023204, -5.391517639160156, -2.014589309692383, 7.806087017059326, -0.2662312090396881, -0.5989401340484619, -1.61324143409729, 0.275146484375, 0.29931640625, -0.874267578125
511, 957039871, -5.353247165679932, -2.017101526260376, 7.8055739402771, -0.22983556985855103, -0.5139316320419312, -1.429214358329773, 0.274169921875, 0.2978515625, -0.871337890625
512, 957056538, -5.371747016906738, -2.006746292114258, 7.812932014465332, -0.37032121419906616, -0.24383290112018585, -1.3195918798446655, 0.2724609375, 0.298828125, -0.870361328125
513, 957073205, -5.413221836090088, -1.9765772819519043, 7.82790994644165, -0.49546486139297485, -0.005007282830774784, -1.4215943813323975, 0.276123046875, 0.2978515625, -0.873291015625
514, 957089872, -5.376897811889648, -2.0230088233947754, 7.805058479309082, -0.5548863410949707, 0.07932893931865692, -1.5413339138031006, 0.27099609375, 0.2998046875, -0.872314453125
515, 957106539, -5.397043704986572, -2.0262112617492676, 7.785219669342041, -0.541695773601532, 0.04915717616677284, -1.4716801643371582, 0.274658203125, 0.29833984375, -0.871826171875
516, 957123206, -5.374419689178467, -2.0121469497680664, 7.801077842712402, -0.46107977628707886, 0.043394312262535095, -1.3657842874526978, 0.273193359375, 0.29833984375, -0.873291015625
517, 957139873, -5.371186256408691, -2.029697895050049, 7.807668209075928, -0.5588179230690002, 0.27173152565956116, -1.1933597326278687, 0.275146484375, 0.300537109375, -0.870361328125
518, 957156540, -5.365545749664307, -1.997062087059021, 7.828395843505859, -0.48993250727653503, 0.494421124458313, -0.8976994752883911, 0.274658203125, 0.29931640625, -0.872314453125
519, 957173207, -5.398623943328857, -2.0060629844665527, 7.790987968444824, -0.7277976274490356, 0.872387707233429, -0.9258350133895874, 0.273681640625, 0.296875, -0.8701171875
520, 957189874, -5.42868709564209, -2.012413501739502, 7.7629852294921875, -0.7789206504821777, 0.8921222686767578, -0.9080469608306885, 0.274658203125, 0.300048828125, -0.870361328125
521, 957206541, -5.409359455108643, -1.999812364578247, 7.770492076873779, -0.813651442527771, 0.9181064367294312, -1.008013367652893, 0.275146484375, 0.29736328125, -0.871337890625
522, 957223208, -5.407162189483643, -2.0233492851257324, 7.774301052093506, -0.6971776485443115, 1.0927081108093262, -1.0190523862838745, 0.276123046875, 0.29833984375, -0.871826171875
523, 957239875, -5.420213222503662, -2.023603677749634, 7.7709760665893555, -0.7877825498580933, 1.0846786499023438, -0.8386749625205994, 0.27783203125, 0.296875, -0.874267578125
524, 957256542, -5.420174598693848, -2.017629861831665, 7.767075538635254, -0.6705660223960876, 1.1403478384017944, -0.7060396075248718, 0.27783203125, 0.298828125, -0.873291015625
525, 957273209, -5.4288859367370605, -1.9745362997055054, 7.7566633224487305, -0.699777364730835, 1.214676022529602, -0.989264965057373, 0.27880859375, 0.29638671875, -0.87060546875
526, 957289876, -5.437575340270996, -1.9923776388168335, 7.786970138549805, -0.8427346348762512, 1.203752040863037, -0.9600151181221008, 0.27978515625, 0.29833984375, -0.86962890625
527, 957306543, -5.433613300323486, -2.0019640922546387, 7.76414680480957, -0.768316924571991, 1.2376887798309326, -0.9600919485092163, 0.2822265625, 0.299072265625, -0.8720703125
528, 957323210, -5.45835542678833, -2.0168116092681885, 7.7602972984313965, -0.6353230476379395, 1.1990394592285156, -0.8506746888160706, 0.27978515625, 0.29736328125, -0.87060546875
529, 957339877, -5.471731185913086, -2.0143654346466064, 7.7464094161987305, -0.6672364473342896, 1.035284399986267, -0.7943394780158997, 0.28125, 0.298583984375, -0.86962890625
530, 957356544, -5.462561130523682, -1.9972666501998901, 7.743081092834473, -0.582727313041687, 0.6877457499504089, -0.7704684138298035, 0.279296875, 0.300048828125, -0.86962890625
531, 957373211, -5.4371256828308105, -2.0105533599853516, 7.731942176818848, -0.5079766511917114, 0.398578405380249, -0.7169890999794006, 0.28369140625, 0.300537109375, -0.869384765625
532, 957389878, -5.455111503601074, -1.9883135557174683, 7.760990142822266, -0.46935272216796875, 0.4099120497703552, -0.7677407264709473, 0.28125, 0.29833984375, -0.87060546875
533, 957406545, -5.459112644195557, -1.9662641286849976, 7.791645050048828, -0.7641420960426331, 0.48651960492134094, -0.8547597527503967, 0.2841796875, 0.299072265625, -0.870849609375
534, 957423212, -5.475080966949463, -1.9786313772201538, 7.741570472717285, -0.8634424805641174, 0.7099519371986389, -0.9924792051315308, 0.28076171875, 0.299560546875, -0.87158203125
535, 957439879, -5.4718451499938965, -1.9954944849014282, 7.747736930847168, -0.7774606943130493, 0.6001887321472168, -1.0465348958969116, 0.283203125, 0.299072265625, -0.8720703125
536, 957456546, -5.4541015625, -2.0126514434814453, 7.761905670166016, -0.7140948176383972, 0.532084584236145, -1.014160394668579, 0.283203125, 0.298583984375, -0.870361328125
537, 957473213, -5.485110282897949, -2.003932237625122, 7.727778911590576, -0.6802732348442078, 0.38318517804145813, -0.8285707235336304, 0.284423828125, 0.299072265625, -0.87158203125
538, 957489880, -5.4977641105651855, -1.9946027994155884, 7.712491989135742, -0.4731689989566803, 0.1619170904159546, -0.8095917701721191, 0.283935546875, 0.296875, -0.87158203125
539, 957506547, -5.495883941650391, -1.9926989078521729, 7.712993621826172, -0.4026445150375366, 0.03717042878270149, -0.8960347175598145, 0.285400390625, 0.298583984375, -0.870361328125
540, 957523214, -5.47153902053833, -1.969586968421936, 7.755079746246338, -0.32204127311706543, -0.1418943554162979, -0.9628837704658508, 0.284423828125, 0.298583984375, -0.870361328125
541, 957539881, -5.475786209106445, -1.9946414232254028, 7.730616092681885, -0.3267924189567566, -0.15876032412052155, -1.0470471382141113, 0.284423828125, 0.296875, -0.870361328125
542, 957556548, -5.462818145751953, -1.9898326396942139, 7.726785659790039, -0.4137091636657715, -0.024729063734412193, -0.9614495635032654, 0.285400390625, 0.297607421875, -0.870361328125
543, 957573215, -5.480783939361572, -1.9866929054260254, 7.760066032409668, -0.5894122123718262, 0.16707803308963776, -0.8615983724594116, 0.286865234375, 0.297607421875, -0.871337890625
544, 957589882, -5.4834465980529785, -1.983051061630249, 7.756244659423828, -0.3401879072189331, 0.027079029008746147, -0.9253228902816772, 0.287353515625, 0.299560546875, -0.87353515625
545, 957606549, -5.486084461212158, -1.9749431610107422, 7.740355968475342, -0.44006457924842834, -0.051379069685935974, -1.0386333465576172, 0.285400390625, 0.298583984375, -0.867919921875
546, 957623216, -5.488523960113525, -1.9664634466171265, 7.723372936248779, -0.45976078510284424, -0.05698825791478157, -1.0858376026153564, 0.286376953125, 0.298583984375, -0.870849609375
547, 957639883, -5.475640296936035, -1.9875304698944092, 7.734279632568359, -0.5076949000358582, -0.026291437447071075, -1.1695525646209717, 0.285888671875, 0.298095703125, -0.870849609375
548, 957656550, -5.481412410736084, -1.9841506481170654, 7.705811500549316, -0.5252524018287659, -0.010744527913630009, -1.196689248085022, 0.287841796875, 0.296875, -0.8681640625
549, 957673217, -5.489702224731445, -1.9828568696975708, 7.7399582862854, -0.4988841712474823, 0.041498977690935135, -1.1173412799835205, 0.287353515625, 0.2958984375, -0.869384765625
550, 957689884, -5.483927249908447, -1.9933748245239258, 7.726025104522705, -0.5221789479255676, 0.1913973093032837, -1.1373958587646484, 0.287353515625, 0.297607421875, -0.868896484375
551, 957706551, -5.494944095611572, -2.000117778778076, 7.703887939453125, -0.6228240132331848, 0.2862539291381836, -1.1605242490768433, 0.286376953125, 0.299560546875, -0.867919921875
552, 957723218, -5.490205764770508, -1.990959882736206, 7.73723840713501, -0.7540891170501709, 0.23685984313488007, -1.1524434089660645, 0.288818359375, 0.299560546875, -0.868896484375
553, 957739885, -5.475401401519775, -1.9822276830673218, 7.7390899658203125, -0.6549806594848633, 0.2358737587928772, -1.067191481590271, 0.288330078125, 0.298095703125, -0.868896484375
554, 957756552, -5.510265350341797, -1.9980266094207764, 7.70924711227417, -0.7872191071510315, 0.3515278697013855, -1.054449200630188, 0.286865234375, 0.297119140625, -0.86572265625
555, 957773219, -5.482707977294922, -1.9944989681243896, 7.71066427230835, -0.839648425579071, 0.28826454281806946, -0.8832411170005798, 0.288818359375, 0.298095703125, -0.86669921875
556, 957789886, -5.5168657302856445, -1.9645198583602905, 7.725296497344971, -0.9443018436431885, 0.3751172125339508, -0.8385725617408752, 0.288818359375, 0.297607421875, -0.8681640625
557, 957806553, -5.506765365600586, -1.9597482681274414, 7.73714017868042, -1.0261856317520142, 0.5084441304206848, -0.9414716958999634, 0.288818359375, 0.297607421875, -0.8662109375
558, 957823220, -5.506115913391113, -1.9907258749008179, 7.736530303955078, -1.098131775856018, 0.6492499113082886, -0.9377962946891785, 0.290771484375, 0.300048828125, -0.86962890625
559, 957839887, -5.50589656829834, -2.0058319568634033, 7.714288711547852, -1.2648319005966187, 0.6068737506866455, -0.7099199295043945, 0.29150390625, 0.299560546875, -0.86865234375
560, 957856554, -5.525067329406738, -2.021233558654785, 7.749648094177246, -1.5002509355545044, 0.45662957429885864, -0.8210534453392029, 0.291259765625, 0.299072265625, -0.86767578125
561, 957873221, -5.52918004989624, -1.9906389713287354, 7.663877964019775, -0.9072657823562622, 0.3554082214832306, -0.6019625067710876, 0.288818359375, 0.298095703125, -0.8671875
562, 957889888, -5.5174736976623535, -1.9571762084960938, 7.721287250518799, -0.9888551831245422, 0.2796458899974823, -0.4574940800666809, 0.290771484375, 0.297607421875, -0.86572265625
563, 957906555, -5.549980640411377, -1.9706088304519653, 7.680222511291504, -1.1030877828598022, 0.19357436895370483, -0.6230801343917847, 0.289794921875, 0.298583984375, -0.8681640625
564, 957923222, -5.574284553527832, -1.960866093635559, 7.691797733306885, -0.8256492018699646, 0.20937716960906982, -0.7885726094245911, 0.29443359375, 0.298583984375, -0.87158203125
565, 957939889, -5.5467400550842285, -1.970413327217102, 7.700082302093506, -0.5886695981025696, 0.09007346630096436, -1.147564172744751, 0.29248046875, 0.298583984375, -0.86767578125
566, 957956556, -5.542161464691162, -1.9831234216690063, 7.69199275970459, -0.49824389815330505, -0.1606556624174118, -1.2866666316986084, 0.290283203125, 0.300537109375, -0.86572265625
567, 957973223, -5.536588191986084, -1.9837981462478638, 7.699398994445801, -0.5042756199836731, -0.20482474565505981, -1.5134159326553345, 0.289794921875, 0.299072265625, -0.8681640625
568, 957989890, -5.54538631439209, -1.996382474899292, 7.697051525115967, -0.5360481142997742, -0.05286461114883423, -1.2669577598571777, 0.290771484375, 0.299072265625, -0.864990234375
569, 958006557, -5.547019958496094, -1.9690759181976318, 7.695786952972412, -0.6685426831245422, -0.1265907734632492, -1.367141842842102, 0.291748046875, 0.299560546875, -0.86669921875
570, 958023224, -5.547452926635742, -1.9690427780151367, 7.70751953125, -0.8386238217353821, -0.36093413829803467, -1.6125370264053345, 0.29248046875, 0.299072265625, -0.869140625
571, 958039891, -5.5504608154296875, -1.9664971828460693, 7.673343181610107, -0.9346073269844055, -0.5932413339614868, -1.6574488878250122, 0.29296875, 0.300048828125, -0.86767578125
572, 958056558, -5.547375679016113, -1.9882088899612427, 7.685274124145508, -0.974588930606842, -0.7872447371482849, -1.854321002960205, 0.2919921875, 0.298095703125, -0.86767578125
573, 958073225, -5.5558552742004395, -1.9683783054351807, 7.683311462402344, -0.8536201119422913, -1.1677086353302002, -1.8307831287384033, 0.29248046875, 0.3017578125, -0.869140625
574, 958089892, -5.560288429260254, -1.9740283489227295, 7.676829814910889, -0.6756245493888855, -1.5429091453552246, -1.910207986831665, 0.29248046875, 0.300048828125, -0.86572265625
575, 958106559, -5.545740127563477, -1.978959321975708, 7.6829915046691895, -0.6043829321861267, -1.8460736274719238, -1.9334259033203125, 0.290771484375, 0.300048828125, -0.86572265625
576, 958123226, -5.542914390563965, -1.9849231243133545, 7.721333980560303, -0.613398551940918, -1.848199725151062, -2.0296273231506348, 0.290771484375, 0.300048828125, -0.865234375
577, 958139893, -5.526764869689941, -1.9892336130142212, 7.726297378540039, -0.7074995636940002, -1.7294461727142334, -2.196058750152588, 0.289306640625, 0.302734375, -0.86767578125
578, 958156560, -5.526602745056152, -1.9983172416687012, 7.687009811401367, -0.7600440382957458, -1.7223386764526367, -2.250664710998535, 0.290283203125, 0.300537109375, -0.8671875
579, 958173227, -5.494004726409912, -2.004025936126709, 7.702000141143799, -0.6253980994224548, -1.7239269018173218, -2.2079427242279053, 0.290771484375, 0.300537109375, -0.86669921875
580, 958189894, -5.492671489715576, -2.040834903717041, 7.705788612365723, -0.3927707076072693, -1.5072559118270874, -2.0166797637939453, 0.291259765625, 0.298095703125, -0.86572265625
581, 958206561, -5.511734485626221, -2.0395145416259766, 7.717530727386475, -0.40806153416633606, -1.382944941520691, -1.7530741691589355, 0.288330078125, 0.299072265625, -0.8662109375
582, 958223228, -5.5057549476623535, -2.0104639530181885, 7.718374252319336, -0.30389466881752014, -1.20343816280365, -1.3436548709869385, 0.289794921875, 0.3017578125, -0.86767578125
583, 958239895, -5.519262790679932, -2.008791446685791, 7.733522891998291, -0.29614678025245667, -1.2063707113265991, -1.371470332145691, 0.288330078125, 0.299072265625, -0.86474609375
584, 958256562, -5.504943370819092, -2.0032784938812256, 7.7183732986450195, -0.13829576969146729, -1.1493442058563232, -1.3853780031204224, 0.288818359375, 0.300537109375, -0.86572265625
585, 958273229, -5.486370086669922, -2.0098156929016113, 7.71376371383667, -0.05789751186966896, -1.1866620779037476, -1.2879091501235962, 0.288818359375, 0.3017578125, -0.86669921875
586, 958289896, -5.510087490081787, -1.9833498001098633, 7.694034099578857, -0.02275688573718071, -1.0303733348846436, -1.2591971158981323, 0.288818359375, 0.299560546875, -0.8662109375
587, 958306563, -5.508355617523193, -1.9756522178649902, 7.720606803894043, -0.04822871461510658, -0.7832491993904114, -1.4020648002624512, 0.288818359375, 0.297607421875, -0.86767578125
588, 958323230, -5.509481906890869, -1.9897687435150146, 7.738100528717041, -0.09599640220403671, -0.6886613965034485, -1.5776782035827637, 0.289794921875, 0.298583984375, -0.8671875
589, 958339897, -5.495718955993652, -1.998949408531189, 7.720887184143066, -0.16965851187705994, -0.2986312806606293, -1.5872446298599243, 0.290283203125, 0.298583984375, -0.8671875
590, 958356564, -5.519584655761719, -1.996711015701294, 7.717462539672852, -0.1346331536769867, 0.008778753690421581, -1.605788230895996, 0.288818359375, 0.299560546875, -0.86767578125
591, 958373231, -5.522888660430908, -1.9790172576904297, 7.723372459411621, -0.26870280504226685, -0.03786837309598923, -1.5197935104370117, 0.291259765625, 0.300048828125, -0.8662109375
592, 958389898, -5.526010513305664, -1.9558221101760864, 7.6986589431762695, -0.2356240600347519, -0.13520945608615875, -1.7104545831680298, 0.286865234375, 0.30224609375, -0.867431640625
593, 958406565, -5.528435707092285, -1.9802613258361816, 7.7078962326049805, -0.21814335882663727, -0.2545006275177002, -1.8828918933868408, 0.288330078125, 0.300048828125, -0.86767578125
594, 958423232, -5.538336753845215, -1.9651871919631958, 7.700182914733887, -0.25168317556381226, -0.5661559104919434, -1.9731637239456177, 0.289306640625, 0.300048828125, -0.8671875
595, 958439899, -5.535273551940918, -1.977392554283142, 7.684431552886963, -0.17019638419151306, -0.9665592908859253, -2.0778048038482666, 0.290283203125, 0.300048828125, -0.86767578125
596, 958456566, -5.532186985015869, -1.9950153827667236, 7.693337917327881, -0.10142628848552704, -1.2744495868682861, -2.120142698287964, 0.291259765625, 0.301025390625, -0.86865234375
597, 958473233, -5.522636890411377, -1.9875373840332031, 7.710444450378418, -0.0012806350132450461, -1.3302850723266602, -2.026771068572998, 0.288330078125, 0.298583984375, -0.868896484375
598, 958489900, -5.489448547363281, -1.986158847808838, 7.724428176879883, 0.2252572923898697, -1.4118616580963135, -2.005615234375, 0.288330078125, 0.296875, -0.869873046875
599, 958506567, -5.51019811630249, -2.01408314704895, 7.715445518493652, 0.3178984522819519, -1.4222477674484253, -1.64949631690979, 0.289794921875, 0.298583984375, -0.86865234375
600, 958523234, -5.488831520080566, -1.982224464416504, 7.736080169677734, 0.15419486165046692, -1.3530164957046509, -1.6669642925262451, 0.288818359375, 0.298583984375, -0.86767578125
601, 958539901, -5.499969482421875, -1.9777090549468994, 7.726310729980469, 0.1747618317604065, -1.1561188697814941, -1.6534533500671387, 0.29052734375, 0.296630859375, -0.86669921875
602, 958556568, -5.521315574645996, -1.955880045890808, 7.748085021972656, -0.03885446861386299, -1.192399263381958, -1.8446522951126099, 0.286865234375, 0.298095703125, -0.868896484375
603, 958573235, -5.513786315917969, -1.9683570861816406, 7.734157085418701, -0.09754597395658493, -1.226528286933899, -1.8677805662155151, 0.288818359375, 0.298095703125, -0.870361328125
604, 958589902, -5.5276265144348145, -1.9843978881835938, 7.717851638793945, 0.012044372968375683, -1.3849555253982544, -1.9542872905731201, 0.287841796875, 0.298095703125, -0.868896484375
605, 958606569, -5.50940465927124, -1.9786161184310913, 7.709990501403809, -0.016801932826638222, -1.7688387632369995, -1.9930524826049805, 0.287841796875, 0.300048828125, -0.868896484375
606, 958623236, -5.503086566925049, -1.9853403568267822, 7.716904640197754, 0.12849251925945282, -1.833152174949646, -1.9342968463897705, 0.285400390625, 0.299560546875, -0.869384765625
607, 958639903, -5.483870506286621, -1.9897964000701904, 7.73918342590332, 0.07894474267959595, -1.8193596601486206, -1.796013593673706, 0.286865234375, 0.297607421875, -0.870361328125
608, 958656570, -5.486599922180176, -1.9719915390014648, 7.737604141235352, -0.0387648269534111, -1.5543580055236816, -1.9023449420928955, 0.285400390625, 0.298583984375, -0.871337890625
609, 958673237, -5.477968692779541, -1.9841804504394531, 7.757283687591553, -0.17639467120170593, -1.3751459121704102, -1.8985539674758911, 0.286376953125, 0.29736328125, -0.869873046875
610, 958689904, -5.488588809967041, -1.9780688285827637, 7.736819744110107, -0.2615440785884857, -1.2484015226364136, -1.8541675806045532, 0.285400390625, 0.2958984375, -0.871826171875
611, 958706571, -5.477740287780762, -1.9647489786148071, 7.751728057861328, -0.18164527416229248, -1.2955290079116821, -1.8393889665603638, 0.287353515625, 0.299072265625, -0.871337890625
612, 958723238, -5.487720012664795, -1.9694277048110962, 7.747971534729004, -0.24189913272857666, -1.089986801147461, -1.8294382095336914, 0.285888671875, 0.299072265625, -0.869384765625
613, 958739905, -5.466500282287598, -1.9797347784042358, 7.73492956161499, -0.2715330421924591, -1.1148183345794678, -1.8915619850158691, 0.286865234375, 0.298095703125, -0.868408203125
614, 958756572, -5.474098205566406, -1.9801980257034302, 7.775688171386719, -0.27104637026786804, -0.9930556416511536, -1.860109567642212, 0.286376953125, 0.298583984375, -0.869873046875
615, 958773239, -5.484558582305908, -1.986985206604004, 7.748248100280762, -0.2918311059474945, -1.0968767404556274, -1.9038432836532593, 0.286865234375, 0.297607421875, -0.8662109375
616, 958789906, -5.484884738922119, -1.9757481813430786, 7.735170364379883, -0.27382537722587585, -1.105725884437561, -1.943171501159668, 0.28466796875, 0.297607421875, -0.866943359375
617, 958806573, -5.4749555587768555, -1.9642565250396729, 7.749905586242676, -0.2617361843585968, -1.1735867261886597, -1.921259880065918, 0.285888671875, 0.299560546875, -0.869873046875
618, 958823240, -5.458588123321533, -1.976940393447876, 7.7414326667785645, -0.39419227838516235, -1.043999195098877, -1.972408413887024, 0.284423828125, 0.297607421875, -0.868408203125
619, 958839907, -5.455091953277588, -1.9846434593200684, 7.744771957397461, -0.41856274008750916, -0.7802524566650391, -1.8630805015563965, 0.285888671875, 0.296875, -0.870849609375
620, 958856574, -5.482259273529053, -1.98971688747406, 7.7672529220581055, -0.5124076008796692, -0.5298883318901062, -1.905072569847107, 0.287841796875, 0.29736328125, -0.871826171875
621, 958873241, -5.456718921661377, -1.9725857973098755, 7.752738952636719, -0.6582719087600708, -0.5080022215843201, -1.8768984079360962, 0.286376953125, 0.300048828125, -0.869873046875
622, 958889908, -5.4775238037109375, -1.975466251373291, 7.754331588745117, -0.5273911356925964, -0.45689210295677185, -1.8963642120361328, 0.286376953125, 0.299072265625, -0.869873046875
623, 958906575, -5.484771728515625, -1.9699146747589111, 7.698549270629883, -0.5253292322158813, -0.6040883660316467, -1.9232831001281738, 0.284912109375, 0.298095703125, -0.870849609375
624, 958923242, -5.473658561706543, -2.00235915184021, 7.736789703369141, -0.522063672542572, -0.8237684965133667, -1.9114246368408203, 0.284912109375, 0.298095703125, -0.869384765625
625, 958939909, -5.472120761871338, -1.9943991899490356, 7.772613525390625, -0.498935341835022, -0.7980788946151733, -1.8853510618209839, 0.285888671875, 0.296875, -0.869384765625
626, 958956576, -5.47905969619751, -1.9750323295593262, 7.758918762207031, -0.46084925532341003, -0.617330014705658, -1.8175792694091797, 0.284423828125, 0.299072265625, -0.87109375
627, 958973243, -5.497221946716309, -1.9784208536148071, 7.732046127319336, -0.49554169178009033, -0.6263457536697388, -1.8028265237808228, 0.285888671875, 0.297607421875, -0.870849609375
628, 958989910, -5.482751369476318, -1.9944419860839844, 7.752753257751465, -0.44331738352775574, -0.7037857174873352, -1.734453558921814, 0.286376953125, 0.299072265625, -0.871826171875
629, 959006577, -5.47802209854126, -1.9826394319534302, 7.750107288360596, -0.360473096370697, -0.7317290902137756, -1.821523904800415, 0.285400390625, 0.298095703125, -0.870361328125
630, 959023244, -5.475008010864258, -1.983373761177063, 7.745140552520752, -0.39337262511253357, -0.7436006665229797, -1.6786178350448608, 0.285400390625, 0.300048828125, -0.870361328125
631, 959039911, -5.464061737060547, -1.9856133460998535, 7.744074821472168, -0.2716354727745056, -0.7798042297363281, -1.7447242736816406, 0.2841796875, 0.300048828125, -0.869384765625
632, 959056578, -5.466076850891113, -1.9935249090194702, 7.731482028961182, -0.30368971824645996, -0.8930890560150146, -1.7732692956924438, 0.28369140625, 0.298095703125, -0.870849609375
633, 959073245, -5.460648536682129, -1.987524390220642, 7.750370502471924, -0.28982049226760864, -0.7991802096366882, -1.721083641052246, 0.283203125, 0.29736328125, -0.868408203125
634, 959089912, -5.480051517486572, -1.9881559610366821, 7.770349979400635, -0.2605323791503906, -0.760133683681488, -1.6368306875228882, 0.2841796875, 0.299072265625, -0.870361328125
635, 959106579, -5.4628987312316895, -1.976318597793579, 7.751733303070068, -0.2992716133594513, -0.6968062520027161, -1.710479974746704, 0.285888671875, 0.300537109375, -0.87255859375
636, 959123246, -5.4757795333862305, -1.9910458326339722, 7.754343032836914, -0.3599824905395508, -0.5453014969825745, -1.6937414407730103, 0.284912109375, 0.298095703125, -0.870849609375
637, 959139913, -5.465188503265381, -1.9833372831344604, 7.731895923614502, -0.3660951554775238, -0.4869871139526367, -1.6332963705062866, 0.284912109375, 0.300048828125, -0.8720703125
638, 959156580, -5.484776973724365, -1.9822828769683838, 7.744637489318848, -0.37021878361701965, -0.470313161611557, -1.595184564590454, 0.28466796875, 0.299560546875, -0.868408203125
639, 959173247, -5.478188514709473, -1.9905734062194824, 7.751035213470459, -0.238185316324234, -0.5878243446350098, -1.5942754745483398, 0.283935546875, 0.298095703125, -0.87109375
640, 959189914, -5.470888137817383, -1.9767898321151733, 7.7390899658203125, -0.20985767245292664, -0.6987656950950623, -1.6208997964859009, 0.283203125, 0.2978515625, -0.870361328125
641, 959206581, -5.484930515289307, -1.9868738651275635, 7.717364311218262, -0.2392994463443756, -0.877683162689209, -1.678118348121643, 0.28466796875, 0.298095703125, -0.867919921875
642, 959223248, -5.460262775421143, -1.9811029434204102, 7.772213459014893, -0.21385322511196136, -0.9759078025817871, -1.6695510149002075, 0.285400390625, 0.298583984375, -0.868896484375
643, 959239915, -5.476691246032715, -1.969786286354065, 7.76206111907959, -0.30541861057281494, -0.8334500193595886, -1.769235610961914, 0.287841796875, 0.297607421875, -0.871337890625
644, 959256582, -5.466620445251465, -1.988464593887329, 7.7240118980407715, -0.33101847767829895, -0.7553696036338806, -1.712349772453308, 0.2841796875, 0.299072265625, -0.869873046875
645, 959273249, -5.463175296783447, -1.9832764863967896, 7.752305507659912, -0.2648096978664398, -0.7261583805084229, -1.7166911363601685, 0.284912109375, 0.29736328125, -0.871826171875
646, 959289916, -5.456607818603516, -1.986313819885254, 7.733516693115234, -0.15858103334903717, -0.7232257723808289, -1.6428112983703613, 0.284912109375, 0.298583984375, -0.869873046875
647, 959306583, -5.454434871673584, -1.9839558601379395, 7.7457075119018555, -0.2035057246685028, -0.6976131796836853, -1.5152089595794678, 0.28369140625, 0.29736328125, -0.870849609375
