sep=,
DeviceTag:,A,,,,,,,,,,,,,,,,,
FirmwareVersion:,2.2.1,,,,,,,,,,,,,,,,,
AppVersion:,2022.0.1,,,,,,,,,,,,,,,,,
SyncStatus:,Synced,,,,,,,,,,,,,,,,,
OutputRate:,60Hz,,,,,,,,,,,,,,,,,
FilterProfile:,General,,,,,,,,,,,,,,,,,
Measurement Mode:,Inertial Mode - Rate quantities (with mag),,,,,,,,,,,,,,,,,
StartTime:,2022-08-16 15:14:37.995 +0300,,,,,,,,,,,,,,,,,
© Xsens Technologies B. V. 2005-2022,,,,,,,,,,,,,,,,,,,

PacketCounter,SampleTimeFine,Acc_X,Acc_Y,Acc_Z,Gyr_X,Gyr_Y,Gyr_Z,Mag_X,Mag_Y,Mag_Z
1, 300793413, -5.338505744934082, 1.9356848001480103, 8.088221549987793, -2.582720994949341, -1.7430086135864258, -2.310509204864502, 0.762939453125, -0.143310546875, -0.59765625
2, 300810080, -5.332603931427002, 1.9482022523880005, 8.092167854309082, -2.5654449462890625, -1.697904348373413, -2.2271909713745117, 0.762939453125, -0.142333984375, -0.59765625
3, 300826747, -5.3279924392700195, 1.9583373069763184, 8.073159217834473, -2.51608943939209, -1.8782819509506226, -2.1965324878692627, 0.762451171875, -0.142822265625, -0.59765625
4, 300843414, -5.315426349639893, 1.9470378160476685, 8.079806327819824, -2.4933838844299316, -1.837314248085022, -2.1889255046844482, 0.762451171875, -0.140869140625, -0.596435546875
5, 300860081, -5.318039894104004, 1.9215607643127441, 8.100237846374512, -2.4866089820861816, -1.6784131526947021, -2.180934190750122, 0.762451171875, -0.1435546875, -0.59716796875
6, 300876748, -5.313148021697998, 1.9454944133758545, 8.094022750854492, -2.4272258281707764, -1.5772556066513062, -2.1490461826324463, 0.763916015625, -0.140869140625, -0.59814453125
7, 300893415, -5.323795795440674, 1.9468324184417725, 8.083011627197266, -2.4361138343811035, -1.6358064413070679, -2.1120617389678955, 0.762939453125, -0.142333984375, -0.595947265625
8, 300910082, -5.323810577392578, 1.9403536319732666, 8.0604887008667, -2.4684879779815674, -1.7244518995285034, -2.1118056774139404, 0.763427734375, -0.141845703125, -0.599609375
9, 300926749, -5.341734886169434, 1.944270133972168, 8.081543922424316, -2.3432161808013916, -1.7518701553344727, -2.195162057876587, 0.761962890625, -0.14453125, -0.595947265625
10, 300943416, -5.313151836395264, 1.9557082653045654, 8.084820747375488, -2.3393871784210205, -1.800944209098816, -2.2855494022369385, 0.762451171875, -0.142333984375, -0.59716796875
11, 300960083, -5.331028461456299, 1.9514026641845703, 8.103928565979004, -2.267082452774048, -1.6830744743347168, -2.0480167865753174, 0.762939453125, -0.140869140625, -0.596923828125
12, 300976750, -5.320878028869629, 1.9669567346572876, 8.073687553405762, -2.2596163749694824, -1.584862470626831, -2.2254233360290527, 0.7646484375, -0.140869140625, -0.594970703125
13, 300993417, -5.328207492828369, 1.8943156003952026, 8.079209327697754, -2.11922025680542, -1.6214120388031006, -2.0803017616271973, 0.761962890625, -0.14453125, -0.599609375
14, 301010084, -5.3335280418396, 1.9572030305862427, 8.06840705871582, -2.1294140815734863, -1.7246054410934448, -1.879370093345642, 0.765625, -0.14306640625, -0.595947265625
15, 301026751, -5.327721118927002, 1.9585336446762085, 8.0777006149292, -2.1343700885772705, -1.839862585067749, -1.862068772315979, 0.763427734375, -0.14306640625, -0.59765625
16, 301043418, -5.315638065338135, 1.969130039215088, 8.084189414978027, -2.34438157081604, -2.0357484817504883, -1.9581292867660522, 0.762939453125, -0.143310546875, -0.59765625
17, 301060085, -5.309532165527344, 1.9602606296539307, 8.09560775756836, -2.3640010356903076, -2.060093402862549, -1.9170722961425781, 0.763916015625, -0.142822265625, -0.597412109375
18, 301076752, -5.309787750244141, 1.9575825929641724, 8.098611831665039, -2.3251209259033203, -2.0553553104400635, -1.890921711921692, 0.763916015625, -0.139892578125, -0.5986328125
19, 301093419, -5.314823150634766, 1.9543235301971436, 8.097749710083008, -2.4437973499298096, -2.046761989593506, -1.8476874828338623, 0.762939453125, -0.142333984375, -0.596435546875
20, 301110086, -5.302882194519043, 1.964922308921814, 8.090088844299316, -2.3369152545928955, -1.8955060243606567, -1.778430461883545, 0.76513671875, -0.14599609375, -0.59912109375
21, 301126753, -5.302424430847168, 1.9714642763137817, 8.064508438110352, -2.3445093631744385, -1.7183175086975098, -2.0159754753112793, 0.762939453125, -0.14453125, -0.595458984375
22, 301143420, -5.306283950805664, 1.9590719938278198, 8.091400146484375, -2.443669319152832, -1.5986038446426392, -2.0481069087982178, 0.763427734375, -0.141845703125, -0.596435546875
23, 301160087, -5.30631685256958, 1.9630420207977295, 8.110859870910645, -2.5034492015838623, -1.6232047080993652, -2.173365592956543, 0.763427734375, -0.14453125, -0.59814453125
24, 301176754, -5.305280685424805, 1.9707976579666138, 8.08281421661377, -2.5920562744140625, -1.52044677734375, -2.2922470569610596, 0.760986328125, -0.14453125, -0.59716796875
25, 301193421, -5.298312664031982, 1.973984956741333, 8.076723098754883, -2.753070831298828, -1.5859898328781128, -2.393378973007202, 0.763916015625, -0.141845703125, -0.596923828125
26, 301210088, -5.312439441680908, 1.9444942474365234, 8.09123420715332, -2.7013585567474365, -1.6379194259643555, -2.3400659561157227, 0.762939453125, -0.141845703125, -0.59912109375
27, 301226755, -5.333103179931641, 1.9259551763534546, 8.094085693359375, -2.6527462005615234, -1.655694842338562, -2.246439218521118, 0.763916015625, -0.142822265625, -0.5986328125
28, 301243422, -5.3365092277526855, 1.9318797588348389, 8.080485343933105, -2.715061902999878, -1.8859785795211792, -2.115814208984375, 0.762451171875, -0.14404296875, -0.596923828125
29, 301260089, -5.3301191329956055, 1.9425095319747925, 8.083904266357422, -2.633946418762207, -2.199747085571289, -2.0557267665863037, 0.760986328125, -0.143798828125, -0.596923828125
30, 301276756, -5.313811779022217, 1.9471629858016968, 8.065804481506348, -2.5751781463623047, -2.2031538486480713, -2.043023109436035, 0.763427734375, -0.141357421875, -0.59716796875
31, 301293423, -5.298985004425049, 1.9614863395690918, 8.085320472717285, -2.656625986099243, -2.38989520072937, -2.0146052837371826, 0.760498046875, -0.142822265625, -0.59814453125
32, 301310090, -5.306545257568359, 1.9637932777404785, 8.098605155944824, -2.7309796810150146, -2.312506675720215, -2.0604262351989746, 0.760986328125, -0.143310546875, -0.5986328125
33, 301326757, -5.3164167404174805, 1.9325100183486938, 8.09768009185791, -2.7761480808258057, -2.1069650650024414, -2.092071056365967, 0.760986328125, -0.143798828125, -0.5986328125
34, 301343424, -5.2857465744018555, 1.944103479385376, 8.094917297363281, -2.718390941619873, -2.2688753604888916, -2.129964590072632, 0.761962890625, -0.142822265625, -0.59912109375
35, 301360091, -5.291388511657715, 1.964382529258728, 8.099908828735352, -2.7841262817382812, -2.0414600372314453, -2.251368999481201, 0.760009765625, -0.142822265625, -0.596435546875
36, 301376758, -5.287022590637207, 1.9320875406265259, 8.106982231140137, -2.663400888442993, -1.813148856163025, -2.2617552280426025, 0.762451171875, -0.142333984375, -0.60107421875
37, 301393425, -5.300693511962891, 1.9453318119049072, 8.06908893585205, -2.705213785171509, -1.9181609153747559, -2.2107861042022705, 0.762451171875, -0.141357421875, -0.59912109375
38, 301410092, -5.289144515991211, 1.9432533979415894, 8.102834701538086, -2.797739267349243, -1.8665252923965454, -2.352142333984375, 0.760986328125, -0.14453125, -0.599609375
39, 301426759, -5.274786472320557, 1.9406344890594482, 8.133576393127441, -2.6750805377960205, -1.6816531419754028, -2.3384013175964355, 0.761962890625, -0.140869140625, -0.599609375
40, 301443426, -5.291720390319824, 1.9184931516647339, 8.100111961364746, -2.6330502033233643, -1.4736781120300293, -2.357956886291504, 0.761474609375, -0.143310546875, -0.602783203125
41, 301460093, -5.292616367340088, 1.9280107021331787, 8.094547271728516, -2.467207431793213, -1.3612126111984253, -2.3726582527160645, 0.761962890625, -0.140869140625, -0.60107421875
42, 301476760, -5.302113056182861, 1.9525744915008545, 8.072699546813965, -2.3876800537109375, -1.3917430639266968, -2.361311674118042, 0.760498046875, -0.142822265625, -0.6005859375
43, 301493427, -5.308075904846191, 1.9378186464309692, 8.096171379089355, -2.5267701148986816, -1.45640230178833, -2.5292928218841553, 0.762451171875, -0.142333984375, -0.59765625
44, 301510094, -5.312624454498291, 1.9566584825515747, 8.100228309631348, -2.5396788120269775, -1.6170196533203125, -2.560783624649048, 0.760498046875, -0.142333984375, -0.599609375
45, 301526761, -5.300225734710693, 1.9474713802337646, 8.079413414001465, -2.6085383892059326, -1.603521704673767, -2.494741439819336, 0.762939453125, -0.142333984375, -0.59912109375
46, 301543428, -5.3028883934021, 1.9462494850158691, 8.107949256896973, -2.675349235534668, -1.5391185283660889, -2.4902079105377197, 0.760009765625, -0.141357421875, -0.59912109375
47, 301560095, -5.2965168952941895, 1.9325546026229858, 8.105438232421875, -2.764545440673828, -1.5869503021240234, -2.5287420749664307, 0.763427734375, -0.142333984375, -0.5986328125
48, 301576762, -5.2904510498046875, 1.9360226392745972, 8.086662292480469, -2.5768301486968994, -1.5032479763031006, -2.4878132343292236, 0.761962890625, -0.143310546875, -0.5986328125
49, 301593429, -5.295832633972168, 1.925223469734192, 8.082552909851074, -2.6326916217803955, -1.4400614500045776, -2.472944974899292, 0.762939453125, -0.140869140625, -0.59912109375
50, 301610096, -5.297518730163574, 1.9208006858825684, 8.08510971069336, -2.6961982250213623, -1.4390754699707031, -2.400063991546631, 0.761962890625, -0.141845703125, -0.59716796875
51, 301626763, -5.29669189453125, 1.9216212034225464, 8.11208724975586, -2.626659631729126, -1.6140871047973633, -2.3574957847595215, 0.763427734375, -0.140380859375, -0.60009765625
52, 301643430, -5.2957353591918945, 1.914711594581604, 8.094402313232422, -2.6496214866638184, -1.5167204141616821, -2.4568984508514404, 0.760009765625, -0.139892578125, -0.5986328125
53, 301660097, -5.288519382476807, 1.9370189905166626, 8.098052978515625, -2.548271894454956, -1.4996109008789062, -2.33453369140625, 0.762451171875, -0.142822265625, -0.60009765625
54, 301676764, -5.302242279052734, 1.9334896802902222, 8.077863693237305, -2.509340524673462, -1.5253772735595703, -2.4262783527374268, 0.760009765625, -0.142333984375, -0.5966796875
55, 301693431, -5.301565647125244, 1.9247493743896484, 8.100479125976562, -2.510774612426758, -1.475048303604126, -2.395287036895752, 0.7587890625, -0.142333984375, -0.60107421875
56, 301710098, -5.307254314422607, 1.9300403594970703, 8.091382026672363, -2.496328830718994, -1.3412859439849854, -2.433091163635254, 0.763427734375, -0.140380859375, -0.60009765625
57, 301726765, -5.315751552581787, 1.9243115186691284, 8.098901748657227, -2.4962010383605957, -1.3149176836013794, -2.5501925945281982, 0.760498046875, -0.140869140625, -0.59814453125
58, 301743432, -5.312884330749512, 1.9287444353103638, 8.078511238098145, -2.3577640056610107, -1.3023672103881836, -2.461188316345215, 0.761962890625, -0.140869140625, -0.6005859375
59, 301760099, -5.307188034057617, 1.9222588539123535, 8.097583770751953, -2.4403274059295654, -1.3537466526031494, -2.5958988666534424, 0.762451171875, -0.143310546875, -0.599609375
60, 301776766, -5.310409069061279, 1.9162230491638184, 8.087228775024414, -2.414073944091797, -1.2602986097335815, -2.598395824432373, 0.761962890625, -0.139404296875, -0.60009765625
61, 301793433, -5.313542366027832, 1.9354252815246582, 8.096159934997559, -2.410475254058838, -1.312177062034607, -2.486839532852173, 0.761474609375, -0.141845703125, -0.59814453125
62, 301810100, -5.334809303283691, 1.9291099309921265, 8.09583854675293, -2.494664192199707, -1.3653234243392944, -2.4764022827148438, 0.760009765625, -0.138916015625, -0.599609375
63, 301826767, -5.312702178955078, 1.904150128364563, 8.078624725341797, -2.4111411571502686, -1.503696084022522, -2.3603384494781494, 0.76513671875, -0.139404296875, -0.59814453125
64, 301843434, -5.297610282897949, 1.9488874673843384, 8.09488296508789, -2.4133951663970947, -1.4914275407791138, -2.421975612640381, 0.763427734375, -0.141845703125, -0.599609375
65, 301860101, -5.311239242553711, 1.925665020942688, 8.105721473693848, -2.4805901050567627, -1.4602314233779907, -2.4200031757354736, 0.762939453125, -0.140380859375, -0.59765625
66, 301876768, -5.317922115325928, 1.8974653482437134, 8.12786865234375, -2.426252841949463, -1.4133985042572021, -2.346571683883667, 0.762451171875, -0.141357421875, -0.60009765625
67, 301893435, -5.323602676391602, 1.9408950805664062, 8.11343765258789, -2.5388076305389404, -1.4174964427947998, -2.3439464569091797, 0.763427734375, -0.140380859375, -0.6005859375
68, 301910102, -5.320549488067627, 1.914448857307434, 8.09936237335205, -2.4583323001861572, -1.4136033058166504, -2.423755168914795, 0.764404296875, -0.139404296875, -0.599609375
69, 301926769, -5.309691429138184, 1.8993089199066162, 8.065893173217773, -2.438149929046631, -1.3952134847640991, -2.353013277053833, 0.7646484375, -0.138427734375, -0.59716796875
70, 301943436, -5.3137993812561035, 1.923259973526001, 8.070855140686035, -2.404711961746216, -1.4843326807022095, -2.298701047897339, 0.762939453125, -0.141357421875, -0.59765625
71, 301960103, -5.314923286437988, 1.9159611463546753, 8.07045841217041, -2.4511353969573975, -1.473844289779663, -2.2600901126861572, 0.762451171875, -0.139404296875, -0.59765625
72, 301976770, -5.311873435974121, 1.9188321828842163, 8.062444686889648, -2.568403482437134, -1.576436161994934, -2.20070743560791, 0.763427734375, -0.142333984375, -0.597412109375
73, 301993437, -5.31504487991333, 1.9201850891113281, 8.080567359924316, -2.428570508956909, -1.5900235176086426, -2.2986245155334473, 0.761962890625, -0.140380859375, -0.60009765625
74, 302010104, -5.305214881896973, 1.9211385250091553, 8.08797550201416, -2.496610641479492, -1.4374231100082397, -2.3531668186187744, 0.763916015625, -0.138916015625, -0.59814453125
75, 302026771, -5.3205742835998535, 1.9134682416915894, 8.084675788879395, -2.43188738822937, -1.3484318256378174, -2.385720729827881, 0.763427734375, -0.138427734375, -0.59716796875
76, 302043438, -5.321529388427734, 1.8994373083114624, 8.108622550964355, -2.43483304977417, -1.3496997356414795, -2.3230977058410645, 0.762451171875, -0.138916015625, -0.5986328125
77, 302060105, -5.3074188232421875, 1.9369838237762451, 8.094858169555664, -2.4012930393218994, -1.2464677095413208, -2.279376745223999, 0.763427734375, -0.138916015625, -0.59912109375
78, 302076772, -5.317332744598389, 1.927825689315796, 8.10175895690918, -2.452915668487549, -1.1677086353302002, -2.448228359222412, 0.762451171875, -0.137451171875, -0.59765625
79, 302093439, -5.323930740356445, 1.8772748708724976, 8.097413063049316, -2.4900925159454346, -1.2441881895065308, -2.428135395050049, 0.762451171875, -0.139892578125, -0.59912109375
80, 302110106, -5.325220108032227, 1.9204883575439453, 8.084332466125488, -2.428007125854492, -1.3101153373718262, -2.308997869491577, 0.763427734375, -0.138427734375, -0.59716796875
81, 302126773, -5.320591926574707, 1.9132624864578247, 8.085000991821289, -2.328463315963745, -1.3392112255096436, -2.3099069595336914, 0.76416015625, -0.138427734375, -0.596923828125
82, 302143440, -5.32975435256958, 1.9184812307357788, 8.101306915283203, -2.410475492477417, -1.3998878002166748, -2.3598904609680176, 0.762451171875, -0.140869140625, -0.5986328125
83, 302160107, -5.329003810882568, 1.8951526880264282, 8.07991886138916, -2.3043103218078613, -1.3975825309753418, -2.3037214279174805, 0.762939453125, -0.140380859375, -0.599609375
84, 302176774, -5.336451053619385, 1.8991003036499023, 8.069823265075684, -2.282130002975464, -1.4099150896072388, -2.185915946960449, 0.762939453125, -0.140380859375, -0.59716796875
85, 302193441, -5.327319622039795, 1.9184907674789429, 8.06237506866455, -2.171841621398926, -1.433068871498108, -2.153823137283325, 0.763916015625, -0.139892578125, -0.599609375
86, 302210108, -5.305521011352539, 1.920599341392517, 8.080747604370117, -2.3008017539978027, -1.4348235130310059, -2.175196886062622, 0.7646484375, -0.138916015625, -0.59765625
87, 302226775, -5.329257965087891, 1.9293267726898193, 8.092927932739258, -2.2644569873809814, -1.4670442342758179, -2.188246250152588, 0.76513671875, -0.138427734375, -0.59765625
88, 302243442, -5.320234775543213, 1.9051460027694702, 8.074796676635742, -2.3093175888061523, -1.4384602308273315, -2.1465232372283936, 0.761962890625, -0.139404296875, -0.596435546875
89, 302260109, -5.3093132972717285, 1.9208548069000244, 8.080891609191895, -2.188668966293335, -1.4840892553329468, -2.145524501800537, 0.763916015625, -0.141357421875, -0.59765625
90, 302276776, -5.353364944458008, 1.9174160957336426, 8.10302448272705, -2.201603412628174, -1.5698151588439941, -2.199669599533081, 0.763916015625, -0.139892578125, -0.60009765625
91, 302293443, -5.318573951721191, 1.907462477684021, 8.076312065124512, -2.2171120643615723, -1.6255995035171509, -2.1119844913482666, 0.761962890625, -0.139892578125, -0.59912109375
92, 302310110, -5.317622184753418, 1.9182676076889038, 8.072430610656738, -2.165041208267212, -1.8307318687438965, -2.142476797103882, 0.761474609375, -0.141357421875, -0.599609375
93, 302326777, -5.304253101348877, 1.9180442094802856, 8.096086502075195, -2.238114595413208, -1.6485100984573364, -2.0493359565734863, 0.763916015625, -0.138427734375, -0.59912109375
94, 302343444, -5.335515975952148, 1.9070870876312256, 8.088441848754883, -2.1685631275177, -1.5955302715301514, -2.1002414226531982, 0.761962890625, -0.139892578125, -0.596435546875
95, 302360111, -5.337578296661377, 1.908587098121643, 8.089584350585938, -2.157357692718506, -1.6980193853378296, -2.0324699878692627, 0.763916015625, -0.141357421875, -0.5986328125
96, 302376778, -5.325867176055908, 1.9424755573272705, 8.080988883972168, -2.1827657222747803, -1.837903618812561, -2.080007314682007, 0.763916015625, -0.139892578125, -0.59814453125
97, 302393445, -5.328835487365723, 1.9245127439498901, 8.079792976379395, -2.340104341506958, -1.7156540155410767, -2.177271604537964, 0.763916015625, -0.140380859375, -0.599609375
98, 302410112, -5.348977565765381, 1.9211584329605103, 8.114741325378418, -2.3195245265960693, -1.6462308168411255, -2.1268913745880127, 0.762451171875, -0.140380859375, -0.5986328125
99, 302426779, -5.324686527252197, 1.9158462285995483, 8.10094165802002, -2.2967422008514404, -1.6717793941497803, -1.9892488718032837, 0.762939453125, -0.140380859375, -0.59765625
100, 302443446, -5.334090709686279, 1.9079296588897705, 8.092464447021484, -2.2559921741485596, -1.815043568611145, -2.0229549407958984, 0.760986328125, -0.140380859375, -0.59716796875
101, 302460113, -5.330255031585693, 1.926270842552185, 8.083357810974121, -2.2734858989715576, -1.9992763996124268, -2.0177299976348877, 0.762451171875, -0.1435546875, -0.599609375
102, 302476780, -5.312166690826416, 1.9294592142105103, 8.067893028259277, -2.344996690750122, -2.0733096599578857, -1.9116166830062866, 0.761962890625, -0.138427734375, -0.599609375
103, 302493447, -5.314899921417236, 1.9044981002807617, 8.075604438781738, -2.3957221508026123, -2.104288339614868, -2.0017478466033936, 0.763916015625, -0.140869140625, -0.59765625
104, 302510114, -5.32594633102417, 1.9161429405212402, 8.115331649780273, -2.315234661102295, -1.9764422178268433, -1.9741244316101074, 0.761962890625, -0.141357421875, -0.59814453125
105, 302526781, -5.321474075317383, 1.9430943727493286, 8.088233947753906, -2.352731466293335, -2.089176893234253, -1.876578450202942, 0.764404296875, -0.140869140625, -0.59765625
106, 302543448, -5.31396484375, 1.9264748096466064, 8.11316204071045, -2.453888416290283, -1.9300320148468018, -2.012056827545166, 0.763427734375, -0.140869140625, -0.59814453125
107, 302560115, -5.336621284484863, 1.9190642833709717, 8.101841926574707, -2.4724323749542236, -1.8237011432647705, -2.0781633853912354, 0.76416015625, -0.140869140625, -0.595458984375
108, 302576782, -5.318166732788086, 1.924078106880188, 8.103521347045898, -2.3546009063720703, -1.7829638719558716, -2.0858981609344482, 0.7646484375, -0.141357421875, -0.59765625
109, 302593449, -5.304870128631592, 1.9038726091384888, 8.093417167663574, -2.4334497451782227, -1.7789685726165771, -2.1270196437835693, 0.763916015625, -0.139892578125, -0.5986328125
110, 302610116, -5.3322625160217285, 1.9020726680755615, 8.08382511138916, -2.420694351196289, -1.8703416585922241, -2.081761598587036, 0.761962890625, -0.140869140625, -0.59814453125
111, 302626783, -5.312300682067871, 1.9210410118103027, 8.098638534545898, -2.3359038829803467, -1.8716353178024292, -1.9477819204330444, 0.762939453125, -0.140380859375, -0.5986328125
112, 302643450, -5.316445350646973, 1.9218589067459106, 8.082571983337402, -2.36159348487854, -1.953391194343567, -1.9375497102737427, 0.762451171875, -0.142333984375, -0.599609375
113, 302660117, -5.309910774230957, 1.9238543510437012, 8.103400230407715, -2.317488431930542, -1.993180513381958, -1.8887829780578613, 0.763916015625, -0.142333984375, -0.59814453125
114, 302676784, -5.3178205490112305, 1.9173184633255005, 8.082463264465332, -2.3323309421539307, -2.0600295066833496, -1.9886726140975952, 0.761962890625, -0.140380859375, -0.596435546875
115, 302693451, -5.31109619140625, 1.9427181482315063, 8.092609405517578, -2.3359808921813965, -2.076011896133423, -1.9243849515914917, 0.761474609375, -0.141357421875, -0.59765625
116, 302710118, -5.295586585998535, 1.9367287158966064, 8.096607208251953, -2.481358766555786, -2.041806221008301, -2.0921099185943604, 0.763427734375, -0.140869140625, -0.599609375
117, 302726785, -5.299566268920898, 1.92997407913208, 8.101482391357422, -2.44101881980896, -1.8179895877838135, -2.103071928024292, 0.759033203125, -0.140869140625, -0.59765625
118, 302743452, -5.300476551055908, 1.9198031425476074, 8.089900970458984, -2.4334754943847656, -1.8204867839813232, -2.158228635787964, 0.761474609375, -0.140869140625, -0.59716796875
119, 302760119, -5.3096137046813965, 1.928126335144043, 8.08924674987793, -2.3508360385894775, -1.6978144645690918, -2.166783094406128, 0.760009765625, -0.141357421875, -0.599609375
120, 302776786, -5.291240692138672, 1.9282464981079102, 8.091145515441895, -2.385951280593872, -1.7021048069000244, -2.208237648010254, 0.762451171875, -0.140380859375, -0.59912109375
121, 302793453, -5.294043064117432, 1.9178216457366943, 8.099809646606445, -2.3440747261047363, -1.5650897026062012, -2.1865689754486084, 0.762451171875, -0.141357421875, -0.59912109375
122, 302810120, -5.308857440948486, 1.9269386529922485, 8.09496784210205, -2.4063258171081543, -1.6259196996688843, -2.2262558937072754, 0.762451171875, -0.143310546875, -0.596923828125
123, 302826787, -5.304012775421143, 1.9087871313095093, 8.120824813842773, -2.384298801422119, -1.539617657661438, -2.1139824390411377, 0.762451171875, -0.142333984375, -0.59765625
124, 302843454, -5.3009443283081055, 1.918688416481018, 8.09291934967041, -2.3204853534698486, -1.678169846534729, -2.125687599182129, 0.761474609375, -0.139892578125, -0.604736328125
125, 302860121, -5.296636581420898, 1.9378950595855713, 8.099013328552246, -2.4470887184143066, -1.7580174207687378, -2.1473047733306885, 0.760986328125, -0.138916015625, -0.599609375
126, 302876788, -5.296496868133545, 1.9172601699829102, 8.112178802490234, -2.2647392749786377, -1.5718387365341187, -2.218316078186035, 0.761474609375, -0.142822265625, -0.599609375
127, 302893455, -5.311806678771973, 1.9159924983978271, 8.087773323059082, -2.3145298957824707, -1.562105655670166, -2.1139566898345947, 0.760498046875, -0.141357421875, -0.59765625
128, 302910122, -5.294073581695557, 1.9375584125518799, 8.090193748474121, -2.2940139770507812, -1.6633527278900146, -1.9940764904022217, 0.760009765625, -0.141845703125, -0.59814453125
129, 302926789, -5.30442476272583, 1.929602026939392, 8.102409362792969, -2.3477110862731934, -1.712938904762268, -2.0520381927490234, 0.760986328125, -0.140380859375, -0.599609375
130, 302943456, -5.301926136016846, 1.9298909902572632, 8.11023235321045, -2.328629970550537, -1.7942335605621338, -2.0671753883361816, 0.763427734375, -0.139404296875, -0.59814453125
131, 302960123, -5.308034420013428, 1.9134941101074219, 8.073802947998047, -2.3122377395629883, -1.639622449874878, -2.188899517059326, 0.761962890625, -0.142333984375, -0.59814453125
132, 302976790, -5.306056976318359, 1.9481399059295654, 8.077136039733887, -2.5594899654388428, -1.809101939201355, -2.117056131362915, 0.760986328125, -0.142333984375, -0.6005859375
133, 302993457, -5.298056602478027, 1.929097294807434, 8.097240447998047, -2.549091100692749, -1.7287291288375854, -2.1566531658172607, 0.764892578125, -0.141357421875, -0.604736328125
134, 303010124, -5.32860803604126, 1.9172940254211426, 8.096600532531738, -2.47505784034729, -1.8010722398757935, -2.2255003452301025, 0.761474609375, -0.139892578125, -0.599609375
135, 303026791, -5.2985920906066895, 1.9240975379943848, 8.092998504638672, -2.494075298309326, -1.6880691051483154, -2.1534006595611572, 0.760986328125, -0.142333984375, -0.59912109375
136, 303043458, -5.2772135734558105, 1.9253801107406616, 8.1170015335083, -2.4419021606445312, -1.7057547569274902, -2.1210134029388428, 0.761474609375, -0.141357421875, -0.599609375
137, 303060125, -5.291244983673096, 1.9524742364883423, 8.10271167755127, -2.481781005859375, -1.6678733825683594, -2.0828375816345215, 0.761962890625, -0.142333984375, -0.60107421875
138, 303076792, -5.301301002502441, 1.9293973445892334, 8.08014965057373, -2.4641594886779785, -1.6952788829803467, -2.110806703567505, 0.762451171875, -0.141845703125, -0.5986328125
139, 303093459, -5.309420585632324, 1.9382858276367188, 8.09308910369873, -2.4560272693634033, -1.801200270652771, -1.988160252571106, 0.761962890625, -0.141357421875, -0.599609375
140, 303110126, -5.3076348304748535, 1.926895022392273, 8.092114448547363, -2.380380392074585, -1.8097679615020752, -2.0940945148468018, 0.760986328125, -0.141357421875, -0.603271484375
141, 303126793, -5.292110443115234, 1.9222691059112549, 8.081910133361816, -2.4237420558929443, -1.7134382724761963, -2.0804550647735596, 0.760009765625, -0.141845703125, -0.599609375
142, 303143460, -5.299346923828125, 1.9270048141479492, 8.114688873291016, -2.4043667316436768, -1.8054392337799072, -2.0862057209014893, 0.761474609375, -0.140380859375, -0.603271484375
143, 303160127, -5.2992167472839355, 1.945008635520935, 8.085908889770508, -2.3528594970703125, -1.799906849861145, -2.01481032371521, 0.761474609375, -0.141845703125, -0.60107421875
144, 303176794, -5.296053409576416, 1.93728506565094, 8.11349868774414, -2.387104034423828, -1.7590419054031372, -2.1466517448425293, 0.761474609375, -0.139404296875, -0.5986328125
145, 303193461, -5.287580966949463, 1.924660325050354, 8.108060836791992, -2.3813281059265137, -1.5192302465438843, -2.168883800506592, 0.760986328125, -0.141845703125, -0.5986328125
146, 303210128, -5.294073104858398, 1.9343830347061157, 8.072731018066406, -2.3275156021118164, -1.6924872398376465, -2.1505448818206787, 0.760498046875, -0.142333984375, -0.599609375
147, 303226795, -5.30800199508667, 1.922411561012268, 8.096902847290039, -2.357853651046753, -1.7027705907821655, -2.189450263977051, 0.761962890625, -0.140380859375, -0.60107421875
148, 303243462, -5.295638084411621, 1.9189751148223877, 8.08739948272705, -2.367727518081665, -1.7124780416488647, -2.1188876628875732, 0.761474609375, -0.141357421875, -0.599609375
149, 303260129, -5.287652015686035, 1.933820366859436, 8.10032844543457, -2.2784674167633057, -1.6929610967636108, -2.114187717437744, 0.761962890625, -0.140380859375, -0.60107421875
150, 303276796, -5.2943854331970215, 1.9307321310043335, 8.083939552307129, -2.2710139751434326, -1.547071099281311, -2.160597562789917, 0.760986328125, -0.140380859375, -0.59912109375
151, 303293463, -5.302920341491699, 1.931781530380249, 8.096108436584473, -2.2422125339508057, -1.415460228919983, -2.120206594467163, 0.760986328125, -0.141357421875, -0.6005859375
152, 303310130, -5.29060173034668, 1.9239252805709839, 8.103376388549805, -2.168332576751709, -1.4669673442840576, -2.236513614654541, 0.761474609375, -0.142822265625, -0.5986328125
153, 303326797, -5.296590805053711, 1.9231300354003906, 8.083931922912598, -2.1945858001708984, -1.4553391933441162, -2.0773823261260986, 0.761962890625, -0.139892578125, -0.6005859375
154, 303343464, -5.3072614669799805, 1.941441297531128, 8.09045124053955, -2.2440567016601562, -1.496358036994934, -2.0336742401123047, 0.760009765625, -0.140869140625, -0.6015625
155, 303360131, -5.28822135925293, 1.9557230472564697, 8.12035083770752, -2.257772207260132, -1.3566919565200806, -2.041114330291748, 0.760009765625, -0.141845703125, -0.599609375
156, 303376798, -5.285440921783447, 1.9385969638824463, 8.095013618469238, -2.211092948913574, -1.2653568983078003, -2.1732118129730225, 0.760986328125, -0.141845703125, -0.599609375
157, 303393465, -5.2942986488342285, 1.934455156326294, 8.096319198608398, -2.2274599075317383, -1.221303105354309, -2.0948755741119385, 0.762451171875, -0.1435546875, -0.59912109375
158, 303410132, -5.305607318878174, 1.9447729587554932, 8.102352142333984, -2.251253604888916, -1.2881265878677368, -2.191768169403076, 0.761962890625, -0.140380859375, -0.6015625
159, 303426799, -5.297913074493408, 1.9392489194869995, 8.094902038574219, -2.1992087364196777, -1.3854036331176758, -2.133204698562622, 0.761474609375, -0.142333984375, -0.60009765625
160, 303443466, -5.303332328796387, 1.9280426502227783, 8.092838287353516, -2.219967842102051, -1.4083142280578613, -2.170586585998535, 0.762451171875, -0.141357421875, -0.599609375
161, 303460133, -5.311864852905273, 1.9517308473587036, 8.086945533752441, -2.273190975189209, -1.513877034187317, -2.1695237159729004, 0.761474609375, -0.143310546875, -0.5986328125
162, 303476800, -5.289209365844727, 1.917134404182434, 8.07502555847168, -2.3460464477539062, -1.5844144821166992, -2.1613659858703613, 0.762939453125, -0.143310546875, -0.59912109375
163, 303493467, -5.292393207550049, 1.9317736625671387, 8.106945037841797, -2.3867197036743164, -1.7038465738296509, -2.2626771926879883, 0.762451171875, -0.141845703125, -0.604248046875
164, 303510134, -5.282782554626465, 1.9183694124221802, 8.104183197021484, -2.4390721321105957, -1.622999906539917, -2.1019575595855713, 0.761474609375, -0.141357421875, -0.60009765625
165, 303526801, -5.287251949310303, 1.9399402141571045, 8.098160743713379, -2.349273920059204, -1.5854517221450806, -2.09952449798584, 0.760498046875, -0.141357421875, -0.60107421875
166, 303543468, -5.3000993728637695, 1.9447907209396362, 8.089065551757812, -2.3659729957580566, -1.4876879453659058, -2.1865174770355225, 0.760009765625, -0.142822265625, -0.5986328125
167, 303560135, -5.306419849395752, 1.9433351755142212, 8.085823059082031, -2.301826000213623, -1.5795223712921143, -2.269592523574829, 0.760498046875, -0.141845703125, -0.59912109375
168, 303576802, -5.31126594543457, 1.933777928352356, 8.091232299804688, -2.368624210357666, -1.578446865081787, -2.2118618488311768, 0.761474609375, -0.14404296875, -0.60107421875
169, 303593469, -5.2971906661987305, 1.9250210523605347, 8.105439186096191, -2.300532579421997, -1.642298936843872, -2.0881776809692383, 0.760986328125, -0.140869140625, -0.601806640625
170, 303610136, -5.293502330780029, 1.9339845180511475, 8.095111846923828, -2.2618188858032227, -1.6378552913665771, -2.0751535892486572, 0.760009765625, -0.142333984375, -0.5986328125
171, 303626803, -5.289886474609375, 1.9478387832641602, 8.103949546813965, -2.294424057006836, -1.6419278383255005, -2.1453070640563965, 0.760986328125, -0.141845703125, -0.59912109375
172, 303643470, -5.297311782836914, 1.9359331130981445, 8.088927268981934, -2.2291245460510254, -1.697174310684204, -2.2400224208831787, 0.760986328125, -0.140869140625, -0.59814453125
173, 303660137, -5.325706958770752, 1.9526805877685547, 8.105743408203125, -2.278287887573242, -1.6167248487472534, -2.079277276992798, 0.762939453125, -0.14404296875, -0.60009765625
174, 303676804, -5.287996768951416, 1.9256620407104492, 8.121984481811523, -2.2446584701538086, -1.6373940706253052, -2.085526704788208, 0.759521484375, -0.143310546875, -0.599609375
175, 303693471, -5.2996439933776855, 1.9468097686767578, 8.090879440307617, -2.189847469329834, -1.5361472368240356, -2.0048341751098633, 0.762939453125, -0.139404296875, -0.599609375
176, 303710138, -5.293196201324463, 1.9515525102615356, 8.10512924194336, -2.2118616104125977, -1.5611966848373413, -2.0472872257232666, 0.761962890625, -0.143310546875, -0.6015625
177, 303726805, -5.296225547790527, 1.947012186050415, 8.108331680297852, -2.3236355781555176, -1.6564757823944092, -2.0675339698791504, 0.760009765625, -0.141845703125, -0.6005859375
178, 303743472, -5.297690391540527, 1.948759913444519, 8.093304634094238, -2.3558051586151123, -1.6762744188308716, -2.1516592502593994, 0.761474609375, -0.141845703125, -0.6005859375
179, 303760139, -5.30718994140625, 1.9505783319473267, 8.117073059082031, -2.301544427871704, -1.6796554327011108, -2.098487138748169, 0.761962890625, -0.142822265625, -0.599609375
180, 303776806, -5.2945990562438965, 1.967274785041809, 8.1010160446167, -2.4531586170196533, -1.6723554134368896, -2.172379493713379, 0.762939453125, -0.14453125, -0.60009765625
181, 303793473, -5.293914318084717, 1.9376682043075562, 8.109538078308105, -2.6022250652313232, -1.6771198511123657, -2.2578113079071045, 0.761962890625, -0.141845703125, -0.60009765625
182, 303810140, -5.291954040527344, 1.9290117025375366, 8.088973999023438, -2.3823909759521484, -1.5703274011611938, -2.2406373023986816, 0.761474609375, -0.142822265625, -0.6005859375
183, 303826807, -5.285449504852295, 1.9404094219207764, 8.108661651611328, -2.353076934814453, -1.5506184101104736, -2.165156602859497, 0.762451171875, -0.142822265625, -0.599609375
184, 303843474, -5.296133518218994, 1.9540468454360962, 8.100275039672852, -2.402151346206665, -1.559134840965271, -2.180678367614746, 0.761962890625, -0.142822265625, -0.59912109375
185, 303860141, -5.300042152404785, 1.9428004026412964, 8.091056823730469, -2.2457470893859863, -1.4170609712600708, -2.0349292755126953, 0.763427734375, -0.141357421875, -0.59912109375
186, 303876808, -5.3042988777160645, 1.9422262907028198, 8.094934463500977, -2.249281644821167, -1.6293389797210693, -1.9328237771987915, 0.761474609375, -0.142333984375, -0.60009765625
187, 303893475, -5.295503616333008, 1.9288549423217773, 8.12594223022461, -2.137085199356079, -1.6803723573684692, -2.0037968158721924, 0.763427734375, -0.1435546875, -0.59912109375
188, 303910142, -5.282626628875732, 1.9621081352233887, 8.06361198425293, -2.1009325981140137, -1.580879807472229, -1.9471157789230347, 0.762939453125, -0.142822265625, -0.59912109375
189, 303926809, -5.306406021118164, 1.9412097930908203, 8.092836380004883, -2.102994680404663, -1.6249464750289917, -1.9860085248947144, 0.761474609375, -0.143798828125, -0.60107421875
190, 303943476, -5.303073883056641, 1.945286750793457, 8.088982582092285, -2.1700613498687744, -1.6341668367385864, -2.0094058513641357, 0.761962890625, -0.142822265625, -0.5986328125
191, 303960143, -5.308803558349609, 1.9437153339385986, 8.105629920959473, -2.1080148220062256, -1.6223852634429932, -2.0130813121795654, 0.761962890625, -0.143798828125, -0.60009765625
192, 303976810, -5.287296772003174, 1.9500292539596558, 8.090275764465332, -2.199157238006592, -1.6035597324371338, -2.0654079914093018, 0.761962890625, -0.143798828125, -0.60107421875
193, 303993477, -5.294919967651367, 1.9473092555999756, 8.112674713134766, -2.216292381286621, -1.601203441619873, -2.1343190670013428, 0.761962890625, -0.143310546875, -0.59814453125
194, 304010144, -5.2950263023376465, 1.9411834478378296, 8.08936882019043, -2.2891221046447754, -1.632271647453308, -2.1350104808807373, 0.760009765625, -0.144287109375, -0.599609375
195, 304026811, -5.277926921844482, 1.9467405080795288, 8.114151000976562, -2.318755865097046, -1.5869115591049194, -1.998443603515625, 0.760986328125, -0.142822265625, -0.60107421875
196, 304043478, -5.292128086090088, 1.956016182899475, 8.096940994262695, -2.2435319423675537, -1.7403573989868164, -2.126789093017578, 0.761474609375, -0.143310546875, -0.602783203125
197, 304060145, -5.291200160980225, 1.9449702501296997, 8.089417457580566, -2.279376983642578, -1.8078725337982178, -2.0853989124298096, 0.763427734375, -0.1435546875, -0.604736328125
198, 304076812, -5.290480613708496, 1.9410465955734253, 8.090579986572266, -2.1985557079315186, -1.7508330345153809, -1.948063850402832, 0.761474609375, -0.14404296875, -0.602294921875
199, 304093479, -5.282914638519287, 1.94411301612854, 8.085268020629883, -2.285677433013916, -1.7025785446166992, -1.8890260457992554, 0.760009765625, -0.143798828125, -0.60009765625
200, 304110146, -5.298974514007568, 1.9680454730987549, 8.072488784790039, -2.287393569946289, -1.7585934400558472, -1.9081588983535767, 0.762451171875, -0.14404296875, -0.5986328125
201, 304126813, -5.299773693084717, 1.9508311748504639, 8.075899124145508, -2.4266111850738525, -1.6886197328567505, -2.0115959644317627, 0.761962890625, -0.142822265625, -0.6005859375
202, 304143480, -5.30104923248291, 1.9579569101333618, 8.091346740722656, -2.315631151199341, -1.6475880146026611, -2.0162956714630127, 0.760986328125, -0.143310546875, -0.59814453125
203, 304160147, -5.30491304397583, 1.953518033027649, 8.11798095703125, -2.3738365173339844, -1.5877186059951782, -2.0950422286987305, 0.760986328125, -0.14453125, -0.596923828125
204, 304176814, -5.292978286743164, 1.9430396556854248, 8.106661796569824, -2.2909281253814697, -1.6812816858291626, -2.0754995346069336, 0.759521484375, -0.14453125, -0.59716796875
205, 304193481, -5.3081183433532715, 1.9703508615493774, 8.102395057678223, -2.791400671005249, -1.6699483394622803, -2.2467336654663086, 0.760498046875, -0.14501953125, -0.59765625
206, 304210148, -5.3158087730407715, 1.9381839036941528, 8.075331687927246, -2.472560405731201, -1.8665639162063599, -2.187068462371826, 0.761474609375, -0.14453125, -0.599609375
207, 304226815, -5.294283866882324, 1.951971173286438, 8.09421443939209, -2.4104878902435303, -1.8042737245559692, -2.185915946960449, 0.761474609375, -0.14404296875, -0.59912109375
208, 304243482, -5.274831295013428, 1.9558236598968506, 8.108241081237793, -2.37593674659729, -1.6676685810089111, -2.232480049133301, 0.760986328125, -0.141845703125, -0.5986328125
209, 304260149, -5.29101037979126, 1.961324691772461, 8.114396095275879, -2.3023126125335693, -1.6452699899673462, -2.1063499450683594, 0.760986328125, -0.143798828125, -0.599609375
210, 304276816, -5.29957914352417, 1.9519574642181396, 8.087947845458984, -2.2549548149108887, -1.6573336124420166, -2.0936203002929688, 0.761474609375, -0.143798828125, -0.599609375
211, 304293483, -5.305058479309082, 1.9494750499725342, 8.096694946289062, -2.3271446228027344, -1.6050328016281128, -2.164900541305542, 0.760986328125, -0.14453125, -0.60107421875
212, 304310150, -5.305504322052002, 1.945906162261963, 8.089791297912598, -2.2432498931884766, -1.768121361732483, -2.091174364089966, 0.760986328125, -0.143310546875, -0.6015625
213, 304326817, -5.281014442443848, 1.9497672319412231, 8.11453914642334, -2.193049192428589, -1.7779951095581055, -2.064089059829712, 0.761474609375, -0.14404296875, -0.59814453125
214, 304343484, -5.283024311065674, 1.9427485466003418, 8.118544578552246, -2.161327838897705, -1.6163536310195923, -2.092071056365967, 0.760986328125, -0.14501953125, -0.60107421875
215, 304360151, -5.301970958709717, 1.9439033269882202, 8.09505558013916, -2.1356379985809326, -1.612703561782837, -2.0361199378967285, 0.75927734375, -0.14453125, -0.60107421875
216, 304376818, -5.270071029663086, 1.9590870141983032, 8.095067024230957, -2.103750228881836, -1.7408182621002197, -2.0592992305755615, 0.75927734375, -0.144287109375, -0.603759765625
217, 304393485, -5.290194034576416, 1.984574794769287, 8.103545188903809, -2.1159420013427734, -1.6121658086776733, -2.075115442276001, 0.75927734375, -0.143798828125, -0.6005859375
218, 304410152, -5.301077842712402, 1.974602460861206, 8.097795486450195, -2.117760419845581, -1.6029194593429565, -2.058441162109375, 0.760498046875, -0.14404296875, -0.6005859375
219, 304426819, -5.285743713378906, 1.9535363912582397, 8.079042434692383, -2.139364719390869, -1.6859302520751953, -2.029755115509033, 0.75927734375, -0.144287109375, -0.60009765625
220, 304443486, -5.273822784423828, 1.9688234329223633, 8.107768058776855, -2.209134101867676, -1.7164864540100098, -2.0869743824005127, 0.761474609375, -0.14697265625, -0.59814453125
221, 304460153, -5.2808027267456055, 1.9437295198440552, 8.117870330810547, -2.2535717487335205, -1.5229309797286987, -2.197108268737793, 0.760009765625, -0.144287109375, -0.6005859375
222, 304476820, -5.307597637176514, 1.9698636531829834, 8.082867622375488, -2.337184429168701, -1.7033342123031616, -2.2662501335144043, 0.760986328125, -0.14404296875, -0.60107421875
223, 304493487, -5.288330078125, 1.9716111421585083, 8.091560363769531, -2.4543628692626953, -2.0547406673431396, -2.389806032180786, 0.760498046875, -0.146484375, -0.6005859375
224, 304510154, -5.273087978363037, 1.947535514831543, 8.116917610168457, -2.3726325035095215, -1.909670114517212, -2.3204469680786133, 0.759765625, -0.143310546875, -0.604248046875
225, 304526821, -5.276492595672607, 1.9656819105148315, 8.113448143005371, -2.2675180435180664, -1.6961499452590942, -2.3120970726013184, 0.761474609375, -0.1455078125, -0.6005859375
226, 304543488, -5.267350673675537, 1.9598863124847412, 8.128475189208984, -2.130553960800171, -1.2973471879959106, -2.2795557975769043, 0.760986328125, -0.14404296875, -0.60009765625
227, 304560155, -5.314652919769287, 1.965122103691101, 8.070840835571289, -2.067521333694458, -1.1621122360229492, -2.174262285232544, 0.760498046875, -0.14501953125, -0.6005859375
228, 304576822, -5.332435131072998, 1.9815596342086792, 8.054737091064453, -2.4615731239318848, -2.0488240718841553, -2.307128429412842, 0.761474609375, -0.143310546875, -0.599609375
229, 304593489, -5.304069995880127, 1.929985761642456, 8.084272384643555, -2.2780323028564453, -2.2746384143829346, -2.2005279064178467, 0.761474609375, -0.143310546875, -0.6015625
230, 304610156, -5.2876105308532715, 1.981940746307373, 8.118483543395996, -2.222273349761963, -2.167257070541382, -2.0907135009765625, 0.760986328125, -0.14501953125, -0.59765625
231, 304626823, -5.293755531311035, 1.9291235208511353, 8.13084888458252, -2.1448585987091064, -2.05936336517334, -1.84089994430542, 0.759521484375, -0.144287109375, -0.601806640625
232, 304643490, -5.299689769744873, 1.9438645839691162, 8.111346244812012, -2.0333664417266846, -1.9128203392028809, -1.81722092628479, 0.760009765625, -0.14501953125, -0.6005859375
233, 304660157, -5.293301582336426, 2.0085339546203613, 8.07652473449707, -2.1166462898254395, -2.098551034927368, -1.7760231494903564, 0.75927734375, -0.143798828125, -0.60107421875
234, 304676824, -5.259588241577148, 1.9744534492492676, 8.114912986755371, -2.1414647102355957, -1.7614235877990723, -1.8787295818328857, 0.759033203125, -0.14453125, -0.599609375
235, 304693491, -5.257989406585693, 1.988974690437317, 8.132762908935547, -2.352821111679077, -1.5572136640548706, -1.972113847732544, 0.7587890625, -0.142822265625, -0.6005859375
236, 304710158, -5.278713226318359, 1.9640913009643555, 8.101622581481934, -2.335160970687866, -1.474599838256836, -1.987852692604065, 0.75830078125, -0.14599609375, -0.599609375
237, 304726825, -5.267061233520508, 1.9829031229019165, 8.079272270202637, -2.3112130165100098, -1.4958455562591553, -1.8101390600204468, 0.759521484375, -0.14501953125, -0.6015625
238, 304743492, -5.266758441925049, 1.9943417310714722, 8.09498405456543, -2.353909969329834, -1.4820150136947632, -1.8800491094589233, 0.760009765625, -0.14501953125, -0.6015625
239, 304760159, -5.271363258361816, 1.972455620765686, 8.101144790649414, -2.4178130626678467, -1.285936713218689, -1.9144598245620728, 0.7587890625, -0.14501953125, -0.60009765625
240, 304776826, -5.294848918914795, 2.0082781314849854, 8.078170776367188, -2.510133981704712, -1.3131757974624634, -1.8531684875488281, 0.759521484375, -0.14453125, -0.5986328125
241, 304793493, -5.283136367797852, 1.958755373954773, 8.093204498291016, -2.638171911239624, -1.378334403038025, -1.9917075634002686, 0.762939453125, -0.14501953125, -0.599609375
242, 304810160, -5.280465126037598, 1.9666755199432373, 8.090269088745117, -2.719517946243286, -1.37646484375, -2.0907387733459473, 0.760009765625, -0.14501953125, -0.60107421875
243, 304826827, -5.259963035583496, 1.9798786640167236, 8.122124671936035, -2.781872510910034, -1.2737197875976562, -2.2313272953033447, 0.76513671875, -0.14453125, -0.60107421875
244, 304843494, -5.2833356857299805, 2.000113010406494, 8.094999313354492, -2.7563748359680176, -0.9195087552070618, -2.2387421131134033, 0.760498046875, -0.14501953125, -0.5986328125
245, 304860161, -5.280567169189453, 1.9466326236724854, 8.097107887268066, -2.6971709728240967, -0.9354142546653748, -2.361260414123535, 0.760009765625, -0.14453125, -0.599609375
246, 304876828, -5.286156177520752, 1.9847379922866821, 8.091775894165039, -2.6866958141326904, -0.9819269180297852, -2.424254894256592, 0.759765625, -0.14599609375, -0.602783203125
247, 304893495, -5.288666248321533, 1.9457677602767944, 8.089995384216309, -2.725614309310913, -0.9974995255470276, -2.4621877670288086, 0.759521484375, -0.1455078125, -0.6005859375
248, 304910162, -5.297389030456543, 1.9693732261657715, 8.091506958007812, -2.936983108520508, -1.2323039770126343, -2.514296770095825, 0.760986328125, -0.143310546875, -0.60009765625
249, 304926829, -5.306237697601318, 1.9462578296661377, 8.075451850891113, -2.825939416885376, -1.3882982730865479, -2.398527145385742, 0.760498046875, -0.1455078125, -0.59912109375
250, 304943496, -5.287786960601807, 1.9632883071899414, 8.096038818359375, -2.822251081466675, -1.6759799718856812, -2.194035768508911, 0.7587890625, -0.144775390625, -0.6015625
251, 304960163, -5.282466411590576, 1.9449737071990967, 8.104320526123047, -2.851731300354004, -1.60655677318573, -2.3084473609924316, 0.761474609375, -0.146484375, -0.6005859375
252, 304976830, -5.270019054412842, 1.9691568613052368, 8.104735374450684, -2.796753406524658, -1.453572154045105, -2.3606717586517334, 0.760498046875, -0.14501953125, -0.60107421875
253, 304993497, -5.282604694366455, 1.9538570642471313, 8.122627258300781, -2.541970729827881, -1.1993916034698486, -2.3763465881347656, 0.761962890625, -0.1455078125, -0.6005859375
254, 305010164, -5.296209812164307, 1.9433887004852295, 8.089395523071289, -2.3920981884002686, -1.0200642347335815, -2.312903881072998, 0.759521484375, -0.14453125, -0.59814453125
255, 305026831, -5.306476593017578, 1.9363064765930176, 8.11598014831543, -2.2566068172454834, -1.1164319515228271, -2.2634196281433105, 0.759521484375, -0.144287109375, -0.5986328125
256, 305043498, -5.309881687164307, 1.95150887966156, 8.091422080993652, -2.2219786643981934, -1.2104178667068481, -2.2491025924682617, 0.760498046875, -0.14404296875, -0.599609375
257, 305060165, -5.314587593078613, 1.939311146736145, 8.081897735595703, -2.1294782161712646, -1.4743821620941162, -2.2820146083831787, 0.7646484375, -0.14306640625, -0.59912109375
258, 305076832, -5.302699089050293, 1.9552738666534424, 8.077376365661621, -2.187401294708252, -1.6545674800872803, -2.2863430976867676, 0.761474609375, -0.14404296875, -0.5986328125
259, 305093499, -5.297845840454102, 1.959896206855774, 8.078259468078613, -2.135420560836792, -1.7530101537704468, -2.377652645111084, 0.759521484375, -0.14453125, -0.6005859375
260, 305110166, -5.299699783325195, 1.9674627780914307, 8.109878540039062, -2.177924633026123, -1.8475465774536133, -2.442824125289917, 0.760986328125, -0.143798828125, -0.6005859375
261, 305126833, -5.280601501464844, 1.9441578388214111, 8.104555130004883, -2.1030588150024414, -1.5520144701004028, -2.3463284969329834, 0.760986328125, -0.14501953125, -0.599609375
262, 305143500, -5.295323371887207, 1.9529987573623657, 8.117775917053223, -1.974534034729004, -1.317158818244934, -2.1829192638397217, 0.762451171875, -0.141845703125, -0.6015625
263, 305160167, -5.310396194458008, 1.9831445217132568, 8.076470375061035, -2.029921531677246, -1.323907494544983, -2.163914442062378, 0.761474609375, -0.14404296875, -0.602294921875
264, 305176834, -5.316694259643555, 1.9866753816604614, 8.098919868469238, -2.044008731842041, -1.5576362609863281, -2.2151782512664795, 0.761962890625, -0.1455078125, -0.59912109375
265, 305193501, -5.327053070068359, 1.9679769277572632, 8.078103065490723, -2.2287402153015137, -1.7253483533859253, -2.3151447772979736, 0.760498046875, -0.1455078125, -0.6015625
266, 305210168, -5.2846245765686035, 1.970037579536438, 8.115462303161621, -2.4162638187408447, -1.8177590370178223, -2.395568609237671, 0.761962890625, -0.1455078125, -0.6025390625
267, 305226835, -5.277315139770508, 1.9560050964355469, 8.096283912658691, -2.383159637451172, -1.7078804969787598, -2.2259745597839355, 0.760986328125, -0.14501953125, -0.5986328125
268, 305243502, -5.2879743576049805, 1.9523183107376099, 8.104207992553711, -2.3655123710632324, -1.6036241054534912, -2.272512435913086, 0.759521484375, -0.14453125, -0.5986328125
269, 305260169, -5.308838844299316, 1.9720770120620728, 8.101553916931152, -2.1699461936950684, -1.5969644784927368, -2.233529806137085, 0.761962890625, -0.14453125, -0.5986328125
270, 305276836, -5.316849708557129, 1.9289436340332031, 8.087862014770508, -2.2088263034820557, -1.7469525337219238, -2.291222333908081, 0.760986328125, -0.14697265625, -0.5986328125
271, 305293503, -5.286374092102051, 1.9889665842056274, 8.091439247131348, -2.2580668926239014, -1.832768201828003, -2.273562431335449, 0.763427734375, -0.14404296875, -0.6005859375
272, 305310170, -5.285391330718994, 1.9320669174194336, 8.108418464660645, -2.2507543563842773, -1.6530308723449707, -2.3035292625427246, 0.759521484375, -0.144287109375, -0.599609375
273, 305326837, -5.270642280578613, 1.9930373430252075, 8.096765518188477, -2.242340564727783, -1.5677917003631592, -2.4359469413757324, 0.762939453125, -0.143310546875, -0.60107421875
274, 305343504, -5.29766845703125, 1.985076904296875, 8.084566116333008, -2.2112722396850586, -1.436641812324524, -2.3072173595428467, 0.760498046875, -0.14501953125, -0.59912109375
275, 305360171, -5.303976058959961, 1.999519944190979, 8.08296012878418, -2.2945520877838135, -1.5565606355667114, -2.39967942237854, 0.759521484375, -0.14501953125, -0.6015625
276, 305376838, -5.309412479400635, 1.9260482788085938, 8.096787452697754, -2.3106117248535156, -1.6126909255981445, -2.3373894691467285, 0.759521484375, -0.14453125, -0.599609375
277, 305393505, -5.302566051483154, 1.9480500221252441, 8.090909004211426, -2.3032989501953125, -1.6317468881607056, -2.200399875640869, 0.762939453125, -0.143310546875, -0.60205078125
278, 305410172, -5.274931907653809, 1.9939755201339722, 8.056970596313477, -2.4749038219451904, -1.8341126441955566, -2.173583507537842, 0.760009765625, -0.14453125, -0.60009765625
279, 305426839, -5.291396617889404, 1.975165605545044, 8.098686218261719, -2.6435768604278564, -1.8532968759536743, -2.1542587280273438, 0.761962890625, -0.14599609375, -0.6005859375
280, 305443506, -5.2846598625183105, 1.9758057594299316, 8.078088760375977, -2.753685474395752, -1.834010362625122, -2.2625107765197754, 0.761962890625, -0.14501953125, -0.6005859375
281, 305460173, -5.277571201324463, 1.9533720016479492, 8.100288391113281, -2.7232964038848877, -1.661419153213501, -2.3334453105926514, 0.759521484375, -0.144287109375, -0.60009765625
282, 305476840, -5.2801618576049805, 1.948407769203186, 8.095626831054688, -2.663119316101074, -1.5139284133911133, -2.377678394317627, 0.762451171875, -0.14453125, -0.599609375
283, 305493507, -5.273075580596924, 1.9485036134719849, 8.07703685760498, -2.5775599479675293, -1.4388704299926758, -2.237295389175415, 0.760498046875, -0.14404296875, -0.60009765625
284, 305510174, -5.293797969818115, 1.9566868543624878, 8.118941307067871, -2.62585186958313, -1.32403564453125, -2.312711477279663, 0.760498046875, -0.142333984375, -0.6005859375
285, 305526841, -5.29748010635376, 1.967498540878296, 8.102168083190918, -2.5149240493774414, -1.4073923826217651, -2.3434596061706543, 0.759521484375, -0.14453125, -0.59912109375
286, 305543508, -5.307036399841309, 1.9799290895462036, 8.05958366394043, -2.5657780170440674, -1.3891944885253906, -2.356586217880249, 0.764892578125, -0.1435546875, -0.6015625
287, 305560175, -5.2917680740356445, 1.9437122344970703, 8.081703186035156, -2.4895291328430176, -1.4059324264526367, -2.3497602939605713, 0.760986328125, -0.146484375, -0.60009765625
288, 305576842, -5.287726402282715, 1.9498096704483032, 8.10194206237793, -2.653296709060669, -1.4385887384414673, -2.347442626953125, 0.760498046875, -0.143310546875, -0.59912109375
289, 305593509, -5.28721284866333, 1.9127953052520752, 8.084983825683594, -2.49241042137146, -1.4520608186721802, -2.304694652557373, 0.760498046875, -0.14453125, -0.60205078125
290, 305610176, -5.312877178192139, 2.0065982341766357, 8.068450927734375, -2.2801706790924072, -1.3374695777893066, -2.215498685836792, 0.761474609375, -0.14404296875, -0.60009765625
291, 305626843, -5.283890724182129, 1.9635578393936157, 8.106721878051758, -2.513502597808838, -1.3619552850723267, -2.4552462100982666, 0.760009765625, -0.14453125, -0.5986328125
292, 305643510, -5.291383266448975, 1.954196810722351, 8.088058471679688, -2.558990478515625, -1.3108323812484741, -2.415969133377075, 0.762451171875, -0.141845703125, -0.60009765625
293, 305660177, -5.305931091308594, 1.9525307416915894, 8.083456039428711, -2.5520880222320557, -1.276652455329895, -2.5435848236083984, 0.761962890625, -0.143798828125, -0.599609375
294, 305676844, -5.316766738891602, 1.9454736709594727, 8.064529418945312, -2.5741405487060547, -1.3572428226470947, -2.4596903324127197, 0.761962890625, -0.14404296875, -0.59814453125
295, 305693511, -5.29660701751709, 1.9469389915466309, 8.095993041992188, -2.5997021198272705, -1.3357024192810059, -2.3988983631134033, 0.760986328125, -0.14453125, -0.59814453125
296, 305710178, -5.31264591217041, 1.957532525062561, 8.072440147399902, -2.634625196456909, -1.3882853984832764, -2.3781394958496094, 0.762451171875, -0.1435546875, -0.596923828125
297, 305726845, -5.296609401702881, 1.9635287523269653, 8.083779335021973, -2.735321283340454, -1.5513871908187866, -2.376436233520508, 0.761962890625, -0.143310546875, -0.59912109375
298, 305743512, -5.316113471984863, 1.960273265838623, 8.08849811553955, -2.818063497543335, -1.591073989868164, -2.2812211513519287, 0.761962890625, -0.141357421875, -0.5986328125
299, 305760179, -5.314498424530029, 1.9276294708251953, 8.101428985595703, -2.7020888328552246, -1.776176929473877, -2.2808752059936523, 0.760986328125, -0.141357421875, -0.5986328125
300, 305776846, -5.288275718688965, 1.934758186340332, 8.105463981628418, -2.533032178878784, -1.7552896738052368, -2.1434884071350098, 0.760009765625, -0.143798828125, -0.5986328125
301, 305793513, -5.297388076782227, 1.9253649711608887, 8.085087776184082, -2.426175832748413, -1.5792919397354126, -2.2321596145629883, 0.761474609375, -0.14404296875, -0.5986328125
302, 305810180, -5.282192230224609, 1.963279366493225, 8.0719575881958, -2.4788355827331543, -1.427472710609436, -2.191166639328003, 0.762939453125, -0.142822265625, -0.596435546875
303, 305826847, -5.306238651275635, 1.9502732753753662, 8.079178810119629, -2.4707932472229004, -1.4766234159469604, -2.1837260723114014, 0.762451171875, -0.1435546875, -0.599609375
304, 305843514, -5.308817386627197, 1.9415960311889648, 8.098272323608398, -2.4822421073913574, -1.5719667673110962, -2.355062246322632, 0.762451171875, -0.143310546875, -0.5986328125
305, 305860181, -5.30948543548584, 1.947303056716919, 8.090828895568848, -2.470306396484375, -1.6978273391723633, -2.3076655864715576, 0.762451171875, -0.142333984375, -0.59912109375
306, 305876848, -5.304502964019775, 1.9314148426055908, 8.096896171569824, -2.4759414196014404, -1.6722661256790161, -2.2273447513580322, 0.762451171875, -0.142822265625, -0.599609375
307, 305893515, -5.307943820953369, 1.938910961151123, 8.075274467468262, -2.4796295166015625, -1.7373735904693604, -2.1799097061157227, 0.760498046875, -0.14453125, -0.602294921875
308, 305910182, -5.308132648468018, 1.947724461555481, 8.10035514831543, -2.407209634780884, -1.8787811994552612, -2.1495330333709717, 0.760009765625, -0.143310546875, -0.599609375
309, 305926849, -5.287097930908203, 1.9616856575012207, 8.108652114868164, -2.475454568862915, -1.8611212968826294, -2.1040704250335693, 0.761474609375, -0.140380859375, -0.59912109375
310, 305943516, -5.288358688354492, 1.9450691938400269, 8.085966110229492, -2.5276150703430176, -1.8422706127166748, -2.241956949234009, 0.760986328125, -0.14404296875, -0.59912109375
311, 305960183, -5.290197372436523, 1.941094994544983, 8.106799125671387, -2.4997482299804688, -1.6883636713027954, -2.2285995483398438, 0.760009765625, -0.142822265625, -0.599609375
312, 305976850, -5.2955322265625, 1.9480806589126587, 8.093916893005371, -2.5324816703796387, -1.7014518976211548, -2.306091070175171, 0.762451171875, -0.14453125, -0.6005859375
313, 305993517, -5.304908275604248, 1.943487524986267, 8.102219581604004, -2.4704859256744385, -1.6639289855957031, -2.2746639251708984, 0.761962890625, -0.142822265625, -0.599609375
314, 306010184, -5.292025566101074, 1.9457964897155762, 8.073808670043945, -2.488415002822876, -1.7671997547149658, -2.3527956008911133, 0.763427734375, -0.142333984375, -0.599609375
315, 306026851, -5.314700603485107, 1.9588357210159302, 8.092491149902344, -2.407017707824707, -1.756224513053894, -2.2658531665802, 0.759033203125, -0.144287109375, -0.5986328125
316, 306043518, -5.297820568084717, 1.9409950971603394, 8.089418411254883, -2.394083023071289, -1.704768419265747, -2.1908462047576904, 0.762451171875, -0.1435546875, -0.60009765625
317, 306060185, -5.314585208892822, 1.9450372457504272, 8.111883163452148, -2.261883020401001, -1.7284985780715942, -2.1864919662475586, 0.761474609375, -0.14404296875, -0.60107421875
318, 306076852, -5.304935455322266, 1.93802011013031, 8.101507186889648, -2.2301745414733887, -1.8468421697616577, -2.1606876850128174, 0.760986328125, -0.141357421875, -0.6015625
319, 306093519, -5.291943073272705, 1.9610650539398193, 8.102678298950195, -2.2010657787323, -1.856088399887085, -2.0528323650360107, 0.761962890625, -0.142333984375, -0.60009765625
320, 306110186, -5.295691013336182, 1.9495995044708252, 8.096970558166504, -2.3057701587677, -1.7203408479690552, -2.1067214012145996, 0.762939453125, -0.1435546875, -0.6005859375
321, 306126853, -5.287273406982422, 1.971806287765503, 8.098753929138184, -2.5120553970336914, -1.9310184717178345, -2.1849300861358643, 0.762939453125, -0.143310546875, -0.6005859375
322, 306143520, -5.292230606079102, 1.9625329971313477, 8.106297492980957, -2.5536890029907227, -1.7168196439743042, -2.3219709396362305, 0.759521484375, -0.142822265625, -0.59912109375
323, 306160187, -5.289916515350342, 1.9455856084823608, 8.097482681274414, -2.5752549171447754, -1.6002177000045776, -2.364820957183838, 0.762451171875, -0.143310546875, -0.59912109375
324, 306176854, -5.293781280517578, 1.9438955783843994, 8.075752258300781, -2.5762922763824463, -1.5377354621887207, -2.4628279209136963, 0.762451171875, -0.142822265625, -0.60205078125
325, 306193521, -5.294341087341309, 1.9517362117767334, 8.094358444213867, -2.5611677169799805, -1.5750147104263306, -2.5244393348693848, 0.761474609375, -0.142822265625, -0.6015625
326, 306210188, -5.304502964019775, 1.925599455833435, 8.095674514770508, -2.6407976150512695, -1.472756028175354, -2.510518789291382, 0.762451171875, -0.140380859375, -0.604248046875
327, 306226855, -5.302757263183594, 1.916940450668335, 8.097565650939941, -2.601008653640747, -1.4712193012237549, -2.404149055480957, 0.760009765625, -0.141845703125, -0.599609375
328, 306243522, -5.295177459716797, 1.9342598915100098, 8.106210708618164, -2.679882764816284, -1.5975667238235474, -2.4890551567077637, 0.763427734375, -0.142822265625, -0.599609375
329, 306260189, -5.324355125427246, 1.9199095964431763, 8.106161117553711, -2.617630958557129, -1.6699482202529907, -2.3653461933135986, 0.760986328125, -0.142822265625, -0.599609375
330, 306276856, -5.274560928344727, 1.9436211585998535, 8.091534614562988, -2.6011106967926025, -1.6472551822662354, -2.329526662826538, 0.761474609375, -0.141845703125, -0.60009765625
331, 306293523, -5.289567947387695, 1.9320544004440308, 8.10558795928955, -2.6170802116394043, -1.4616400003433228, -2.28593373298645, 0.760009765625, -0.143310546875, -0.599609375
332, 306310190, -5.302581310272217, 1.9293674230575562, 8.101283073425293, -2.6018662452697754, -1.4531877040863037, -2.209902048110962, 0.761474609375, -0.142822265625, -0.603759765625
333, 306326857, -5.31796932220459, 1.9275832176208496, 8.0931978225708, -2.686682939529419, -1.4826042652130127, -2.264521598815918, 0.762451171875, -0.142333984375, -0.599609375
334, 306343524, -5.305697917938232, 1.9282149076461792, 8.116528511047363, -2.594515562057495, -1.6140356063842773, -2.2432498931884766, 0.761962890625, -0.141357421875, -0.6005859375
335, 306360191, -5.298900604248047, 1.9286800622940063, 8.113188743591309, -2.571246385574341, -1.5315754413604736, -2.275893449783325, 0.760986328125, -0.140869140625, -0.6015625
336, 306376858, -5.297131538391113, 1.9169574975967407, 8.114253997802734, -2.621626853942871, -1.679809331893921, -2.1935746669769287, 0.75927734375, -0.141357421875, -0.601806640625
337, 306393525, -5.289082050323486, 1.9263743162155151, 8.064898490905762, -2.6267364025115967, -1.547122597694397, -2.2863051891326904, 0.761474609375, -0.141845703125, -0.602294921875
338, 306410192, -5.297865867614746, 1.9258490800857544, 8.109641075134277, -2.620089292526245, -1.580277681350708, -2.2383835315704346, 0.762939453125, -0.140380859375, -0.603759765625
339, 306426859, -5.289437294006348, 1.9439810514450073, 8.104154586791992, -2.6268904209136963, -1.4971905946731567, -2.3346107006073, 0.760986328125, -0.138916015625, -0.6015625
340, 306443526, -5.3094706535339355, 1.938718557357788, 8.089082717895508, -2.5649969577789307, -1.354271650314331, -2.3077940940856934, 0.761962890625, -0.138916015625, -0.6015625
341, 306460193, -5.3270792961120605, 1.9058187007904053, 8.100132942199707, -2.5679805278778076, -1.5746175050735474, -2.3316009044647217, 0.760986328125, -0.141357421875, -0.60107421875
342, 306476860, -5.3238911628723145, 1.929375410079956, 8.10063362121582, -2.3689181804656982, -1.6772091388702393, -2.213334083557129, 0.763916015625, -0.141845703125, -0.6015625
343, 306493527, -5.311045169830322, 1.9115352630615234, 8.089555740356445, -2.483715057373047, -1.7197391986846924, -2.1006126403808594, 0.760498046875, -0.140380859375, -0.60107421875
344, 306510194, -5.273800849914551, 1.9343458414077759, 8.120840072631836, -2.4594852924346924, -1.703948974609375, -2.127352476119995, 0.761474609375, -0.141357421875, -0.599609375
345, 306526861, -5.29907751083374, 1.940139889717102, 8.102348327636719, -2.4056859016418457, -1.7598103284835815, -2.3039650917053223, 0.760986328125, -0.141845703125, -0.60107421875
346, 306543528, -5.307533264160156, 1.9148579835891724, 8.071242332458496, -2.5239908695220947, -1.6189019680023193, -2.2990472316741943, 0.762939453125, -0.142822265625, -0.60107421875
347, 306560195, -5.316033840179443, 1.9225648641586304, 8.113593101501465, -2.466785192489624, -1.7295106649398804, -2.338183641433716, 0.761474609375, -0.139404296875, -0.59912109375
348, 306576862, -5.288352012634277, 1.917099952697754, 8.083556175231934, -2.492461919784546, -1.8328322172164917, -2.299201250076294, 0.760498046875, -0.141845703125, -0.6015625
349, 306593529, -5.296784400939941, 1.910813331604004, 8.116683006286621, -2.549590826034546, -1.798639178276062, -2.2837305068969727, 0.760498046875, -0.138916015625, -0.601806640625
350, 306610196, -5.300189018249512, 1.9322187900543213, 8.09644603729248, -2.4163663387298584, -1.7574539184570312, -2.1201682090759277, 0.760498046875, -0.141845703125, -0.6005859375
351, 306626863, -5.299942493438721, 1.9299230575561523, 8.11760139465332, -2.540395736694336, -1.775549292564392, -2.0956313610076904, 0.762451171875, -0.140869140625, -0.60107421875
352, 306643530, -5.30858850479126, 1.9244799613952637, 8.102087020874023, -2.5501670837402344, -1.7391921281814575, -2.160841464996338, 0.761474609375, -0.141357421875, -0.60205078125
353, 306660197, -5.290053367614746, 1.925538182258606, 8.083670616149902, -2.5593490600585938, -1.8416301012039185, -2.229649543762207, 0.760986328125, -0.141357421875, -0.6015625
354, 306676864, -5.298887252807617, 1.9235669374465942, 8.099038124084473, -2.6110360622406006, -1.945797085762024, -2.2281129360198975, 0.762939453125, -0.140869140625, -0.599609375
355, 306693531, -5.3003458976745605, 1.970546841621399, 8.080676078796387, -2.6837759017944336, -1.9921305179595947, -2.0298452377319336, 0.760986328125, -0.141845703125, -0.60107421875
356, 306710198, -5.3169684410095215, 1.841086506843567, 8.119890213012695, -2.4266371726989746, -2.212348461151123, -1.9371272325515747, 0.760986328125, -0.141845703125, -0.60009765625
357, 306726865, -5.323023796081543, 1.9216721057891846, 8.109528541564941, -2.3160409927368164, -2.460432767868042, -1.6735721826553345, 0.759521484375, -0.140380859375, -0.60107421875
358, 306743532, -5.271716117858887, 1.9377903938293457, 8.091887474060059, -2.482370615005493, -2.4706528186798096, -1.7898029088974, 0.759765625, -0.142333984375, -0.602294921875
359, 306760199, -5.302098751068115, 1.921286940574646, 8.106141090393066, -2.5836942195892334, -2.442991018295288, -1.7690439224243164, 0.7587890625, -0.141845703125, -0.601318359375
360, 306776866, -5.302309036254883, 1.905340552330017, 8.094964981079102, -2.4509437084198, -2.442683458328247, -1.8912036418914795, 0.761962890625, -0.142333984375, -0.6015625
361, 306793533, -5.280271053314209, 1.913047194480896, 8.089925765991211, -2.2175989151000977, -2.5509226322174072, -1.6457184553146362, 0.7587890625, -0.141357421875, -0.601806640625
362, 306810200, -5.230796813964844, 1.969425916671753, 8.112804412841797, -2.3267343044281006, -2.3142354488372803, -1.84031081199646, 0.761962890625, -0.141845703125, -0.6015625
363, 306826867, -5.27469539642334, 1.9295907020568848, 8.132072448730469, -2.3881795406341553, -2.1200528144836426, -1.892445683479309, 0.760009765625, -0.141357421875, -0.603271484375
364, 306843534, -5.268365383148193, 1.916856288909912, 8.12222671508789, -2.4120891094207764, -1.9662102460861206, -1.9308005571365356, 0.7587890625, -0.142333984375, -0.60107421875
365, 306860201, -5.266827583312988, 1.907828688621521, 8.12244701385498, -2.4457054138183594, -2.062180995941162, -2.0428943634033203, 0.760498046875, -0.142822265625, -0.602294921875
366, 306876868, -5.268852233886719, 1.9377182722091675, 8.122125625610352, -2.564382314682007, -1.970744013786316, -2.1363813877105713, 0.7587890625, -0.142822265625, -0.601806640625
367, 306893535, -5.2380475997924805, 1.9400367736816406, 8.138395309448242, -2.5514607429504395, -1.8856201171875, -2.176042318344116, 0.75927734375, -0.142333984375, -0.604736328125
368, 306910202, -5.284063339233398, 1.9357900619506836, 8.121271133422852, -2.6286187171936035, -1.748937726020813, -2.2321724891662598, 0.759765625, -0.142822265625, -0.60791015625
369, 306926869, -5.266147136688232, 1.943110466003418, 8.118191719055176, -2.6086409091949463, -1.7865374088287354, -2.177297353744507, 0.760986328125, -0.141357421875, -0.603271484375
370, 306943536, -5.279263973236084, 1.8965425491333008, 8.122648239135742, -2.5605275630950928, -1.859418272972107, -2.185378074645996, 0.7587890625, -0.143310546875, -0.601806640625
371, 306960203, -5.260732173919678, 1.9242079257965088, 8.113295555114746, -2.4810256958007812, -1.821972370147705, -2.098435878753662, 0.760009765625, -0.141357421875, -0.604248046875
372, 306976870, -5.270013809204102, 1.9429066181182861, 8.11215877532959, -2.5494751930236816, -1.7255148887634277, -2.1540279388427734, 0.760009765625, -0.141357421875, -0.603271484375
373, 306993537, -5.271603107452393, 1.9228233098983765, 8.1209077835083, -2.610690116882324, -1.7109159231185913, -2.2201859951019287, 0.75830078125, -0.142333984375, -0.603759765625
374, 307010204, -5.278660297393799, 1.9271565675735474, 8.092249870300293, -2.3028504848480225, -1.7152695655822754, -2.082427501678467, 0.7587890625, -0.142822265625, -0.603271484375
375, 307026871, -5.265547752380371, 1.8951702117919922, 8.139591217041016, -2.3294241428375244, -1.8351243734359741, -2.050424814224243, 0.760986328125, -0.143310546875, -0.604736328125
376, 307043538, -5.27000093460083, 1.9252758026123047, 8.104276657104492, -2.3675742149353027, -1.990311861038208, -1.9611645936965942, 0.75732421875, -0.139892578125, -0.604248046875
377, 307060205, -5.248377799987793, 1.9318978786468506, 8.115532875061035, -2.367753267288208, -1.8923431634902954, -2.0567383766174316, 0.75830078125, -0.141845703125, -0.602294921875
378, 307076872, -5.256631374359131, 1.932344675064087, 8.142288208007812, -2.3933658599853516, -1.6336930990219116, -2.1749660968780518, 0.759765625, -0.142333984375, -0.602783203125
379, 307093539, -5.263365745544434, 1.9217982292175293, 8.11897087097168, -2.4299919605255127, -1.5739132165908813, -2.2406246662139893, 0.760009765625, -0.140380859375, -0.603759765625
380, 307110206, -5.2684502601623535, 1.924843430519104, 8.119124412536621, -2.3347771167755127, -1.6941521167755127, -2.1153016090393066, 0.75830078125, -0.142333984375, -0.601806640625
381, 307126873, -5.2688822746276855, 1.9513652324676514, 8.124629974365234, -2.3716208934783936, -1.6796681880950928, -2.1577162742614746, 0.75830078125, -0.141357421875, -0.603759765625
382, 307143540, -5.254889488220215, 1.9123170375823975, 8.138018608093262, -2.4396865367889404, -1.760130524635315, -2.235809564590454, 0.759765625, -0.140869140625, -0.603271484375
383, 307160207, -5.280789375305176, 1.9283583164215088, 8.1123046875, -2.4471778869628906, -1.603342056274414, -2.248051881790161, 0.75830078125, -0.143310546875, -0.604248046875
384, 307176874, -5.283880710601807, 1.9272801876068115, 8.094584465026855, -2.3217015266418457, -1.700913667678833, -2.212911367416382, 0.75927734375, -0.143310546875, -0.603271484375
385, 307193541, -5.23293924331665, 1.924000859260559, 8.14836311340332, -2.4799880981445312, -1.7833099365234375, -2.209786891937256, 0.760498046875, -0.141845703125, -0.603271484375
386, 307210208, -5.275075435638428, 1.938468098640442, 8.106191635131836, -2.5097756385803223, -1.6746352910995483, -2.2430193424224854, 0.7587890625, -0.141357421875, -0.603759765625
387, 307226875, -5.2439470291137695, 1.9294451475143433, 8.15322494506836, -2.355741024017334, -1.55397367477417, -2.236116886138916, 0.760009765625, -0.141357421875, -0.604248046875
388, 307243542, -5.267796039581299, 1.9435958862304688, 8.117263793945312, -2.335686206817627, -1.3546556234359741, -2.2610507011413574, 0.75927734375, -0.139892578125, -0.603271484375
389, 307260209, -5.266383647918701, 1.9523520469665527, 8.134045600891113, -2.414829730987549, -1.1155612468719482, -2.286048650741577, 0.7578125, -0.141357421875, -0.601806640625
390, 307276876, -5.265022277832031, 1.929787039756775, 8.11581802368164, -2.4391486644744873, -1.4682097434997559, -2.328514814376831, 0.75830078125, -0.141845703125, -0.604248046875
391, 307293543, -5.280731678009033, 1.9168272018432617, 8.111955642700195, -2.5654706954956055, -1.6544654369354248, -2.2844736576080322, 0.759765625, -0.141845703125, -0.603759765625
392, 307310210, -5.2742533683776855, 1.9201282262802124, 8.136588096618652, -2.5136947631835938, -1.7303941249847412, -2.1477530002593994, 0.7578125, -0.142333984375, -0.604248046875
393, 307326877, -5.257962226867676, 1.9115686416625977, 8.157715797424316, -2.3818912506103516, -1.8395682573318481, -2.1240100860595703, 0.759765625, -0.139404296875, -0.603271484375
394, 307343544, -5.262617111206055, 1.949423909187317, 8.126205444335938, -2.5125033855438232, -1.6449757814407349, -2.114610433578491, 0.760986328125, -0.142822265625, -0.603759765625
395, 307360211, -5.277847766876221, 1.9383227825164795, 8.12092399597168, -2.430708885192871, -1.5835946798324585, -2.178628921508789, 0.75830078125, -0.142333984375, -0.604248046875
396, 307376878, -5.280885219573975, 1.9087127447128296, 8.127253532409668, -2.53212308883667, -1.641492486000061, -2.2844607830047607, 0.759521484375, -0.142822265625, -0.601806640625
397, 307393545, -5.276025295257568, 1.9062010049819946, 8.125755310058594, -2.5275893211364746, -1.6930890083312988, -2.1775403022766113, 0.75927734375, -0.141845703125, -0.602294921875
398, 307410212, -5.246910095214844, 1.9108837842941284, 8.123113632202148, -2.475480318069458, -1.687492847442627, -2.150275945663452, 0.75732421875, -0.141357421875, -0.604736328125
399, 307426879, -5.297817707061768, 1.9045569896697998, 8.149320602416992, -2.431464910507202, -1.6437718868255615, -2.19276762008667, 0.75830078125, -0.143310546875, -0.601806640625
400, 307443546, -5.199887752532959, 1.9641554355621338, 8.085371017456055, -2.4350380897521973, -1.5775374174118042, -2.1616222858428955, 0.75927734375, -0.142333984375, -0.603759765625
401, 307460213, -5.2630109786987305, 1.9372004270553589, 8.120474815368652, -2.4239730834960938, -1.4517663717269897, -2.2289323806762695, 0.75830078125, -0.141357421875, -0.603271484375
402, 307476880, -5.264137268066406, 1.9227248430252075, 8.132301330566406, -2.467911958694458, -1.489378571510315, -2.2084295749664307, 0.7587890625, -0.143310546875, -0.601806640625
403, 307493547, -5.263800144195557, 1.900088906288147, 8.115880012512207, -2.4645307064056396, -1.3812031745910645, -2.1420540809631348, 0.7587890625, -0.139892578125, -0.604736328125
404, 307510214, -5.257609844207764, 1.9242421388626099, 8.11911678314209, -2.488863229751587, -1.5922904014587402, -2.148700714111328, 0.760498046875, -0.139892578125, -0.6015625
405, 307526881, -5.237861156463623, 1.9372117519378662, 8.128462791442871, -2.3331503868103027, -1.3835850954055786, -2.270630121231079, 0.760009765625, -0.139892578125, -0.603759765625
406, 307543548, -5.253972053527832, 1.9319486618041992, 8.129735946655273, -2.4971866607666016, -1.378014326095581, -2.335378646850586, 0.7587890625, -0.141357421875, -0.601806640625
407, 307560215, -5.252106189727783, 1.926292896270752, 8.120673179626465, -2.447319269180298, -1.2697495222091675, -2.366204023361206, 0.760009765625, -0.142333984375, -0.603271484375
408, 307576882, -5.248782634735107, 1.904718041419983, 8.096567153930664, -2.398129940032959, -1.389066457748413, -2.381340742111206, 0.759765625, -0.143310546875, -0.602783203125
409, 307593549, -5.270013332366943, 1.9274510145187378, 8.137843132019043, -2.3130955696105957, -1.2781888246536255, -2.3830947875976562, 0.759765625, -0.141357421875, -0.602783203125
410, 307610216, -5.280184268951416, 1.9062329530715942, 8.117511749267578, -2.3005712032318115, -1.3914101123809814, -2.4778239727020264, 0.75927734375, -0.140380859375, -0.603759765625
411, 307626883, -5.282362937927246, 1.9080760478973389, 8.103987693786621, -2.2628307342529297, -1.243214726448059, -2.3295135498046875, 0.759765625, -0.140869140625, -0.602783203125
412, 307643550, -5.288845062255859, 1.9077502489089966, 8.127740859985352, -2.2870986461639404, -1.437615156173706, -2.2796199321746826, 0.75927734375, -0.142822265625, -0.602783203125
413, 307660217, -5.279716491699219, 1.9174704551696777, 8.13050365447998, -2.283602476119995, -1.6483051776885986, -2.1702792644500732, 0.760009765625, -0.140869140625, -0.602294921875
414, 307676884, -5.259401798248291, 1.931481957435608, 8.129576683044434, -2.2345287799835205, -1.6732009649276733, -2.2050230503082275, 0.75830078125, -0.140869140625, -0.6005859375
415, 307693551, -5.2785820960998535, 1.9235700368881226, 8.150237083435059, -2.3289499282836914, -1.7800313234329224, -2.1350104808807373, 0.759765625, -0.142333984375, -0.602783203125
416, 307710218, -5.2696852684021, 1.9302111864089966, 8.120211601257324, -2.4048023223876953, -1.65324866771698, -2.0960795879364014, 0.7578125, -0.143798828125, -0.602294921875
417, 307726885, -5.257734298706055, 1.928417444229126, 8.127593994140625, -2.445500612258911, -1.6481901407241821, -2.1199889183044434, 0.75830078125, -0.139892578125, -0.603271484375
418, 307743552, -5.279675006866455, 1.9146255254745483, 8.121691703796387, -2.4541189670562744, -1.402513027191162, -2.184455633163452, 0.760009765625, -0.140869140625, -0.603759765625
419, 307760219, -5.265871047973633, 1.9196065664291382, 8.135948181152344, -2.429121255874634, -1.579701542854309, -2.0143492221832275, 0.760498046875, -0.142333984375, -0.603271484375
420, 307776886, -5.272579669952393, 1.906770944595337, 8.116904258728027, -2.3681373596191406, -1.6857765913009644, -1.9215670824050903, 0.761474609375, -0.141845703125, -0.602783203125
421, 307793553, -5.272726535797119, 1.9256761074066162, 8.102617263793945, -2.4980452060699463, -1.8764376640319824, -1.9637385606765747, 0.761962890625, -0.141357421875, -0.602294921875
422, 307810220, -5.2810587882995605, 1.9398716688156128, 8.11126708984375, -2.4554126262664795, -1.8850948810577393, -1.8990793228149414, 0.75927734375, -0.141357421875, -0.602783203125
423, 307826887, -5.258727073669434, 1.9293659925460815, 8.123252868652344, -2.4173521995544434, -1.728421926498413, -2.0379385948181152, 0.7578125, -0.141845703125, -0.604736328125
424, 307843554, -5.267690658569336, 1.9256821870803833, 8.113183975219727, -2.5154874324798584, -1.5527570247650146, -2.0338022708892822, 0.760986328125, -0.142333984375, -0.603271484375
425, 307860221, -5.275687217712402, 1.9107601642608643, 8.108721733093262, -2.539525032043457, -1.5449326038360596, -2.137469530105591, 0.75830078125, -0.142822265625, -0.601318359375
426, 307876888, -5.26572322845459, 1.921661615371704, 8.12730598449707, -2.392725706100464, -1.6637881994247437, -2.090675115585327, 0.759765625, -0.141845703125, -0.603759765625
427, 307893555, -5.268711566925049, 1.919687032699585, 8.125561714172363, -2.326235055923462, -1.6559507846832275, -2.1304900646209717, 0.7587890625, -0.141357421875, -0.602294921875
428, 307910222, -5.269105911254883, 1.9066078662872314, 8.14051628112793, -2.221184492111206, -1.5427298545837402, -2.111792802810669, 0.75927734375, -0.141845703125, -0.603271484375
429, 307926889, -5.283076286315918, 1.9334444999694824, 8.096212387084961, -2.1930618286132812, -1.6540679931640625, -2.1493921279907227, 0.7587890625, -0.141357421875, -0.603759765625
430, 307943556, -5.268557548522949, 1.9294015169143677, 8.123954772949219, -2.2245140075683594, -1.6595492362976074, -2.1238176822662354, 0.760009765625, -0.141357421875, -0.6015625
431, 307960223, -5.275105953216553, 1.9013257026672363, 8.136632919311523, -2.2960376739501953, -1.7953349351882935, -2.2250008583068848, 0.759765625, -0.142822265625, -0.602294921875
432, 307976890, -5.271642684936523, 1.9255669116973877, 8.109789848327637, -2.2672364711761475, -1.791877269744873, -2.0866286754608154, 0.75927734375, -0.143310546875, -0.602294921875
433, 307993557, -5.25061559677124, 1.943679928779602, 8.13379192352295, -2.242250919342041, -1.7642154693603516, -2.1243042945861816, 0.760498046875, -0.142333984375, -0.603759765625
434, 308010224, -5.262617111206055, 1.9423136711120605, 8.12259292602539, -2.271219253540039, -1.5180904865264893, -2.2114901542663574, 0.75927734375, -0.141845703125, -0.604248046875
435, 308026891, -5.276485443115234, 1.9408352375030518, 8.118071556091309, -2.3759751319885254, -1.4709630012512207, -2.2896347045898438, 0.761474609375, -0.142822265625, -0.602294921875
436, 308043558, -5.253319263458252, 1.9204236268997192, 8.137311935424805, -2.317603826522827, -1.4988808631896973, -2.2482190132141113, 0.75927734375, -0.140380859375, -0.602783203125
437, 308060225, -5.247784614562988, 1.9127150774002075, 8.116147994995117, -2.346917152404785, -1.2673803567886353, -2.31577205657959, 0.760009765625, -0.141845703125, -0.602783203125
438, 308076892, -5.270649433135986, 1.9329019784927368, 8.130062103271484, -2.3463540077209473, -1.2103666067123413, -2.3572263717651367, 0.761474609375, -0.140869140625, -0.60107421875
439, 308093559, -5.282220363616943, 1.9347891807556152, 8.105820655822754, -2.28055477142334, -1.1472054719924927, -2.281848192214966, 0.759765625, -0.142333984375, -0.602783203125
440, 308110226, -5.2597527503967285, 1.9270124435424805, 8.111023902893066, -2.362412929534912, -1.1493314504623413, -2.3271825313568115, 0.760986328125, -0.142333984375, -0.60205078125
441, 308126893, -5.267920970916748, 1.9020994901657104, 8.136798858642578, -2.361875057220459, -1.115304946899414, -2.381737470626831, 0.7578125, -0.141845703125, -0.601318359375
442, 308143560, -5.277046203613281, 1.9107261896133423, 8.120999336242676, -2.256760597229004, -1.1275349855422974, -2.378241539001465, 0.760986328125, -0.142333984375, -0.602294921875
443, 308160227, -5.288942813873291, 1.9211761951446533, 8.11816692352295, -2.239497423171997, -1.1798489093780518, -2.286919355392456, 0.759765625, -0.141845703125, -0.603271484375
444, 308176894, -5.309499263763428, 1.9564721584320068, 8.08566665649414, -2.2114644050598145, -1.3828679323196411, -2.260192632675171, 0.760009765625, -0.143310546875, -0.6015625
445, 308193561, -5.279153823852539, 1.9269654750823975, 8.094778060913086, -2.3005197048187256, -1.4691572189331055, -2.1823043823242188, 0.75927734375, -0.139892578125, -0.60107421875
446, 308210228, -5.295037746429443, 1.9073072671890259, 8.101287841796875, -2.2945005893707275, -1.482488751411438, -2.129708766937256, 0.7587890625, -0.141845703125, -0.602294921875
447, 308226895, -5.27215576171875, 1.93861985206604, 8.111392974853516, -2.305757522583008, -1.679142951965332, -2.11517333984375, 0.75927734375, -0.142822265625, -0.602294921875
448, 308243562, -5.268365383148193, 1.929215908050537, 8.100651741027832, -2.4131007194519043, -1.804107427597046, -2.121615171432495, 0.760986328125, -0.141845703125, -0.60107421875
449, 308260229, -5.273428440093994, 1.9260733127593994, 8.11811637878418, -2.4473190307617188, -1.7122730016708374, -2.1096155643463135, 0.75927734375, -0.141357421875, -0.604248046875
450, 308276896, -5.296750068664551, 1.919213056564331, 8.128369331359863, -2.4176084995269775, -1.7779697179794312, -2.2153449058532715, 0.760986328125, -0.142333984375, -0.6015625
451, 308293563, -5.272165775299072, 1.9313545227050781, 8.125771522521973, -2.4522368907928467, -1.6796681880950928, -2.1726486682891846, 0.760986328125, -0.144287109375, -0.603271484375
452, 308310230, -5.290714740753174, 1.9254215955734253, 8.098236083984375, -2.390253782272339, -1.9281368255615234, -2.17679762840271, 0.760009765625, -0.143310546875, -0.601806640625
453, 308326897, -5.273028373718262, 1.9334484338760376, 8.111029624938965, -2.3699944019317627, -1.9101567268371582, -2.178206443786621, 0.760009765625, -0.14453125, -0.602783203125
454, 308343564, -5.266213893890381, 1.9473695755004883, 8.116665840148926, -2.411742925643921, -1.8678699731826782, -2.143296241760254, 0.759765625, -0.141845703125, -0.604248046875
455, 308360231, -5.288781642913818, 1.9175654649734497, 8.132466316223145, -2.376704692840576, -1.8299120664596558, -2.0715675354003906, 0.760009765625, -0.140869140625, -0.604248046875
456, 308376898, -5.294581413269043, 1.9190247058868408, 8.096885681152344, -2.294539213180542, -1.9261903762817383, -2.0676238536834717, 0.7578125, -0.142822265625, -0.602783203125
457, 308393565, -5.279855251312256, 1.9195311069488525, 8.126662254333496, -2.2397921085357666, -2.2010915279388428, -2.034468173980713, 0.760009765625, -0.143798828125, -0.603271484375
458, 308410232, -5.260239124298096, 1.9480735063552856, 8.092416763305664, -2.4052507877349854, -2.1687941551208496, -2.0113401412963867, 0.7578125, -0.144775390625, -0.604248046875
459, 308426899, -5.252601146697998, 1.933092474937439, 8.121919631958008, -2.327054738998413, -2.122281074523926, -2.0000829696655273, 0.760009765625, -0.142333984375, -0.603271484375
460, 308443566, -5.261363506317139, 1.9289238452911377, 8.137269973754883, -2.3341493606567383, -1.8747087717056274, -2.0203423500061035, 0.75927734375, -0.141845703125, -0.602783203125
461, 308460233, -5.261448383331299, 1.933951497077942, 8.122695922851562, -2.266915798187256, -1.7274612188339233, -2.014336585998535, 0.760009765625, -0.140380859375, -0.601806640625
462, 308476900, -5.260874271392822, 1.9266504049301147, 8.103860855102539, -2.2901854515075684, -1.6031758785247803, -2.104557514190674, 0.75732421875, -0.142333984375, -0.601318359375
463, 308493567, -5.237778186798096, 1.958534598350525, 8.120734214782715, -2.2602438926696777, -1.6001276969909668, -2.1468052864074707, 0.7587890625, -0.142822265625, -0.604736328125
464, 308510234, -5.275670051574707, 1.9121719598770142, 8.13135051727295, -2.329871892929077, -1.6068382263183594, -2.0858726501464844, 0.7587890625, -0.142822265625, -0.603759765625
465, 308526901, -5.260000705718994, 1.935028076171875, 8.12076187133789, -2.2492177486419678, -1.4652899503707886, -2.1540281772613525, 0.7587890625, -0.142822265625, -0.603271484375
466, 308543568, -5.281466960906982, 1.9278095960617065, 8.11035442352295, -2.2142562866210938, -1.5668952465057373, -2.1243555545806885, 0.75927734375, -0.142822265625, -0.602294921875
467, 308560235, -5.279135227203369, 1.9411015510559082, 8.092927932739258, -2.303401231765747, -1.5488766431808472, -2.097475051879883, 0.7568359375, -0.142333984375, -0.601806640625
468, 308576902, -5.259783744812012, 1.9349342584609985, 8.10460376739502, -2.280977249145508, -1.6466017961502075, -2.120859384536743, 0.75732421875, -0.143310546875, -0.601318359375
469, 308593569, -5.268487453460693, 1.941017508506775, 8.113401412963867, -2.2890453338623047, -1.6168144941329956, -2.1756067276000977, 0.760009765625, -0.140869140625, -0.602783203125
470, 308610236, -5.270892143249512, 1.9295756816864014, 8.08716106414795, -2.285088539123535, -1.7316875457763672, -2.1030333042144775, 0.760498046875, -0.141845703125, -0.603759765625
471, 308626903, -5.266582012176514, 1.910095453262329, 8.141057014465332, -2.381904125213623, -1.6990183591842651, -2.0201759338378906, 0.7587890625, -0.142333984375, -0.601806640625
472, 308643570, -5.268232822418213, 1.9413682222366333, 8.120091438293457, -2.3196778297424316, -1.682715892791748, -2.157472848892212, 0.759765625, -0.142822265625, -0.603759765625
473, 308660237, -5.255801677703857, 1.9578791856765747, 8.125073432922363, -2.279709577560425, -1.5276693105697632, -2.2072768211364746, 0.7587890625, -0.144775390625, -0.602783203125
474, 308676904, -5.26204252243042, 1.9271433353424072, 8.1217679977417, -2.2810542583465576, -1.5155545473098755, -2.1560256481170654, 0.75732421875, -0.144775390625, -0.599609375
475, 308693571, -5.266608715057373, 1.9271759986877441, 8.110771179199219, -2.2883152961730957, -1.457951545715332, -2.171483039855957, 0.7578125, -0.142333984375, -0.60107421875
476, 308710238, -5.285552978515625, 1.9506537914276123, 8.105359077453613, -2.2663779258728027, -1.5009297132492065, -2.170048713684082, 0.75927734375, -0.142333984375, -0.601318359375
477, 308726905, -5.251270294189453, 1.9317480325698853, 8.112608909606934, -2.3799448013305664, -1.5358655452728271, -2.2455551624298096, 0.7607421875, -0.143798828125, -0.607177734375
478, 308743572, -5.2598419189453125, 1.9558913707733154, 8.097799301147461, -2.3726069927215576, -1.4959354400634766, -2.2225420475006104, 0.760009765625, -0.143798828125, -0.601806640625
479, 308760239, -5.254828453063965, 1.9441921710968018, 8.119665145874023, -2.420438766479492, -1.4581183195114136, -2.3332276344299316, 0.75830078125, -0.1455078125, -0.6015625
480, 308776906, -5.258172988891602, 1.941597580909729, 8.122930526733398, -2.361567735671997, -1.3621858358383179, -2.2610251903533936, 0.7587890625, -0.142333984375, -0.60107421875
481, 308793573, -5.2534027099609375, 1.9267467260360718, 8.111838340759277, -2.483356237411499, -1.3231008052825928, -2.2368853092193604, 0.760009765625, -0.142333984375, -0.603759765625
482, 308810240, -5.280918598175049, 1.922426462173462, 8.11877155303955, -2.3708393573760986, -1.3137010335922241, -2.21643328666687, 0.760009765625, -0.142333984375, -0.6015625
483, 308826907, -5.284294605255127, 1.924517035484314, 8.102848052978516, -2.310598850250244, -1.4256412982940674, -2.075025796890259, 0.760498046875, -0.140869140625, -0.603759765625
484, 308843574, -5.258164882659912, 1.9492253065109253, 8.144865036010742, -2.2870473861694336, -1.4581564664840698, -2.092813491821289, 0.759765625, -0.139892578125, -0.602294921875
485, 308860241, -5.261075019836426, 1.9318466186523438, 8.115675926208496, -2.3195626735687256, -1.3291709423065186, -2.2073535919189453, 0.7587890625, -0.142333984375, -0.603271484375
486, 308876908, -5.289412975311279, 1.9291553497314453, 8.148804664611816, -2.253558874130249, -1.364119529724121, -2.1438467502593994, 0.760009765625, -0.143310546875, -0.602294921875
487, 308893575, -5.2652997970581055, 1.922326683998108, 8.103925704956055, -2.233196973800659, -1.4991625547409058, -2.1472790241241455, 0.7587890625, -0.142822265625, -0.602783203125
488, 308910242, -5.254364490509033, 1.9443016052246094, 8.106240272521973, -2.1462156772613525, -1.5320490598678589, -2.028115749359131, 0.759765625, -0.143310546875, -0.603759765625
489, 308926909, -5.285248279571533, 1.954614281654358, 8.128596305847168, -2.236910581588745, -1.5518094301223755, -2.0084965229034424, 0.760498046875, -0.140869140625, -0.603271484375
490, 308943576, -5.254973411560059, 1.9515310525894165, 8.115123748779297, -2.129260540008545, -1.5277718305587769, -1.9885187149047852, 0.75537109375, -0.142333984375, -0.601318359375
491, 308960243, -5.183917045593262, 1.9564005136489868, 8.145834922790527, -1.9330545663833618, -1.1574763059616089, -2.1039297580718994, 0.760986328125, -0.141845703125, -0.6015625
492, 308976910, -5.214200973510742, 1.9678218364715576, 8.141783714294434, -1.6690388917922974, -0.6350156664848328, -2.553842544555664, 0.75830078125, -0.144287109375, -0.603759765625
493, 308993577, -5.264590263366699, 1.9294054508209229, 8.132949829101562, -1.433324933052063, -0.2636699378490448, -2.5981905460357666, 0.760986328125, -0.143310546875, -0.604248046875
494, 309010244, -5.195658206939697, 1.9516456127166748, 8.121438980102539, -1.3090649843215942, -0.1263858675956726, -2.657355785369873, 0.759521484375, -0.143310546875, -0.601806640625
495, 309026911, -5.255694389343262, 1.9263136386871338, 8.130887031555176, -0.78128981590271, -0.035960230976343155, -2.728572130203247, 0.760986328125, -0.1455078125, -0.6015625
496, 309043578, -5.370613098144531, 1.8904073238372803, 8.11019515991211, -1.2536903619766235, 0.21640808880329132, -2.5444679260253906, 0.760498046875, -0.142333984375, -0.599609375
497, 309060245, -5.354325294494629, 1.927075982093811, 8.065521240234375, -1.1804637908935547, -0.4287949800491333, -2.2822835445404053, 0.760498046875, -0.14501953125, -0.60009765625
498, 309076912, -5.2169671058654785, 1.9799808263778687, 8.048697471618652, -1.1717298030853271, -1.0103697776794434, -2.100459098815918, 0.762451171875, -0.14453125, -0.602783203125
499, 309093579, -5.030823707580566, 2.041271686553955, 8.265229225158691, -1.178491473197937, -0.12857577204704285, -2.9141619205474854, 0.760498046875, -0.1455078125, -0.59912109375
500, 309110246, -5.18621826171875, 2.011317729949951, 8.197897911071777, -0.305380254983902, 1.933803677558899, -3.966062545776367, 0.760986328125, -0.14404296875, -0.59814453125
501, 309126913, -5.332704067230225, 1.9588083028793335, 8.157812118530273, 0.8421007990837097, 3.504579544067383, -3.856863260269165, 0.763427734375, -0.1455078125, -0.59765625
502, 309143580, -5.400558948516846, 1.9450494050979614, 8.015311241149902, 0.44574424624443054, 3.8692786693573, -3.751389741897583, 0.763916015625, -0.1435546875, -0.59765625
503, 309160247, -5.452275276184082, 1.9728807210922241, 8.030009269714355, 0.05161600187420845, 3.267751932144165, -3.4046199321746826, 0.76416015625, -0.14501953125, -0.595458984375
504, 309176914, -5.51279878616333, 1.9647727012634277, 7.988257884979248, -0.35993531346321106, 1.7439368963241577, -3.3407413959503174, 0.767578125, -0.14453125, -0.593994140625
505, 309193581, -5.5409464836120605, 1.9234355688095093, 7.970512866973877, -0.8677965998649597, 0.13768745958805084, -2.7475380897521973, 0.76806640625, -0.14404296875, -0.594482421875
506, 309210248, -5.524266242980957, 1.9073634147644043, 7.99190616607666, -1.215489149093628, -1.748732566833496, -1.7260525226593018, 0.7666015625, -0.14501953125, -0.594482421875
507, 309226915, -5.485215663909912, 2.0084428787231445, 7.941534519195557, -2.054612636566162, -3.2979042530059814, -1.0375962257385254, 0.7646484375, -0.1455078125, -0.594482421875
508, 309243582, -5.410178184509277, 1.9934555292129517, 8.020033836364746, -2.5370662212371826, -4.675393581390381, -0.9389103651046753, 0.76416015625, -0.14697265625, -0.595458984375
509, 309260249, -5.329862594604492, 2.0126771926879883, 8.09730339050293, -2.5804409980773926, -4.769853115081787, -0.9314314126968384, 0.763427734375, -0.146484375, -0.594970703125
510, 309276916, -5.199613094329834, 1.984241008758545, 8.129974365234375, -2.5469272136688232, -4.087838649749756, -1.229640245437622, 0.765625, -0.14697265625, -0.594482421875
511, 309293583, -5.003368377685547, 2.1014621257781982, 8.158138275146484, -2.036952257156372, -2.364128828048706, -1.7404340505599976, 0.762939453125, -0.1474609375, -0.597412109375
512, 309310250, -5.065265655517578, 2.175647258758545, 8.289066314697266, -1.1973936557769775, 0.47093433141708374, -3.0226187705993652, 0.762939453125, -0.146484375, -0.596435546875
513, 309326917, -5.334953308105469, 1.95913827419281, 8.146947860717773, -1.388067364692688, 2.619736909866333, -3.9712488651275635, 0.7646484375, -0.1455078125, -0.595947265625
514, 309343584, -5.475302696228027, 1.8793622255325317, 7.985525131225586, -0.08392002433538437, 3.127931833267212, -3.4407079219818115, 0.76416015625, -0.14599609375, -0.593994140625
515, 309360251, -5.521626949310303, 1.897072672843933, 7.937204837799072, -0.054811183363199234, 2.2270565032958984, -2.590148687362671, 0.76611328125, -0.1474609375, -0.595458984375
516, 309376918, -5.473169326782227, 1.9967808723449707, 7.895871162414551, -0.04625653475522995, 0.974812924861908, -2.0649213790893555, 0.76611328125, -0.146484375, -0.5927734375
517, 309393585, -5.465619087219238, 2.0457873344421387, 7.955658435821533, -0.7558307647705078, -0.5023162961006165, -1.905085563659668, 0.767578125, -0.146484375, -0.594482421875
518, 309410252, -5.4673261642456055, 1.9635286331176758, 7.938773155212402, -1.1054697036743164, -1.856088399887085, -1.6845089197158813, 0.7666015625, -0.146484375, -0.5927734375
519, 309426919, -5.427310466766357, 1.9650561809539795, 7.979353427886963, -1.3837774991989136, -3.1708266735076904, -1.1191598176956177, 0.76806640625, -0.1474609375, -0.58984375
520, 309443586, -5.335569858551025, 2.052424192428589, 8.047752380371094, -1.7679039239883423, -3.7938430309295654, -1.0579710006713867, 0.7685546875, -0.148193359375, -0.59423828125
521, 309460253, -5.265777111053467, 2.079486608505249, 8.103862762451172, -1.9238852262496948, -3.707502603530884, -1.36117422580719, 0.767578125, -0.14697265625, -0.5927734375
522, 309476920, -5.277900218963623, 2.1018006801605225, 8.127129554748535, -2.046787977218628, -2.5906097888946533, -2.0662407875061035, 0.76708984375, -0.151611328125, -0.5927734375
523, 309493587, -5.280580997467041, 2.0541727542877197, 8.129220962524414, -1.9723827838897705, -1.5522191524505615, -2.416135549545288, 0.7646484375, -0.1484375, -0.593505859375
524, 309510254, -5.358785629272461, 2.0053551197052, 8.04748249053955, -1.882585048675537, -0.5354079008102417, -2.4069154262542725, 0.76611328125, -0.149658203125, -0.59326171875
525, 309526921, -5.408681869506836, 2.024266004562378, 7.996647834777832, -1.8504408597946167, -0.5458579063415527, -2.1550910472869873, 0.76611328125, -0.1484375, -0.594482421875
526, 309543588, -5.400010585784912, 2.0158894062042236, 7.994542598724365, -2.0917251110076904, -1.2394369840621948, -1.9278937578201294, 0.76611328125, -0.149658203125, -0.59375
527, 309560255, -5.388998985290527, 1.9987068176269531, 7.995609760284424, -2.1332814693450928, -1.933976411819458, -1.9028698205947876, 0.76416015625, -0.149169921875, -0.593994140625
528, 309576922, -5.389218807220459, 1.964658260345459, 8.021627426147461, -1.8238675594329834, -2.502540111541748, -1.474151849746704, 0.765625, -0.149658203125, -0.59375
529, 309593589, -5.354557514190674, 2.0114238262176514, 8.06320571899414, -1.6435924768447876, -2.5870108604431152, -1.2992169857025146, 0.765625, -0.150634765625, -0.59375
530, 309610256, -5.350232124328613, 2.090641736984253, 8.060918807983398, -1.8906527757644653, -2.4362289905548096, -1.350109577178955, 0.7666015625, -0.150634765625, -0.59375
531, 309626923, -5.324747562408447, 2.0741684436798096, 8.051534652709961, -1.8623892068862915, -2.1293630599975586, -1.6321309804916382, 0.76611328125, -0.151611328125, -0.59326171875
532, 309643590, -5.3012614250183105, 2.051412582397461, 8.098490715026855, -1.8607499599456787, -1.733710765838623, -1.8297970294952393, 0.76611328125, -0.151123046875, -0.594482421875
533, 309660257, -5.315565586090088, 2.0485243797302246, 8.071212768554688, -1.6697176694869995, -1.10329270362854, -1.8764631748199463, 0.765625, -0.151123046875, -0.59375
534, 309676924, -5.339350700378418, 2.054988145828247, 8.018253326416016, -1.5468149185180664, -0.9433029294013977, -1.9033693075180054, 0.76416015625, -0.150634765625, -0.59326171875
535, 309693591, -5.365688323974609, 2.0480194091796875, 8.029895782470703, -1.587039589881897, -0.6182777285575867, -1.9382410049438477, 0.76806640625, -0.152587890625, -0.591796875
536, 309710258, -5.35540246963501, 2.0267162322998047, 8.029435157775879, -1.427319049835205, -0.7852725982666016, -1.9134864807128906, 0.76513671875, -0.152099609375, -0.594482421875
537, 309726925, -5.342164039611816, 2.0668210983276367, 8.040050506591797, -1.5165022611618042, -0.7725687026977539, -1.9097723960876465, 0.765625, -0.153076171875, -0.59326171875
538, 309743592, -5.362800121307373, 2.0768070220947266, 8.03182315826416, -1.538490891456604, -0.9630759954452515, -1.9150744676589966, 0.76708984375, -0.152099609375, -0.5927734375
539, 309760259, -5.367282390594482, 2.0467638969421387, 8.017881393432617, -1.829118251800537, -1.2741550207138062, -1.9544923305511475, 0.76513671875, -0.151611328125, -0.59326171875
540, 309776926, -5.35307502746582, 2.0702431201934814, 8.013784408569336, -2.0344808101654053, -1.503977656364441, -2.0484778881073, 0.7666015625, -0.152099609375, -0.59326171875
541, 309793593, -5.324559211730957, 2.076326370239258, 8.024291038513184, -2.1255593299865723, -1.6455261707305908, -2.036324977874756, 0.76611328125, -0.153076171875, -0.59228515625
542, 309810260, -5.358992576599121, 2.079214096069336, 8.054842948913574, -2.265174150466919, -1.6006015539169312, -2.1042368412017822, 0.76806640625, -0.154296875, -0.5927734375
543, 309826927, -5.399112701416016, 2.0115280151367188, 8.034316062927246, -2.027052879333496, -1.7109410762786865, -1.8355211019515991, 0.76416015625, -0.151611328125, -0.5908203125
544, 309843594, -5.368790626525879, 2.065830707550049, 8.030132293701172, -2.227254867553711, -1.7575691938400269, -1.8914210796356201, 0.76513671875, -0.152587890625, -0.593994140625
545, 309860261, -5.3728861808776855, 2.06084942817688, 8.040484428405762, -2.112394332885742, -2.084707260131836, -1.7355420589447021, 0.7646484375, -0.152587890625, -0.59326171875
546, 309876928, -5.352170467376709, 2.0628771781921387, 8.028546333312988, -2.157536745071411, -2.1121766567230225, -1.6800777912139893, 0.76611328125, -0.15478515625, -0.59423828125
547, 309893595, -5.368121147155762, 2.0401456356048584, 8.01617431640625, -2.1048898696899414, -2.3789072036743164, -1.6875182390213013, 0.76806640625, -0.153564453125, -0.5947265625
548, 309910262, -5.361565589904785, 2.071507453918457, 8.025215148925781, -2.2266271114349365, -2.37548828125, -1.488059401512146, 0.76611328125, -0.152587890625, -0.59326171875
549, 309926929, -5.335204124450684, 2.0939319133758545, 8.038663864135742, -2.4090282917022705, -2.6582655906677246, -1.413846731185913, 0.7646484375, -0.153564453125, -0.59326171875
550, 309943596, -5.356599807739258, 2.059917449951172, 8.014172554016113, -2.566072940826416, -2.752225875854492, -1.4534697532653809, 0.7646484375, -0.15478515625, -0.5927734375
551, 309960263, -5.36118745803833, 2.065185546875, 8.033346176147461, -2.5562245845794678, -2.66573166847229, -1.3980823755264282, 0.76416015625, -0.154541015625, -0.595458984375
552, 309976930, -5.338834762573242, 2.070211887359619, 8.03779125213623, -2.6243414878845215, -2.673236131668091, -1.368627667427063, 0.765625, -0.15478515625, -0.59375
553, 309993597, -5.3129754066467285, 2.0552189350128174, 8.06283950805664, -2.6222798824310303, -2.5731289386749268, -1.3462421894073486, 0.763671875, -0.15673828125, -0.59326171875
554, 310010264, -5.315361976623535, 2.083510398864746, 8.062694549560547, -2.4903485774993896, -2.556736946105957, -1.3915382623672485, 0.76611328125, -0.153564453125, -0.594482421875
555, 310026931, -5.305346965789795, 2.1023905277252197, 8.069365501403809, -2.521378755569458, -2.502143383026123, -1.444979190826416, 0.763671875, -0.154052734375, -0.59375
556, 310043598, -5.32649564743042, 2.095757484436035, 8.018375396728516, -2.5017080307006836, -2.576791524887085, -1.4017703533172607, 0.762451171875, -0.154052734375, -0.593994140625
557, 310060265, -5.315457820892334, 2.058403968811035, 8.050074577331543, -2.410167932510376, -2.582387924194336, -1.4896860122680664, 0.762939453125, -0.155029296875, -0.593994140625
558, 310076932, -5.306145191192627, 2.0743322372436523, 8.060882568359375, -2.260282516479492, -2.5342745780944824, -1.3536570072174072, 0.76513671875, -0.154541015625, -0.597412109375
559, 310093599, -5.304708957672119, 2.081343173980713, 8.06540298461914, -2.0625011920928955, -2.378497838973999, -1.3415676355361938, 0.762451171875, -0.154052734375, -0.597900390625
560, 310110266, -5.311830520629883, 2.078213930130005, 8.095633506774902, -2.0114035606384277, -2.0745644569396973, -1.377297282218933, 0.762451171875, -0.155517578125, -0.594970703125
561, 310126933, -5.2988667488098145, 2.0767149925231934, 8.050725936889648, -1.7334290742874146, -1.9751231670379639, -1.415280818939209, 0.762451171875, -0.154541015625, -0.595947265625
562, 310143600, -5.319528102874756, 2.061129093170166, 8.052419662475586, -1.486752986907959, -1.9828071594238281, -1.222442865371704, 0.763671875, -0.15771484375, -0.594482421875
563, 310160267, -5.320486545562744, 2.0847561359405518, 8.056781768798828, -1.26285982131958, -1.8462915420532227, -1.1437222957611084, 0.76416015625, -0.1552734375, -0.595458984375
564, 310176934, -5.291508197784424, 2.1394762992858887, 8.064390182495117, -1.3690757751464844, -1.6373943090438843, -1.1228480339050293, 0.761962890625, -0.15673828125, -0.59375
565, 310193601, -5.3170013427734375, 2.1068379878997803, 8.052934646606445, -1.2771899700164795, -1.8565491437911987, -1.2235057353973389, 0.761962890625, -0.15869140625, -0.594970703125
566, 310210268, -5.297155857086182, 2.104929208755493, 8.046969413757324, -1.6196703910827637, -1.9763911962509155, -1.2021448612213135, 0.761474609375, -0.15673828125, -0.598388671875
567, 310226935, -5.315825462341309, 2.108830690383911, 8.066511154174805, -1.312279462814331, -1.8862216472625732, -1.1564005613327026, 0.762939453125, -0.158203125, -0.594970703125
568, 310243602, -5.2260894775390625, 2.1096603870391846, 8.07577133178711, -1.4012707471847534, -1.5819683074951172, -1.1104642152786255, 0.761474609375, -0.15869140625, -0.593994140625
569, 310260269, -5.309601783752441, 2.142073154449463, 8.00145149230957, -1.3589330911636353, -1.3701642751693726, -1.4912866353988647, 0.760498046875, -0.158203125, -0.595458984375
570, 310276936, -5.32478141784668, 2.108278512954712, 8.06296443939209, -1.8036333322525024, -1.298653483390808, -1.355423927307129, 0.762451171875, -0.15966796875, -0.594970703125
571, 310293603, -5.295114040374756, 2.124387264251709, 8.016447067260742, -1.6017670631408691, -1.303263783454895, -1.3588690757751465, 0.760498046875, -0.1591796875, -0.596923828125
572, 310310270, -5.277146339416504, 2.120236873626709, 8.09261417388916, -1.473575472831726, -1.3708940744400024, -1.3521713018417358, 0.760498046875, -0.15966796875, -0.595458984375
573, 310326937, -5.328790664672852, 2.120405435562134, 8.0387601852417, -1.6898874044418335, -1.3872733116149902, -1.5642571449279785, 0.761962890625, -0.15869140625, -0.595458984375
574, 310343604, -5.325317859649658, 2.1259446144104004, 8.05665397644043, -1.6554384231567383, -1.7862039804458618, -1.5386571884155273, 0.761474609375, -0.16064453125, -0.595947265625
575, 310360271, -5.329592227935791, 2.1407394409179688, 8.03098201751709, -1.8021479845046997, -1.9117703437805176, -1.3986966609954834, 0.762939453125, -0.161865234375, -0.595458984375
576, 310376938, -5.317726135253906, 2.0859580039978027, 8.03422737121582, -1.7506152391433716, -1.9677083492279053, -1.1930906772613525, 0.762939453125, -0.1611328125, -0.594482421875
577, 310393605, -5.273061752319336, 2.181462526321411, 8.069296836853027, -1.5606073141098022, -1.9977264404296875, -1.3246376514434814, 0.760498046875, -0.1611328125, -0.593994140625
578, 310410272, -5.30283784866333, 2.173570394515991, 8.026761054992676, -1.999942421913147, -1.83384370803833, -1.5830570459365845, 0.760009765625, -0.16162109375, -0.595458984375
579, 310426939, -5.3184709548950195, 2.1023452281951904, 8.055419921875, -2.0329694747924805, -2.0207138061523438, -1.4888404607772827, 0.760009765625, -0.162109375, -0.594482421875
580, 310443606, -5.284875392913818, 2.154602527618408, 8.045672416687012, -1.9505735635757446, -1.9812835454940796, -1.3291455507278442, 0.761474609375, -0.162841796875, -0.597900390625
581, 310460273, -5.265319347381592, 2.155444383621216, 8.053181648254395, -1.8848897218704224, -1.9501124620437622, -1.3974802494049072, 0.761962890625, -0.162841796875, -0.595947265625
582, 310476940, -5.304808616638184, 2.149273157119751, 8.037823677062988, -2.002349853515625, -1.7150135040283203, -1.466596007347107, 0.760009765625, -0.162841796875, -0.597900390625
583, 310493607, -5.293696403503418, 2.2145156860351562, 8.053548812866211, -2.0278215408325195, -1.8074880838394165, -1.4424943923950195, 0.761474609375, -0.16162109375, -0.595458984375
584, 310510274, -5.303366184234619, 2.166869640350342, 8.046738624572754, -2.1087446212768555, -1.7869595289230347, -1.624293327331543, 0.760498046875, -0.162109375, -0.595947265625
585, 310526941, -5.270451068878174, 2.1683995723724365, 8.066520690917969, -2.102354049682617, -1.8394910097122192, -1.7794421911239624, 0.760986328125, -0.163330078125, -0.596435546875
586, 310543608, -5.277403354644775, 2.15557599067688, 8.064640045166016, -2.0545098781585693, -1.8563570976257324, -1.780684471130371, 0.761962890625, -0.163330078125, -0.59423828125
587, 310560275, -5.275461673736572, 2.166208267211914, 8.071186065673828, -1.98944091796875, -1.65780770778656, -1.776176929473877, 0.760009765625, -0.163330078125, -0.594970703125
588, 310576942, -5.281054496765137, 2.177018404006958, 8.048985481262207, -2.011467933654785, -1.478339433670044, -1.8094091415405273, 0.761474609375, -0.164306640625, -0.5947265625
589, 310593609, -5.285951137542725, 2.165544033050537, 8.033574104309082, -2.11348295211792, -1.4790053367614746, -2.006319522857666, 0.760498046875, -0.163818359375, -0.595458984375
590, 310610276, -5.281733512878418, 2.1494216918945312, 8.058770179748535, -2.13348650932312, -1.535622239112854, -1.876360535621643, 0.760498046875, -0.162841796875, -0.596435546875
591, 310626943, -5.291946887969971, 2.1601722240448, 8.059375762939453, -1.905982255935669, -1.4194432497024536, -1.8720581531524658, 0.760986328125, -0.165283203125, -0.597412109375
592, 310643610, -5.307547569274902, 2.167724847793579, 8.045381546020508, -1.888155221939087, -1.4284201860427856, -1.742892861366272, 0.761474609375, -0.163818359375, -0.596435546875
593, 310660277, -5.2947845458984375, 2.1837480068206787, 8.064427375793457, -2.010136127471924, -1.5671387910842896, -1.8277994394302368, 0.761474609375, -0.162353515625, -0.594970703125
594, 310676944, -5.291261196136475, 2.1785221099853516, 8.052011489868164, -2.1943423748016357, -1.6078243255615234, -2.0956308841705322, 0.759033203125, -0.165771484375, -0.594482421875
595, 310693611, -5.292994499206543, 2.171590805053711, 8.031150817871094, -2.293693780899048, -1.6774781942367554, -2.155423641204834, 0.760986328125, -0.164306640625, -0.595458984375
596, 310710278, -5.292272090911865, 2.167931318283081, 8.041114807128906, -2.320382833480835, -1.5372743606567383, -2.15305495262146, 0.758544921875, -0.163818359375, -0.595947265625
597, 310726945, -5.296126842498779, 2.185262441635132, 8.051891326904297, -2.39335298538208, -1.5901771783828735, -2.079533338546753, 0.760009765625, -0.165283203125, -0.594482421875
598, 310743612, -5.2904438972473145, 2.178779363632202, 8.030076026916504, -2.5290746688842773, -1.5862200260162354, -2.2480905055999756, 0.759033203125, -0.165283203125, -0.593994140625
599, 310760279, -5.273655891418457, 2.1920206546783447, 8.052311897277832, -2.5669310092926025, -1.6569371223449707, -2.4182233810424805, 0.760009765625, -0.165283203125, -0.595458984375
600, 310776946, -5.3028244972229, 2.1636312007904053, 8.045476913452148, -2.506497621536255, -1.7606043815612793, -2.447908639907837, 0.760986328125, -0.165283203125, -0.5947265625
601, 310793613, -5.305379867553711, 2.157089948654175, 8.044201850891113, -2.569594383239746, -1.7295362949371338, -2.3195505142211914, 0.761962890625, -0.164794921875, -0.595458984375
602, 310810280, -5.292078018188477, 2.1772661209106445, 8.034170150756836, -2.4261887073516846, -1.6051737070083618, -2.2313144207000732, 0.761962890625, -0.164794921875, -0.596923828125
603, 310826947, -5.281371593475342, 2.1788363456726074, 8.041858673095703, -2.5168957710266113, -1.6153672933578491, -2.331447124481201, 0.760498046875, -0.163330078125, -0.596923828125
604, 310843614, -5.288095474243164, 2.1733250617980957, 8.04765796661377, -2.606694221496582, -1.7339286804199219, -2.3191275596618652, 0.760498046875, -0.165283203125, -0.594970703125
605, 310860281, -5.290866851806641, 2.161118507385254, 8.052538871765137, -2.5975124835968018, -1.611845850944519, -2.4618802070617676, 0.759033203125, -0.163330078125, -0.595947265625
606, 310876948, -5.284316062927246, 2.1558213233947754, 8.065093040466309, -2.5523059368133545, -1.6757879257202148, -2.393084764480591, 0.760009765625, -0.16162109375, -0.596923828125
607, 310893615, -5.290193557739258, 2.1868865489959717, 8.052717208862305, -2.4997735023498535, -1.5762693881988525, -2.367023229598999, 0.75830078125, -0.163330078125, -0.597412109375
608, 310910282, -5.284649848937988, 2.1744232177734375, 8.059813499450684, -2.6449341773986816, -1.4400358200073242, -2.5059211254119873, 0.760009765625, -0.165771484375, -0.59423828125
609, 310926949, -5.280942916870117, 2.1699843406677246, 8.028368949890137, -2.7049577236175537, -1.4813364744186401, -2.5557637214660645, 0.759521484375, -0.16015625, -0.594970703125
610, 310943616, -5.271773338317871, 2.153475284576416, 8.03996467590332, -2.687694549560547, -1.4897115230560303, -2.642436981201172, 0.760498046875, -0.162841796875, -0.59326171875
611, 310960283, -5.298559188842773, 2.160520553588867, 8.044698715209961, -2.7257297039031982, -1.4269733428955078, -2.5836942195892334, 0.761474609375, -0.16162109375, -0.595947265625
612, 310976950, -5.280167102813721, 2.153745412826538, 8.036870956420898, -2.7646729946136475, -1.6604969501495361, -2.5737690925598145, 0.760986328125, -0.165771484375, -0.59228515625
613, 310993617, -5.26495885848999, 2.1709797382354736, 8.062766075134277, -2.7527127265930176, -1.4801453351974487, -2.571502447128296, 0.760009765625, -0.16162109375, -0.593994140625
614, 311010284, -5.2815399169921875, 2.1575944423675537, 8.0452241897583, -2.7807199954986572, -1.4148329496383667, -2.6199748516082764, 0.759521484375, -0.16259765625, -0.594970703125
615, 311026951, -5.302135944366455, 2.1441056728363037, 8.053732872009277, -2.78800630569458, -1.512801170349121, -2.6103436946868896, 0.759521484375, -0.1611328125, -0.596435546875
616, 311043618, -5.306379318237305, 2.1306827068328857, 8.067785263061523, -2.810250759124756, -1.5204081535339355, -2.7416086196899414, 0.759521484375, -0.16162109375, -0.594482421875
617, 311060285, -5.28751802444458, 2.1740665435791016, 8.033873558044434, -2.7903242111206055, -1.513569712638855, -2.7644553184509277, 0.761474609375, -0.162353515625, -0.597412109375
618, 311076952, -5.289552211761475, 2.1644904613494873, 8.045504570007324, -2.7246787548065186, -1.4815537929534912, -2.682276964187622, 0.761474609375, -0.162353515625, -0.599365234375
619, 311093619, -5.306211948394775, 2.1194324493408203, 8.047494888305664, -2.689436435699463, -1.3746082782745361, -2.688847303390503, 0.760498046875, -0.1611328125, -0.595458984375
620, 311110286, -5.3085150718688965, 2.1572253704071045, 8.024970054626465, -2.6835198402404785, -1.5390417575836182, -2.603224039077759, 0.760009765625, -0.162841796875, -0.595458984375
621, 311126953, -5.316702842712402, 2.1398863792419434, 8.007783889770508, -2.776979923248291, -1.7329295873641968, -2.577380418777466, 0.761474609375, -0.162109375, -0.596923828125
622, 311143620, -5.286098480224609, 2.1448044776916504, 8.042953491210938, -2.843470335006714, -1.781388759613037, -2.4725217819213867, 0.760498046875, -0.162109375, -0.595947265625
623, 311160287, -5.285852909088135, 2.1489999294281006, 8.052379608154297, -2.72890567779541, -1.671280026435852, -2.365473985671997, 0.760986328125, -0.162841796875, -0.595947265625
624, 311176954, -5.286637783050537, 2.1423399448394775, 8.070016860961914, -2.6158506870269775, -1.292532205581665, -2.3842990398406982, 0.762451171875, -0.16162109375, -0.59423828125
625, 311193621, -5.312088966369629, 2.134978771209717, 8.031563758850098, -2.575356960296631, -1.306875228881836, -2.406787157058716, 0.759521484375, -0.16064453125, -0.594970703125
626, 311210288, -5.309709548950195, 2.1338088512420654, 8.060041427612305, -2.5988056659698486, -1.3887207508087158, -2.2902748584747314, 0.760009765625, -0.16064453125, -0.596923828125
627, 311226955, -5.271487236022949, 2.138154983520508, 8.046464920043945, -2.46593976020813, -1.4382556676864624, -2.2528674602508545, 0.760498046875, -0.16162109375, -0.594482421875
628, 311243622, -5.288043975830078, 2.140556812286377, 8.020703315734863, -2.492781639099121, -1.3163007497787476, -2.3696742057800293, 0.761962890625, -0.16064453125, -0.595947265625
629, 311260289, -5.304202079772949, 2.1306610107421875, 8.046689987182617, -2.439391851425171, -1.3683072328567505, -2.2236433029174805, 0.760009765625, -0.1611328125, -0.595458984375
630, 311276956, -5.313523292541504, 2.155888319015503, 8.050932884216309, -2.568800449371338, -1.4646750688552856, -2.256504535675049, 0.762451171875, -0.16064453125, -0.595947265625
631, 311293623, -5.3067097663879395, 2.119215250015259, 8.0338134765625, -2.5811455249786377, -1.6471272706985474, -2.079674482345581, 0.763427734375, -0.16015625, -0.595458984375
632, 311310290, -5.303368091583252, 2.1905970573425293, 8.032368659973145, -2.661825656890869, -1.6399813890457153, -2.211477518081665, 0.762451171875, -0.162353515625, -0.5947265625
633, 311326957, -5.262523651123047, 2.1129462718963623, 8.080293655395508, -2.762265920639038, -1.5834286212921143, -2.4862122535705566, 0.760009765625, -0.162841796875, -0.594482421875
634, 311343624, -5.286308765411377, 2.1438963413238525, 8.05921745300293, -2.86462664604187, -1.3582156896591187, -2.6201791763305664, 0.759033203125, -0.16015625, -0.596435546875
635, 311360291, -5.322999954223633, 2.1439602375030518, 8.053329467773438, -2.7297635078430176, -1.3285565376281738, -2.446499824523926, 0.760009765625, -0.16015625, -0.595458984375
636, 311376958, -5.299720764160156, 2.1113176345825195, 8.035804748535156, -2.726818084716797, -1.3861210346221924, -2.5117483139038086, 0.761474609375, -0.1611328125, -0.59423828125
637, 311393625, -5.30670690536499, 2.1247596740722656, 8.0444974899292, -2.554969310760498, -1.388656497001648, -2.4515066146850586, 0.760986328125, -0.16162109375, -0.595947265625
638, 311410292, -5.290574073791504, 2.1443660259246826, 8.052275657653809, -2.5448782444000244, -1.3806527853012085, -2.4520576000213623, 0.760498046875, -0.16064453125, -0.595458984375
639, 311426959, -5.300411701202393, 2.1293654441833496, 8.06087589263916, -2.5691330432891846, -1.1667351722717285, -2.487633228302002, 0.762451171875, -0.1591796875, -0.596923828125
640, 311443626, -5.309832572937012, 2.1275482177734375, 8.0344877243042, -2.4631478786468506, -1.2114167213439941, -2.53513240814209, 0.760498046875, -0.1611328125, -0.594482421875
641, 311460293, -5.313657283782959, 2.108421564102173, 8.025514602661133, -2.4666566848754883, -1.23094642162323, -2.505856990814209, 0.762939453125, -0.158203125, -0.59375
642, 311476960, -5.306480884552002, 2.1238584518432617, 8.038206100463867, -2.387244701385498, -1.2587488889694214, -2.4462432861328125, 0.760498046875, -0.1611328125, -0.594482421875
643, 311493627, -5.314214706420898, 2.113837480545044, 8.052909851074219, -2.2566967010498047, -1.2710046768188477, -2.4168782234191895, 0.760498046875, -0.16015625, -0.598388671875
644, 311510294, -5.318182945251465, 2.1182096004486084, 8.066078186035156, -2.250382900238037, -1.3380844593048096, -2.2929513454437256, 0.760986328125, -0.16015625, -0.595458984375
645, 311526961, -5.303421974182129, 2.135444402694702, 8.043179512023926, -2.2172529697418213, -1.4077507257461548, -2.2882256507873535, 0.760498046875, -0.16162109375, -0.594970703125
646, 311543628, -5.281880855560303, 2.1243703365325928, 8.048799514770508, -2.266467809677124, -1.3617119789123535, -2.3033246994018555, 0.760009765625, -0.1591796875, -0.596923828125
647, 311560295, -5.2939934730529785, 2.129995584487915, 8.057363510131836, -2.172379732131958, -1.3064014911651611, -2.378779411315918, 0.762939453125, -0.1611328125, -0.596435546875
648, 311576962, -5.317641258239746, 2.130286931991577, 8.05522346496582, -2.1971595287323, -1.3133679628372192, -2.261626720428467, 0.761962890625, -0.16162109375, -0.595458984375
649, 311593629, -5.354943752288818, 2.1272695064544678, 8.017048835754395, -2.0596323013305664, -1.4779679775238037, -2.1463568210601807, 0.760986328125, -0.1591796875, -0.595947265625
650, 311610296, -5.3225483894348145, 2.1269569396972656, 8.04554557800293, -2.1827011108398438, -1.6277382373809814, -2.053651809692383, 0.762451171875, -0.15966796875, -0.594970703125
651, 311626963, -5.299000263214111, 2.134117603302002, 8.048370361328125, -2.191358804702759, -1.5348284244537354, -2.0914180278778076, 0.762451171875, -0.16015625, -0.59423828125
652, 311643630, -5.314083576202393, 2.1381912231445312, 8.0289945602417, -2.1764261722564697, -1.4422894716262817, -2.147407054901123, 0.761962890625, -0.16162109375, -0.59375
653, 311660297, -5.313745975494385, 2.1271274089813232, 8.038939476013184, -2.1211414337158203, -1.4700922966003418, -2.0500662326812744, 0.762451171875, -0.15966796875, -0.59375
654, 311676964, -5.310626983642578, 2.1317460536956787, 8.05520248413086, -2.185122013092041, -1.5262607336044312, -2.1476378440856934, 0.760498046875, -0.16064453125, -0.59326171875
