sep=,
DeviceTag:,B,,,,,,,,,,,,,,,,,
FirmwareVersion:,2.2.1,,,,,,,,,,,,,,,,,
AppVersion:,2022.0.1,,,,,,,,,,,,,,,,,
SyncStatus:,Synced,,,,,,,,,,,,,,,,,
OutputRate:,60Hz,,,,,,,,,,,,,,,,,
FilterProfile:,General,,,,,,,,,,,,,,,,,
Measurement Mode:,Inertial Mode - Rate quantities (with mag),,,,,,,,,,,,,,,,,
StartTime:,2022-08-16 15:14:37.997 +0300,,,,,,,,,,,,,,,,,
© Xsens Technologies B. V. 2005-2022,,,,,,,,,,,,,,,,,,,

PacketCounter,SampleTimeFine,Acc_X,Acc_Y,Acc_Z,Gyr_X,Gyr_Y,Gyr_Z,Mag_X,Mag_Y,Mag_Z
1, 300776746, -5.378378868103027, -1.7313072681427002, 7.86086368560791, -0.22274082899093628, -0.4970143437385559, -1.6713309288024902, 0.728271484375, 0.05078125, -0.62451171875
2, 300793413, -5.395676612854004, -1.7123100757598877, 7.881094932556152, -0.12349163740873337, -0.6968319416046143, -1.667707085609436, 0.731689453125, 0.054931640625, -0.62255859375
3, 300810080, -5.386879920959473, -1.7221676111221313, 7.8665900230407715, -0.1661495715379715, -0.7588146328926086, -1.6979809999465942, 0.727294921875, 0.05419921875, -0.625732421875
4, 300826747, -5.3664774894714355, -1.7263028621673584, 7.884027004241943, -0.13929466903209686, -0.7624260187149048, -1.779711127281189, 0.729248046875, 0.054443359375, -0.62158203125
5, 300843414, -5.368261337280273, -1.7295523881912231, 7.881139755249023, -0.02946741320192814, -0.6700795292854309, -1.6555794477462769, 0.729248046875, 0.054931640625, -0.62158203125
6, 300860081, -5.37353515625, -1.7128040790557861, 7.864517688751221, -0.2165297567844391, -0.6482317447662354, -1.6982115507125854, 0.72705078125, 0.0537109375, -0.6220703125
7, 300876748, -5.3607964515686035, -1.7055152654647827, 7.898698329925537, -0.1870623379945755, -0.760786771774292, -1.6892342567443848, 0.72705078125, 0.054443359375, -0.62255859375
8, 300893415, -5.368671894073486, -1.7132140398025513, 7.884450435638428, -0.2112535685300827, -0.7653587460517883, -1.5523985624313354, 0.729736328125, 0.05224609375, -0.6220703125
9, 300910082, -5.390318870544434, -1.7214014530181885, 7.85834264755249, -0.16101424396038055, -0.8281994462013245, -1.5926618576049805, 0.730712890625, 0.0537109375, -0.62255859375
10, 300926749, -5.3741607666015625, -1.711809754371643, 7.862157821655273, -0.023794198408722878, -0.836497962474823, -1.6138818264007568, 0.728271484375, 0.054931640625, -0.625
11, 300943416, -5.3435378074646, -1.7324742078781128, 7.8684916496276855, -0.09570185840129852, -0.7664088010787964, -1.6221932172775269, 0.726318359375, 0.0517578125, -0.625244140625
12, 300960083, -5.365895748138428, -1.6944875717163086, 7.899196624755859, -0.17972432076931, -0.5798459053039551, -1.618312954902649, 0.727783203125, 0.052734375, -0.625
13, 300976750, -5.366314888000488, -1.7182854413986206, 7.857594013214111, 0.08892089128494263, -0.6374488472938538, -1.4305205345153809, 0.727783203125, 0.052734375, -0.62255859375
14, 300993417, -5.359609603881836, -1.7384120225906372, 7.863748073577881, 0.05681537464261055, -0.7936094999313354, -1.4105554819107056, 0.728759765625, 0.0517578125, -0.6240234375
15, 301010084, -5.372333526611328, -1.698718786239624, 7.8811140060424805, -0.009054088965058327, -0.9696968197822571, -1.4797223806381226, 0.727294921875, 0.05322265625, -0.6240234375
16, 301026751, -5.36078405380249, -1.7048474550247192, 7.869585990905762, -0.1001584529876709, -1.0470342636108398, -1.6601253747940063, 0.726318359375, 0.052734375, -0.623046875
17, 301043418, -5.378711223602295, -1.697035789489746, 7.900326728820801, -0.06967933475971222, -1.0561267137527466, -1.679091453552246, 0.728271484375, 0.0537109375, -0.62353515625
18, 301060085, -5.3720479011535645, -1.714943528175354, 7.882599353790283, -0.13531188666820526, -1.0452029705047607, -1.706650972366333, 0.729736328125, 0.052734375, -0.623046875
19, 301076752, -5.357796669006348, -1.7026640176773071, 7.87738561630249, -0.20657922327518463, -0.9945153594017029, -1.6807565689086914, 0.727783203125, 0.0537109375, -0.6240234375
20, 301093419, -5.353700160980225, -1.7156267166137695, 7.901692867279053, -0.32224613428115845, -0.7785107493400574, -1.687185287475586, 0.729248046875, 0.052734375, -0.623046875
21, 301110086, -5.367239475250244, -1.7175933122634888, 7.904386043548584, -0.3211960196495056, -0.8071328401565552, -1.7417017221450806, 0.728271484375, 0.0537109375, -0.62451171875
22, 301126753, -5.347146511077881, -1.7027651071548462, 7.913626670837402, -0.3850996792316437, -0.7147095203399658, -1.7634596824645996, 0.727294921875, 0.052734375, -0.62255859375
23, 301143420, -5.341884136199951, -1.705407977104187, 7.8765034675598145, -0.45266610383987427, -0.5887464284896851, -1.6627509593963623, 0.729248046875, 0.052734375, -0.623046875
24, 301160087, -5.374846935272217, -1.6893343925476074, 7.889640808105469, -0.646963894367218, -0.562467634677887, -1.8981186151504517, 0.727783203125, 0.052734375, -0.62451171875
25, 301176754, -5.3524370193481445, -1.7054356336593628, 7.890581130981445, -0.6384605765342712, -0.5922808051109314, -1.9821926355361938, 0.728759765625, 0.054443359375, -0.625
26, 301193421, -5.377839088439941, -1.7078182697296143, 7.884243488311768, -0.595700204372406, -0.5724054574966431, -1.946065902709961, 0.728271484375, 0.05419921875, -0.62451171875
27, 301210088, -5.369163990020752, -1.7223472595214844, 7.880338191986084, -0.6467979550361633, -0.6505247950553894, -1.9613460302352905, 0.727783203125, 0.052734375, -0.6240234375
28, 301226755, -5.366436958312988, -1.7137715816497803, 7.86784029006958, -0.647975742816925, -0.6617553234100342, -1.9191083908081055, 0.728759765625, 0.05419921875, -0.6240234375
29, 301243422, -5.371528148651123, -1.715963363647461, 7.880705833435059, -0.5933950543403625, -0.9090203642845154, -1.9855477809906006, 0.728759765625, 0.05224609375, -0.62451171875
30, 301260089, -5.377140522003174, -1.7146034240722656, 7.879659175872803, -0.5673213601112366, -0.9783539772033691, -1.9654420614242554, 0.728271484375, 0.052734375, -0.62451171875
31, 301276756, -5.366418838500977, -1.7178739309310913, 7.840709209442139, -0.5300164222717285, -1.0956984758377075, -2.1100640296936035, 0.730224609375, 0.052734375, -0.62353515625
32, 301293423, -5.361104488372803, -1.7102550268173218, 7.907888889312744, -0.45422840118408203, -1.1595765352249146, -2.192997694015503, 0.727783203125, 0.055419921875, -0.6220703125
33, 301310090, -5.351377964019775, -1.7083258628845215, 7.892702102661133, -0.5660918951034546, -1.1800154447555542, -2.1437318325042725, 0.727783203125, 0.05322265625, -0.625732421875
34, 301326757, -5.346353054046631, -1.732129454612732, 7.885764122009277, -0.4158990681171417, -1.1807070970535278, -2.068251132965088, 0.727294921875, 0.05224609375, -0.62158203125
35, 301343424, -5.3318328857421875, -1.7122218608856201, 7.907552719116211, -0.4394114911556244, -1.1779537200927734, -2.0372469425201416, 0.727294921875, 0.054931640625, -0.6240234375
36, 301360091, -5.350622177124023, -1.7138391733169556, 7.900944232940674, -0.5766059756278992, -0.9583504796028137, -2.0567638874053955, 0.727783203125, 0.05419921875, -0.623046875
37, 301376758, -5.3526611328125, -1.7389137744903564, 7.921932220458984, -0.5592405200004578, -0.7533207535743713, -2.115532159805298, 0.727783203125, 0.055419921875, -0.625244140625
38, 301393425, -5.354149341583252, -1.7267532348632812, 7.86092472076416, -0.5395827293395996, -0.7265810966491699, -2.090303659439087, 0.7265625, 0.055419921875, -0.6240234375
39, 301410092, -5.343514919281006, -1.7394051551818848, 7.888786792755127, -0.5124461054801941, -0.8483694791793823, -1.980450987815857, 0.726318359375, 0.0537109375, -0.625732421875
40, 301426759, -5.332982540130615, -1.740559458732605, 7.909524440765381, -0.5546429753303528, -0.6976770758628845, -1.8284393548965454, 0.727294921875, 0.052734375, -0.6240234375
41, 301443426, -5.35398006439209, -1.725449800491333, 7.898127555847168, -0.7605434656143188, -0.45772460103034973, -1.9271509647369385, 0.727294921875, 0.054443359375, -0.62451171875
42, 301460093, -5.344526290893555, -1.7376699447631836, 7.869896411895752, -1.058047890663147, -0.32868778705596924, -1.933144211769104, 0.72607421875, 0.0537109375, -0.6240234375
43, 301476760, -5.351823329925537, -1.714416265487671, 7.879392147064209, -1.1493443250656128, -0.22772254049777985, -2.074103593826294, 0.727783203125, 0.054443359375, -0.625244140625
44, 301493427, -5.343480110168457, -1.7190128564834595, 7.8558759689331055, -1.4682480096817017, -0.0864940881729126, -2.0983591079711914, 0.728759765625, 0.055419921875, -0.62255859375
45, 301510094, -5.3518757820129395, -1.7069841623306274, 7.910501956939697, -1.845894455909729, 0.19908109307289124, -2.3321642875671387, 0.728271484375, 0.055419921875, -0.625
46, 301526761, -5.358232498168945, -1.7247960567474365, 7.907276630401611, -2.0854246616363525, 0.33180612325668335, -2.4684367179870605, 0.727783203125, 0.055419921875, -0.62353515625
47, 301543428, -5.347327709197998, -1.730858564376831, 7.891759395599365, -1.9840106964111328, 0.4130239486694336, -2.495009660720825, 0.728759765625, 0.057861328125, -0.62158203125
48, 301560095, -5.3778276443481445, -1.7651102542877197, 7.866341590881348, -1.9076212644577026, 0.46159854531288147, -2.34527850151062, 0.7265625, 0.057373046875, -0.623046875
49, 301576762, -5.386556625366211, -1.771395206451416, 7.840601921081543, -1.9823591709136963, 0.20111733675003052, -2.433001756668091, 0.730224609375, 0.056396484375, -0.62353515625
50, 301593429, -5.374221324920654, -1.7625118494033813, 7.852212429046631, -1.6464356184005737, 0.028167566284537315, -2.337606906890869, 0.729248046875, 0.058349609375, -0.623046875
51, 301610096, -5.35394811630249, -1.7809690237045288, 7.846892356872559, -0.9932604432106018, -0.1217883974313736, -2.0493743419647217, 0.728515625, 0.058349609375, -0.62109375
52, 301626763, -5.362602710723877, -1.7778621912002563, 7.8599958419799805, -1.1235523223876953, -0.20710429549217224, -2.077817678451538, 0.72705078125, 0.057373046875, -0.62109375
53, 301643430, -5.374543190002441, -1.7697992324829102, 7.867241382598877, -1.0006625652313232, -0.2844546437263489, -1.988595724105835, 0.728515625, 0.058837890625, -0.625244140625
54, 301660097, -5.3561015129089355, -1.770854115486145, 7.861865997314453, -0.9136178493499756, -0.2693943381309509, -2.0192413330078125, 0.730224609375, 0.06005859375, -0.6240234375
55, 301676764, -5.377841949462891, -1.7509074211120605, 7.860210418701172, -0.8913092017173767, -0.3412764370441437, -1.974393367767334, 0.728271484375, 0.057861328125, -0.62451171875
56, 301693431, -5.351956367492676, -1.7847565412521362, 7.850972652435303, -0.9851029515266418, -0.28636282682418823, -1.920670747756958, 0.729248046875, 0.058349609375, -0.623046875
57, 301710098, -5.347869873046875, -1.7656354904174805, 7.912808895111084, -1.1266770362854004, 3.7778730620630085E-4, -1.9174565076828003, 0.728515625, 0.05859375, -0.6220703125
58, 301726765, -5.360849857330322, -1.7766058444976807, 7.88308048248291, -1.2831833362579346, 0.35262924432754517, -1.9125900268554688, 0.72900390625, 0.0615234375, -0.62353515625
59, 301743432, -5.354972839355469, -1.8074451684951782, 7.857107639312744, -1.1149719953536987, 0.3571498990058899, -1.9583853483200073, 0.72802734375, 0.05908203125, -0.624267578125
60, 301760099, -5.356766223907471, -1.8003759384155273, 7.838603973388672, -1.0576893091201782, 0.41769829392433167, -1.9526610374450684, 0.73046875, 0.06103515625, -0.62109375
61, 301776766, -5.381265640258789, -1.7683725357055664, 7.86454963684082, -1.0022376775741577, 0.41891488432884216, -1.7674554586410522, 0.730224609375, 0.060546875, -0.62255859375
62, 301793433, -5.396844387054443, -1.7806023359298706, 7.854074001312256, -0.9821062088012695, 0.36355307698249817, -1.9144213199615479, 0.730712890625, 0.0595703125, -0.619873046875
63, 301810100, -5.412856578826904, -1.7907607555389404, 7.827592372894287, -0.8683602213859558, 0.009777648374438286, -1.9076212644577026, 0.730712890625, 0.0595703125, -0.62109375
64, 301826767, -5.393026351928711, -1.7962744235992432, 7.819005966186523, -0.567026674747467, -0.25657519698143005, -1.746593952178955, 0.729736328125, 0.05908203125, -0.6220703125
65, 301843434, -5.364213943481445, -1.7975229024887085, 7.847956657409668, -0.4619505703449249, -0.43895038962364197, -1.776509404182434, 0.731201171875, 0.06005859375, -0.62109375
66, 301860101, -5.395838260650635, -1.7833287715911865, 7.86741828918457, -0.42577266693115234, -0.24885298311710358, -1.734466314315796, 0.730712890625, 0.060546875, -0.62060546875
67, 301876768, -5.384798526763916, -1.7998334169387817, 7.869548320770264, -0.43755456805229187, -0.19201843440532684, -1.6742255687713623, 0.72900390625, 0.060546875, -0.62158203125
68, 301893435, -5.381007671356201, -1.7817336320877075, 7.861708641052246, -0.5127661228179932, -0.2709951102733612, -1.8063225746154785, 0.7294921875, 0.06103515625, -0.62158203125
69, 301910102, -5.393001556396484, -1.7917382717132568, 7.850263595581055, -0.5136627554893494, -0.1579023152589798, -1.7082774639129639, 0.72998046875, 0.060546875, -0.619873046875
70, 301926769, -5.390185356140137, -1.7868616580963135, 7.839712142944336, -0.39971181750297546, -0.3887495994567871, -1.6874672174453735, 0.73046875, 0.06103515625, -0.62109375
71, 301943436, -5.3864240646362305, -1.7776726484298706, 7.84418249130249, -0.4166801869869232, -0.38885200023651123, -1.6635959148406982, 0.731689453125, 0.0625, -0.62109375
72, 301960103, -5.396988868713379, -1.771432638168335, 7.8518967628479, -0.3218875527381897, -0.5656179785728455, -1.7061643600463867, 0.732177734375, 0.0595703125, -0.620849609375
73, 301976770, -5.35142707824707, -1.7962230443954468, 7.845302581787109, -0.33256807923316956, -0.6443386673927307, -1.682869553565979, 0.731689453125, 0.06103515625, -0.618408203125
74, 301993437, -5.385181903839111, -1.786257266998291, 7.850460529327393, -0.30635350942611694, -0.40722909569740295, -1.7036670446395874, 0.730224609375, 0.05859375, -0.619873046875
75, 302010104, -5.376873970031738, -1.7801560163497925, 7.862651348114014, -0.36206117272377014, -0.37367650866508484, -1.7185609340667725, 0.731689453125, 0.0615234375, -0.618896484375
76, 302026771, -5.378052711486816, -1.8036702871322632, 7.844878673553467, -0.3446316719055176, -0.2391841858625412, -1.5754115581512451, 0.731201171875, 0.06005859375, -0.62109375
77, 302043438, -5.3772172927856445, -1.791648030281067, 7.874639987945557, -0.26849791407585144, -0.12155786156654358, -1.5555744171142578, 0.731201171875, 0.06103515625, -0.62255859375
78, 302060105, -5.408741474151611, -1.7808150053024292, 7.84356164932251, -0.2708286941051483, -0.14040882885456085, -1.5661909580230713, 0.72900390625, 0.05908203125, -0.62060546875
79, 302076772, -5.392762184143066, -1.8138335943222046, 7.829205513000488, -0.29617244005203247, -0.22804264724254608, -1.5036190748214722, 0.728759765625, 0.057373046875, -0.62109375
80, 302093439, -5.387487888336182, -1.7950102090835571, 7.833698749542236, -0.258137583732605, -0.24279554188251495, -1.4673001766204834, 0.7294921875, 0.06201171875, -0.6201171875
81, 302110106, -5.406022548675537, -1.7800852060317993, 7.847923278808594, -0.14307254552841187, -0.21550525724887848, -1.448372721672058, 0.732177734375, 0.06005859375, -0.620849609375
82, 302126773, -5.406496047973633, -1.7750059366226196, 7.84044075012207, -0.13007408380508423, -0.2542957067489624, -1.533586025238037, 0.7294921875, 0.06005859375, -0.618896484375
83, 302143440, -5.403122425079346, -1.794134497642517, 7.847475528717041, -0.09522802382707596, -0.4680977463722229, -1.5000591278076172, 0.731201171875, 0.06103515625, -0.62353515625
84, 302160107, -5.402402877807617, -1.7836880683898926, 7.871788501739502, -0.2555379271507263, -0.5509548187255859, -1.531306505203247, 0.73046875, 0.060546875, -0.619384765625
85, 302176774, -5.4026713371276855, -1.7834606170654297, 7.861992359161377, -0.3580015003681183, -0.4281162619590759, -1.5558818578720093, 0.7294921875, 0.0595703125, -0.6201171875
86, 302193441, -5.414828300476074, -1.7684431076049805, 7.849057197570801, -0.276322603225708, -0.602077841758728, -1.6152266263961792, 0.72998046875, 0.06005859375, -0.618896484375
87, 302210108, -5.41102409362793, -1.766306757926941, 7.851714134216309, -0.2936623990535736, -0.7505289912223816, -1.6020488739013672, 0.731689453125, 0.05859375, -0.6220703125
88, 302226775, -5.398074150085449, -1.797555685043335, 7.849201679229736, -0.3384461998939514, -0.8876208662986755, -1.5747581720352173, 0.732666015625, 0.05908203125, -0.618408203125
89, 302243442, -5.380936622619629, -1.7804347276687622, 7.855278015136719, -0.42148256301879883, -0.7693414092063904, -1.4536741971969604, 0.72998046875, 0.0595703125, -0.619873046875
90, 302260109, -5.387540817260742, -1.7723143100738525, 7.853190898895264, -0.3768012225627899, -0.6224910616874695, -1.5583664178848267, 0.733642578125, 0.057373046875, -0.621826171875
91, 302276776, -5.4128098487854, -1.7836335897445679, 7.837905406951904, -0.3518800735473633, -0.5618529915809631, -1.5934427976608276, 0.731201171875, 0.05859375, -0.619873046875
92, 302293443, -5.410223484039307, -1.7818992137908936, 7.824764728546143, -0.37327948212623596, -0.8198752403259277, -1.5970669984817505, 0.732666015625, 0.0595703125, -0.618896484375
93, 302310110, -5.402339458465576, -1.7937779426574707, 7.847107887268066, -0.3521745800971985, -0.8985958099365234, -1.6522750854492188, 0.730224609375, 0.06005859375, -0.62158203125
94, 302326777, -5.379066467285156, -1.7893491983413696, 7.862545967102051, -0.5054025650024414, -0.8201698064804077, -1.6421709060668945, 0.730712890625, 0.0595703125, -0.618408203125
95, 302343444, -5.388009071350098, -1.7979803085327148, 7.816267013549805, -0.4747186005115509, -0.6529702544212341, -1.5968623161315918, 0.730712890625, 0.060546875, -0.619873046875
96, 302360111, -5.40152645111084, -1.7643386125564575, 7.865011692047119, -0.49447885155677795, -0.6880339980125427, -1.610142469406128, 0.7294921875, 0.0595703125, -0.6201171875
97, 302376778, -5.388749122619629, -1.761723279953003, 7.861073970794678, -0.5335637927055359, -0.7621955275535583, -1.719546914100647, 0.731689453125, 0.06201171875, -0.62109375
98, 302393445, -5.394552230834961, -1.7768449783325195, 7.852344512939453, -0.4952855110168457, -0.689288854598999, -1.7568002939224243, 0.732666015625, 0.06005859375, -0.620361328125
99, 302410112, -5.395663261413574, -1.7964122295379639, 7.81544303894043, -0.42828279733657837, -0.8149681091308594, -1.7057158946990967, 0.731201171875, 0.060546875, -0.619873046875
100, 302426779, -5.394972801208496, -1.7901655435562134, 7.850501537322998, -0.4019913077354431, -0.8109363913536072, -1.616250991821289, 0.73046875, 0.0615234375, -0.62060546875
101, 302443446, -5.40675687789917, -1.7792956829071045, 7.847931385040283, -0.4292943775653839, -0.8305556774139404, -1.7246180772781372, 0.72900390625, 0.05908203125, -0.61962890625
102, 302460113, -5.42454195022583, -1.7630376815795898, 7.8304877281188965, -0.4453536570072174, -1.0812530517578125, -1.8193213939666748, 0.7294921875, 0.060546875, -0.6201171875
103, 302476780, -5.39590311050415, -1.7975482940673828, 7.858675956726074, -0.3520209491252899, -1.3195918798446655, -1.8080518245697021, 0.730712890625, 0.060546875, -0.619384765625
104, 302493447, -5.369138717651367, -1.8035707473754883, 7.836241722106934, -0.3464758098125458, -1.448936104774475, -1.7279993295669556, 0.730224609375, 0.05908203125, -0.62158203125
105, 302510114, -5.375881195068359, -1.786769151687622, 7.8631768226623535, -0.1821703165769577, -1.3052359819412231, -1.7321995496749878, 0.730712890625, 0.060546875, -0.62109375
106, 302526781, -5.390932083129883, -1.7549866437911987, 7.870934963226318, -0.21451915800571442, -1.15027916431427, -1.734146237373352, 0.729736328125, 0.058349609375, -0.62109375
107, 302543448, -5.389881610870361, -1.7851625680923462, 7.866971492767334, -0.4138372242450714, -1.175674319267273, -1.781593918800354, 0.7294921875, 0.06103515625, -0.619384765625
108, 302560115, -5.380102634429932, -1.7868183851242065, 7.839902400970459, -0.3055979609489441, -1.181078553199768, -1.7047301530838013, 0.731689453125, 0.0595703125, -0.62109375
109, 302576782, -5.372986793518066, -1.7734911441802979, 7.847430229187012, -0.3134610056877136, -1.2000317573547363, -1.6783361434936523, 0.72998046875, 0.0595703125, -0.619384765625
110, 302593449, -5.398388862609863, -1.7899610996246338, 7.886193752288818, -0.3267155885696411, -1.2050776481628418, -1.7053449153900146, 0.7275390625, 0.0595703125, -0.6220703125
111, 302610116, -5.381793975830078, -1.7948344945907593, 7.846527099609375, -0.23917140066623688, -1.1702057123184204, -1.7616541385650635, 0.732177734375, 0.0595703125, -0.62255859375
112, 302626783, -5.372430801391602, -1.7769914865493774, 7.857957363128662, -0.31709805130958557, -1.2354158163070679, -1.790455937385559, 0.72802734375, 0.0615234375, -0.62255859375
113, 302643450, -5.375344753265381, -1.788800835609436, 7.8638014793396, -0.20017604529857635, -1.3151097297668457, -1.7905582189559937, 0.730712890625, 0.0595703125, -0.6240234375
114, 302660117, -5.383362770080566, -1.768975019454956, 7.8616485595703125, -0.16602151095867157, -1.3898348808288574, -1.7951430082321167, 0.72802734375, 0.0595703125, -0.6220703125
115, 302676784, -5.369250774383545, -1.7794374227523804, 7.857847690582275, -0.22893914580345154, -1.4193789958953857, -1.7351068258285522, 0.729736328125, 0.060546875, -0.623046875
116, 302693451, -5.364779472351074, -1.787756085395813, 7.866913795471191, -0.17642028629779816, -1.376592993736267, -1.785013198852539, 0.7294921875, 0.06005859375, -0.62353515625
117, 302710118, -5.37315034866333, -1.7854491472244263, 7.858363628387451, -0.1548287719488144, -1.4411242008209229, -1.7700297832489014, 0.72998046875, 0.06005859375, -0.6201171875
118, 302726785, -5.341344356536865, -1.8000015020370483, 7.8628716468811035, -0.1388208270072937, -1.388784646987915, -1.8121497631072998, 0.728515625, 0.0595703125, -0.6220703125
119, 302743452, -5.349905967712402, -1.7803181409835815, 7.867746353149414, -0.16362673044204712, -1.291802167892456, -1.72501540184021, 0.728515625, 0.058349609375, -0.623046875
120, 302760119, -5.345327854156494, -1.7829922437667847, 7.877459526062012, -0.23608504235744476, -0.9933244585990906, -1.789123773574829, 0.72607421875, 0.060546875, -0.6220703125
121, 302776786, -5.368908882141113, -1.7835735082626343, 7.869298458099365, -0.31136077642440796, -0.63506680727005, -1.7848209142684937, 0.728515625, 0.058837890625, -0.62353515625
122, 302793453, -5.349154949188232, -1.7839163541793823, 7.867762088775635, -0.3385486602783203, -0.7292575240135193, -1.6734952926635742, 0.730712890625, 0.05908203125, -0.6220703125
123, 302810120, -5.358136177062988, -1.7922335863113403, 7.8720245361328125, -0.27511873841285706, -0.7516942024230957, -1.666515588760376, 0.729248046875, 0.05908203125, -0.62255859375
124, 302826787, -5.37178373336792, -1.79896879196167, 7.845592498779297, -0.2774111032485962, -0.8024713397026062, -1.688260793685913, 0.729736328125, 0.05908203125, -0.623046875
125, 302843454, -5.367112636566162, -1.784609317779541, 7.873814105987549, -0.17721427977085114, -1.0979267358779907, -1.6810382604599, 0.72705078125, 0.058837890625, -0.62353515625
126, 302860121, -5.361246585845947, -1.7812049388885498, 7.875693321228027, -0.09901868551969528, -1.0458688735961914, -1.6613420248031616, 0.72900390625, 0.05908203125, -0.623046875
127, 302876788, -5.357330322265625, -1.7749030590057373, 7.869327545166016, -0.14194558560848236, -1.0592644214630127, -1.7522543668746948, 0.72900390625, 0.05908203125, -0.623046875
128, 302893455, -5.35366678237915, -1.784706950187683, 7.87315559387207, -0.13346776366233826, -1.0543724298477173, -1.6707675457000732, 0.72705078125, 0.057861328125, -0.623046875
129, 302910122, -5.351221561431885, -1.7626895904541016, 7.879912853240967, -0.14980866014957428, -1.1090810298919678, -1.6990951299667358, 0.7275390625, 0.06005859375, -0.623046875
130, 302926789, -5.367392063140869, -1.7921199798583984, 7.848496437072754, -0.04308055341243744, -1.1342839002609253, -1.753650188446045, 0.7265625, 0.05908203125, -0.62255859375
131, 302943456, -5.325088024139404, -1.802302598953247, 7.863348484039307, 0.005513133946806192, -1.0955320596694946, -1.9272021055221558, 0.72802734375, 0.058837890625, -0.624267578125
132, 302960123, -5.351008892059326, -1.7477750778198242, 7.904531478881836, -0.10989126563072205, -0.9971663355827332, -1.6295052766799927, 0.7265625, 0.0595703125, -0.624755859375
133, 302976790, -5.337250232696533, -1.776100993156433, 7.886828422546387, -0.13440263271331787, -0.8459618091583252, -1.7933754920959473, 0.7275390625, 0.058349609375, -0.623046875
134, 302993457, -5.345032215118408, -1.7754638195037842, 7.877442359924316, -0.21145844459533691, -0.738081157207489, -1.839273452758789, 0.7255859375, 0.057861328125, -0.62255859375
135, 303010124, -5.347020626068115, -1.738816261291504, 7.884929656982422, -0.24380725622177124, -0.6798377633094788, -1.7835400104522705, 0.7275390625, 0.06103515625, -0.623291015625
136, 303026791, -5.358807563781738, -1.7935906648635864, 7.871105670928955, -0.25259238481521606, -0.7570087909698486, -1.7300606966018677, 0.7275390625, 0.058349609375, -0.62353515625
137, 303043458, -5.3327813148498535, -1.7815102338790894, 7.879362106323242, -0.2224462628364563, -0.8122425675392151, -1.7317767143249512, 0.728515625, 0.05908203125, -0.62353515625
138, 303060125, -5.326537609100342, -1.7661830186843872, 7.885909080505371, -0.22434161603450775, -0.817877471446991, -1.6631861925125122, 0.72802734375, 0.0595703125, -0.624755859375
139, 303076792, -5.358597278594971, -1.7622110843658447, 7.882197856903076, -0.21304641664028168, -0.7619777321815491, -1.6633654832839966, 0.729736328125, 0.057861328125, -0.623046875
140, 303093459, -5.347811698913574, -1.7751959562301636, 7.887663841247559, -0.227760910987854, -0.8846112489700317, -1.6952402591705322, 0.7265625, 0.058837890625, -0.623291015625
141, 303110126, -5.352650165557861, -1.7579333782196045, 7.862656593322754, -0.24746987223625183, -0.9156795144081116, -1.6977119445800781, 0.7275390625, 0.058837890625, -0.62353515625
142, 303126793, -5.342084884643555, -1.7830803394317627, 7.8838090896606445, -0.12427280843257904, -0.9802877306938171, -1.6416971683502197, 0.72607421875, 0.058349609375, -0.623779296875
143, 303143460, -5.344175338745117, -1.7807471752166748, 7.868206024169922, -0.21795128285884857, -0.8372535705566406, -1.5905615091323853, 0.7255859375, 0.0595703125, -0.625732421875
144, 303160127, -5.3605475425720215, -1.770484447479248, 7.872601509094238, -0.18948271870613098, -0.926014244556427, -1.6250615119934082, 0.7275390625, 0.058349609375, -0.624755859375
145, 303176794, -5.33492374420166, -1.7620528936386108, 7.897922992706299, -0.1968463808298111, -0.8336164951324463, -1.5527570247650146, 0.7275390625, 0.057861328125, -0.623046875
146, 303193461, -5.345321178436279, -1.7749656438827515, 7.87156343460083, -0.06569657474756241, -0.7075508236885071, -1.504502773284912, 0.728515625, 0.058837890625, -0.6240234375
147, 303210128, -5.346957683563232, -1.7672821283340454, 7.856842041015625, -0.007133136503398418, -0.7375433444976807, -1.4606411457061768, 0.7255859375, 0.056884765625, -0.625732421875
148, 303226795, -5.358434200286865, -1.7606662511825562, 7.892977237701416, -0.17790581285953522, -0.7973105907440186, -1.566178321838379, 0.7265625, 0.060546875, -0.624755859375
149, 303243462, -5.350802421569824, -1.782133936882019, 7.89089298248291, -0.27776971459388733, -0.7680608034133911, -1.6882994174957275, 0.72509765625, 0.06201171875, -0.626708984375
150, 303260129, -5.336294174194336, -1.7713022232055664, 7.897312641143799, -0.21784883737564087, -0.7032992243766785, -1.6219115257263184, 0.7265625, 0.057373046875, -0.627685546875
151, 303276796, -5.334598064422607, -1.7755597829818726, 7.887879848480225, -0.28197020292282104, -0.5821126699447632, -1.573439359664917, 0.72705078125, 0.058837890625, -0.626708984375
152, 303293463, -5.35961389541626, -1.7549169063568115, 7.882284641265869, -0.3963949382305145, -0.48212069272994995, -1.5601848363876343, 0.7275390625, 0.056884765625, -0.624755859375
153, 303310130, -5.345810413360596, -1.7627495527267456, 7.894575119018555, -0.403207927942276, -0.5866972804069519, -1.6479212045669556, 0.7275390625, 0.0595703125, -0.624755859375
154, 303326797, -5.339058876037598, -1.7558605670928955, 7.893075942993164, -0.2958011031150818, -0.6977412104606628, -1.5072306394577026, 0.72607421875, 0.058837890625, -0.627197265625
155, 303343464, -5.3365559577941895, -1.782019853591919, 7.913158416748047, -0.22280488908290863, -0.7313066720962524, -1.520459532737732, 0.7265625, 0.057861328125, -0.624755859375
156, 303360131, -5.329587459564209, -1.769803762435913, 7.8912034034729, -0.3159966766834259, -0.5645167231559753, -1.4984838962554932, 0.729736328125, 0.05908203125, -0.625732421875
157, 303376798, -5.356949329376221, -1.7368617057800293, 7.900871753692627, -0.3343610167503357, -0.464627206325531, -1.469720721244812, 0.727783203125, 0.057373046875, -0.624755859375
158, 303393465, -5.346075057983398, -1.7794339656829834, 7.878696441650391, -0.3287646174430847, -0.4504889249801636, -1.5160796642303467, 0.728271484375, 0.057861328125, -0.625244140625
159, 303410132, -5.350225448608398, -1.750681757926941, 7.866315841674805, -0.29541686177253723, -0.4606572687625885, -1.4473865032196045, 0.7255859375, 0.056884765625, -0.625244140625
160, 303426799, -5.340922832489014, -1.7707483768463135, 7.886502742767334, -0.33462995290756226, -0.5070418119430542, -1.4514973163604736, 0.7265625, 0.05908203125, -0.624755859375
161, 303443466, -5.346261024475098, -1.7616556882858276, 7.892361640930176, -0.3082616627216339, -0.5175942778587341, -1.5309991836547852, 0.7255859375, 0.058349609375, -0.626220703125
162, 303460133, -5.368616104125977, -1.7524269819259644, 7.883574485778809, -0.2454209178686142, -0.43508294224739075, -1.6628918647766113, 0.727783203125, 0.057373046875, -0.626708984375
163, 303476800, -5.344610214233398, -1.7740654945373535, 7.87694787979126, -0.22014114260673523, -0.659001886844635, -1.6227309703826904, 0.728271484375, 0.058837890625, -0.626220703125
164, 303493467, -5.364945411682129, -1.7726045846939087, 7.863805770874023, -0.17245031893253326, -0.7042595744132996, -1.589767575263977, 0.7275390625, 0.058349609375, -0.624267578125
165, 303510134, -5.341808319091797, -1.7715035676956177, 7.895355701446533, -0.12952342629432678, -0.6251676082611084, -1.5960042476654053, 0.72705078125, 0.057861328125, -0.624755859375
166, 303526801, -5.343160152435303, -1.7491308450698853, 7.880749702453613, -0.07947620749473572, -0.5133681893348694, -1.6114870309829712, 0.72705078125, 0.058349609375, -0.62353515625
167, 303543468, -5.3485426902771, -1.7474819421768188, 7.908245086669922, -0.14695285260677338, -0.5364964008331299, -1.5255948305130005, 0.729736328125, 0.05859375, -0.62158203125
168, 303560135, -5.330159664154053, -1.7411041259765625, 7.871712684631348, -0.23579053580760956, -0.5774767398834229, -1.648074984550476, 0.7265625, 0.057861328125, -0.62353515625
169, 303576802, -5.341925144195557, -1.7612186670303345, 7.897409915924072, -0.25414201617240906, -0.4428691864013672, -1.612985372543335, 0.72412109375, 0.057861328125, -0.625732421875
170, 303593469, -5.356797218322754, -1.7587738037109375, 7.872871398925781, -0.22098635137081146, -0.5920247435569763, -1.6393663883209229, 0.72705078125, 0.058349609375, -0.624267578125
171, 303610136, -5.350484848022461, -1.7623753547668457, 7.866269111633301, -0.1186707466840744, -0.6888436079025269, -1.6390933990478516, 0.728759765625, 0.058349609375, -0.623046875
172, 303626803, -5.347073078155518, -1.7674514055252075, 7.897800922393799, -0.1846163421869278, -0.6780834794044495, -1.6034448146820068, 0.7265625, 0.056884765625, -0.624267578125
173, 303643470, -5.355997085571289, -1.7623205184936523, 7.892262935638428, -0.23182053864002228, -0.6687220335006714, -1.5853877067565918, 0.729248046875, 0.056396484375, -0.62451171875
174, 303660137, -5.348540782928467, -1.7357162237167358, 7.8552632331848145, -0.2159534990787506, -0.6550961136817932, -1.6545164585113525, 0.7265625, 0.057373046875, -0.627197265625
175, 303676804, -5.352438449859619, -1.7771128416061401, 7.882400035858154, -0.2669611871242523, -0.6954232454299927, -1.492656946182251, 0.729248046875, 0.058349609375, -0.625
176, 303693471, -5.3358588218688965, -1.7676697969436646, 7.903324127197266, -0.1626918762922287, -0.77103191614151, -1.586207389831543, 0.7255859375, 0.054931640625, -0.626708984375
177, 303710138, -5.34512996673584, -1.7465300559997559, 7.895577907562256, -0.043375104665756226, -0.8602536916732788, -1.58934485912323, 0.7255859375, 0.057373046875, -0.626708984375
178, 303726805, -5.339054107666016, -1.759658694267273, 7.87188196182251, -0.058332931250333786, -0.807786226272583, -1.582468032836914, 0.72705078125, 0.056396484375, -0.625732421875
179, 303743472, -5.345062732696533, -1.742765188217163, 7.873171806335449, -0.13018935918807983, -0.8005505204200745, -1.5528466701507568, 0.7265625, 0.057373046875, -0.627685546875
180, 303760139, -5.33153772354126, -1.7558706998825073, 7.891066074371338, -0.1489378660917282, -0.7425890564918518, -1.5584560632705688, 0.7265625, 0.058837890625, -0.624267578125
181, 303776806, -5.346069812774658, -1.7249703407287598, 7.88453483581543, -0.1206614151597023, -0.7464308142662048, -1.6793222427368164, 0.72705078125, 0.056884765625, -0.625732421875
182, 303793473, -5.328368663787842, -1.763684630393982, 7.894445896148682, -0.18219594657421112, -0.6349132061004639, -1.4976258277893066, 0.7275390625, 0.056396484375, -0.624267578125
183, 303810140, -5.344210147857666, -1.7455681562423706, 7.884735584259033, -0.17967310547828674, -0.7121483683586121, -1.5441257953643799, 0.72802734375, 0.058837890625, -0.625732421875
184, 303826807, -5.352520942687988, -1.7439372539520264, 7.8650383949279785, -0.12224943190813065, -0.781981348991394, -1.501570224761963, 0.72802734375, 0.057861328125, -0.624267578125
185, 303843474, -5.345229625701904, -1.7643271684646606, 7.880168437957764, -0.0990443080663681, -0.7168866991996765, -1.483359456062317, 0.7255859375, 0.056884765625, -0.624267578125
186, 303860141, -5.35492467880249, -1.7432771921157837, 7.901761054992676, -0.16803210973739624, -0.6906208395957947, -1.479888916015625, 0.7255859375, 0.056884765625, -0.625244140625
187, 303876808, -5.354301929473877, -1.747389554977417, 7.883942127227783, -0.028097134083509445, -0.7995772957801819, -1.603675127029419, 0.724609375, 0.058349609375, -0.626220703125
188, 303893475, -5.3313751220703125, -1.7468245029449463, 7.8815598487854, -0.03718964010477066, -0.7315755486488342, -1.457964539527893, 0.72705078125, 0.056396484375, -0.624267578125
189, 303910142, -5.342037677764893, -1.7371983528137207, 7.8793158531188965, -0.06481294333934784, -0.7072690725326538, -1.4766618013381958, 0.72705078125, 0.056396484375, -0.625244140625
190, 303926809, -5.3429365158081055, -1.7249995470046997, 7.87633752822876, -0.14368724822998047, -0.7924441695213318, -1.5317163467407227, 0.72607421875, 0.056884765625, -0.626220703125
191, 303943476, -5.331827163696289, -1.7389339208602905, 7.918007850646973, -0.08561045676469803, -0.7568169236183167, -1.547942042350769, 0.728759765625, 0.055908203125, -0.626220703125
192, 303960143, -5.332578182220459, -1.7576112747192383, 7.904553413391113, -0.09617568552494049, -0.7033247351646423, -1.5758469104766846, 0.727294921875, 0.056396484375, -0.626220703125
193, 303976810, -5.346328258514404, -1.7477883100509644, 7.88202428817749, -0.18019813299179077, -0.6556594371795654, -1.5566757917404175, 0.728271484375, 0.055419921875, -0.627685546875
194, 303993477, -5.344217300415039, -1.7571327686309814, 7.892729759216309, -0.059011660516262054, -0.5400694012641907, -1.5499268770217896, 0.72705078125, 0.056396484375, -0.625732421875
195, 304010144, -5.340114116668701, -1.7514957189559937, 7.8821024894714355, -0.11593588441610336, -0.6387679576873779, -1.512148141860962, 0.727294921875, 0.055419921875, -0.626220703125
196, 304026811, -5.3400092124938965, -1.7369859218597412, 7.906703948974609, -0.13989658653736115, -0.7294753789901733, -1.548838496208191, 0.7275390625, 0.057861328125, -0.624755859375
197, 304043478, -5.342133522033691, -1.7298015356063843, 7.889585018157959, -0.015495682135224342, -0.8124476075172424, -1.5596468448638916, 0.7255859375, 0.055419921875, -0.626708984375
198, 304060145, -5.333868503570557, -1.7419712543487549, 7.881412506103516, 0.05490722134709358, -0.7886021733283997, -1.4460288286209106, 0.728271484375, 0.055908203125, -0.62451171875
199, 304076812, -5.340423583984375, -1.7530587911605835, 7.894909381866455, 0.2150762528181076, -0.680491030216217, -1.509446144104004, 0.726806640625, 0.05322265625, -0.627685546875
200, 304093479, -5.341919422149658, -1.7418898344039917, 7.8760247230529785, 0.4048022925853729, -0.7396819591522217, -1.3171331882476807, 0.726806640625, 0.055908203125, -0.628173828125
201, 304110146, -5.356161594390869, -1.6963977813720703, 7.911665916442871, 0.23347894847393036, -0.8856102824211121, -1.4026668071746826, 0.7265625, 0.054931640625, -0.6240234375
202, 304126813, -5.341936111450195, -1.7226252555847168, 7.893275737762451, 0.06814899295568466, -0.9658421277999878, -1.455710768699646, 0.7275390625, 0.056396484375, -0.624267578125
203, 304143480, -5.3475751876831055, -1.7120349407196045, 7.891200065612793, 0.005986968986690044, -0.8329634666442871, -1.5666521787643433, 0.7255859375, 0.052734375, -0.626220703125
204, 304160147, -5.335404396057129, -1.7257024049758911, 7.8816986083984375, -0.08194782584905624, -0.7769355773925781, -1.5167455673217773, 0.7265625, 0.055419921875, -0.627197265625
205, 304176814, -5.342315673828125, -1.7451246976852417, 7.900705337524414, -0.22861894965171814, -0.7967213988304138, -1.5071407556533813, 0.72607421875, 0.056396484375, -0.624755859375
206, 304193481, -5.318323612213135, -1.737697958946228, 7.911174297332764, -0.15520016849040985, -0.818300187587738, -1.5387470722198486, 0.7255859375, 0.05322265625, -0.625244140625
207, 304210148, -5.328168869018555, -1.7293455600738525, 7.897993087768555, -0.265514075756073, -0.7419103384017944, -1.6145991086959839, 0.7265625, 0.05419921875, -0.623046875
208, 304226815, -5.321072101593018, -1.7324012517929077, 7.917904853820801, -0.22822192311286926, -0.7366979718208313, -1.6811405420303345, 0.72509765625, 0.0546875, -0.625244140625
209, 304243482, -5.343629360198975, -1.7367374897003174, 7.88657808303833, -0.26014819741249084, -0.6686195731163025, -1.6454496383666992, 0.7255859375, 0.0537109375, -0.624755859375
210, 304260149, -5.3157877922058105, -1.7356926202774048, 7.899444103240967, -0.28861674666404724, -0.6156396865844727, -1.5847346782684326, 0.727294921875, 0.054443359375, -0.626220703125
211, 304276816, -5.35095739364624, -1.7229068279266357, 7.890044212341309, -0.1999199390411377, -0.6277288794517517, -1.608656883239746, 0.724609375, 0.0546875, -0.625244140625
212, 304293483, -5.337057590484619, -1.727922797203064, 7.877466678619385, -0.3004753887653351, -0.6406505107879639, -1.6110644340515137, 0.72607421875, 0.0537109375, -0.625732421875
213, 304310150, -5.347780227661133, -1.731096863746643, 7.889185905456543, -0.17068304121494293, -0.9151289463043213, -1.5828007459640503, 0.727294921875, 0.05224609375, -0.626220703125
214, 304326817, -5.349015235900879, -1.7376896142959595, 7.908364772796631, -0.08110260963439941, -0.8391488194465637, -1.650507926940918, 0.72607421875, 0.0546875, -0.624755859375
215, 304343484, -5.3260650634765625, -1.7274351119995117, 7.915575981140137, -0.1404600590467453, -0.669400691986084, -1.5213431119918823, 0.72509765625, 0.05322265625, -0.624755859375
216, 304360151, -5.344372272491455, -1.7153422832489014, 7.907487869262695, -0.13430020213127136, -0.5062990784645081, -1.5937118530273438, 0.727783203125, 0.05322265625, -0.627197265625
217, 304376818, -5.334014892578125, -1.7349121570587158, 7.8906097412109375, -0.19358079135417938, -0.49018868803977966, -1.616827368736267, 0.72265625, 0.0537109375, -0.62744140625
218, 304393485, -5.343968868255615, -1.7185615301132202, 7.900515079498291, -0.29790133237838745, -0.3779410123825073, -1.6116279363632202, 0.72509765625, 0.0537109375, -0.624267578125
219, 304410152, -5.333554267883301, -1.7089810371398926, 7.880147457122803, -0.3634186387062073, -0.5254573822021484, -1.6370998620986938, 0.72607421875, 0.05322265625, -0.6240234375
220, 304426819, -5.352790832519531, -1.7101377248764038, 7.9004292488098145, -0.40018558502197266, -0.5318220257759094, -1.715922474861145, 0.726806640625, 0.054931640625, -0.624755859375
221, 304443486, -5.332390308380127, -1.7088630199432373, 7.896927356719971, -0.46787992119789124, -0.5114599466323853, -1.746452808380127, 0.727294921875, 0.05419921875, -0.625
222, 304460153, -5.325843334197998, -1.7245155572891235, 7.907202243804932, -0.4460323750972748, -0.45499685406684875, -1.6570008993148804, 0.724609375, 0.0546875, -0.625244140625
223, 304476820, -5.346851348876953, -1.6989153623580933, 7.885004997253418, -0.4797130525112152, -0.3213113248348236, -1.637228012084961, 0.72607421875, 0.05419921875, -0.624755859375
224, 304493487, -5.330202102661133, -1.704083800315857, 7.896768569946289, -0.4272454082965851, -0.39896902441978455, -1.7801722288131714, 0.72509765625, 0.055908203125, -0.6279296875
225, 304510154, -5.312385559082031, -1.7383521795272827, 7.918871879577637, -0.34610438346862793, -0.3832172155380249, -1.7911087274551392, 0.7255859375, 0.05224609375, -0.625732421875
226, 304526821, -5.339010715484619, -1.7367990016937256, 7.924594402313232, -0.27382540702819824, -0.3005010187625885, -1.6778240203857422, 0.7255859375, 0.0546875, -0.625732421875
227, 304543488, -5.336629390716553, -1.7322272062301636, 7.9208984375, -0.26046833395957947, -0.2923561632633209, -1.484473705291748, 0.727294921875, 0.052734375, -0.623046875
228, 304560155, -5.334689617156982, -1.7130626440048218, 7.877383708953857, -0.20697620511054993, -0.08513660728931427, -1.645206093788147, 0.72509765625, 0.0546875, -0.626708984375
229, 304576822, -5.3860182762146, -1.6799507141113281, 7.860867500305176, -0.07713264226913452, -0.5601752996444702, -1.8197566270828247, 0.7255859375, 0.0537109375, -0.628173828125
230, 304593489, -5.348386764526367, -1.7705192565917969, 7.891542911529541, -0.004776768386363983, -0.9788534045219421, -1.9333491325378418, 0.726318359375, 0.05224609375, -0.62451171875
231, 304610156, -5.36091423034668, -1.6694822311401367, 7.933888912200928, 0.008881202898919582, -1.2113524675369263, -1.5995001792907715, 0.725830078125, 0.05322265625, -0.626220703125
232, 304626823, -5.338479518890381, -1.7390735149383545, 7.893815994262695, -0.04500151053071022, -1.1495362520217896, -1.665401577949524, 0.72509765625, 0.055419921875, -0.627197265625
233, 304643490, -5.351247310638428, -1.7103493213653564, 7.8561882972717285, -0.03164449334144592, -1.380050778388977, -1.608298420906067, 0.726806640625, 0.055908203125, -0.627197265625
234, 304660157, -5.331573486328125, -1.7174009084701538, 7.89101505279541, 0.007395667489618063, -1.492810606956482, -1.5623234510421753, 0.728271484375, 0.05322265625, -0.626708984375
235, 304676824, -5.309937953948975, -1.7145823240280151, 7.906413555145264, -0.06688755750656128, -1.3897961378097534, -1.4383960962295532, 0.72607421875, 0.057373046875, -0.626708984375
236, 304693491, -5.305323123931885, -1.6915740966796875, 7.938805103302002, -0.24963410198688507, -1.0566644668579102, -1.5496704578399658, 0.72412109375, 0.05078125, -0.627685546875
237, 304710158, -5.3374223709106445, -1.7191627025604248, 7.896997451782227, -0.2880275845527649, -1.0300660133361816, -1.5980403423309326, 0.725830078125, 0.05322265625, -0.626220703125
238, 304726825, -5.317259788513184, -1.7003884315490723, 7.921153545379639, -0.31685471534729004, -1.0263394117355347, -1.4358478784561157, 0.724609375, 0.052734375, -0.626708984375
239, 304743492, -5.346024036407471, -1.7082794904708862, 7.9097065925598145, -0.36021697521209717, -1.0750929117202759, -1.437615156173706, 0.724853515625, 0.05322265625, -0.6298828125
240, 304760159, -5.329287528991699, -1.7050076723098755, 7.905783176422119, -0.43558239936828613, -1.0297458171844482, -1.3746848106384277, 0.72265625, 0.05126953125, -0.626708984375
241, 304776826, -5.315736293792725, -1.701183795928955, 7.906811237335205, -0.5669498443603516, -0.9490528702735901, -1.6285831928253174, 0.72509765625, 0.0537109375, -0.628662109375
242, 304793493, -5.327086448669434, -1.7161340713500977, 7.892935276031494, -0.6293424367904663, -1.03799307346344, -1.3820867538452148, 0.725341796875, 0.052734375, -0.628173828125
243, 304810160, -5.324853897094727, -1.7102481126785278, 7.913839340209961, -0.5999621152877808, -1.117651343345642, -1.502108097076416, 0.726318359375, 0.05126953125, -0.627197265625
244, 304826827, -5.302840709686279, -1.7111238241195679, 7.9274115562438965, -0.5851477384567261, -0.8063134551048279, -1.4328770637512207, 0.726318359375, 0.05419921875, -0.629150390625
245, 304843494, -5.295632362365723, -1.7013732194900513, 7.942531108856201, -0.791739821434021, -0.42091915011405945, -1.4728710651397705, 0.72314453125, 0.05126953125, -0.625244140625
246, 304860161, -5.315077781677246, -1.7228337526321411, 7.884428977966309, -0.8186203837394714, -0.15196016430854797, -1.5328305959701538, 0.72412109375, 0.0537109375, -0.627197265625
247, 304876828, -5.328697204589844, -1.7030776739120483, 7.909369468688965, -0.8600232005119324, 0.007177958730608225, -1.5151320695877075, 0.724609375, 0.055419921875, -0.626220703125
248, 304893495, -5.338729381561279, -1.7096922397613525, 7.895632743835449, -0.8084520697593689, -0.1361827254295349, -1.5333555936813354, 0.7236328125, 0.05419921875, -0.625244140625
249, 304910162, -5.357163906097412, -1.7065492868423462, 7.909945487976074, -0.6666858196258545, -0.41888290643692017, -1.589216947555542, 0.7236328125, 0.05419921875, -0.626708984375
250, 304926829, -5.357325553894043, -1.7389079332351685, 7.895325660705566, -0.5032126307487488, -0.7791382670402527, -1.6219879388809204, 0.725830078125, 0.05224609375, -0.628173828125
251, 304943496, -5.319215297698975, -1.7343697547912598, 7.885575294494629, -0.3667610287666321, -0.9890342354774475, -1.6376373767852783, 0.7255859375, 0.0546875, -0.628662109375
252, 304960163, -5.309747219085693, -1.7280027866363525, 7.917535305023193, -0.2974274456501007, -0.9339541792869568, -1.6431058645248413, 0.72412109375, 0.05322265625, -0.626220703125
253, 304976830, -5.310460090637207, -1.7164700031280518, 7.921327114105225, -0.2881428599357605, -0.6440826058387756, -1.6162381172180176, 0.726318359375, 0.05419921875, -0.626708984375
254, 304993497, -5.317657470703125, -1.722929835319519, 7.925490856170654, -0.29317575693130493, -0.380041241645813, -1.5128012895584106, 0.726806640625, 0.05419921875, -0.625732421875
255, 305010164, -5.324092864990234, -1.7210618257522583, 7.922767639160156, -0.3534040153026581, -0.22300979495048523, -1.464739203453064, 0.72509765625, 0.055908203125, -0.626220703125
256, 305026831, -5.343648433685303, -1.7006723880767822, 7.903799533843994, -0.18541033565998077, -0.14742669463157654, -1.5003279447555542, 0.725341796875, 0.052734375, -0.62939453125
257, 305043498, -5.3265910148620605, -1.7263686656951904, 7.88510799407959, -0.21180424094200134, -0.2704957127571106, -1.5663189888000488, 0.7255859375, 0.05322265625, -0.626220703125
258, 305060165, -5.341820240020752, -1.7278193235397339, 7.879091739654541, -0.21556930243968964, -0.2532455623149872, -1.7378474473953247, 0.72607421875, 0.05419921875, -0.625732421875
259, 305076832, -5.330466270446777, -1.7201743125915527, 7.895527362823486, -0.1506538987159729, -0.27623292803764343, -1.8470981121063232, 0.725341796875, 0.052734375, -0.627197265625
260, 305093499, -5.326012134552002, -1.721365213394165, 7.89374303817749, -0.03160607069730759, -0.3657365143299103, -1.9082741737365723, 0.725341796875, 0.05126953125, -0.627197265625
261, 305110166, -5.321523189544678, -1.7293612957000732, 7.909322738647461, -0.029096025973558426, -0.3875713348388672, -1.8257371187210083, 0.727783203125, 0.0517578125, -0.626708984375
262, 305126833, -5.3119916915893555, -1.7035222053527832, 7.896442890167236, -0.03598583862185478, -0.34459322690963745, -1.8284903764724731, 0.72607421875, 0.05322265625, -0.625244140625
263, 305143500, -5.342718124389648, -1.6934536695480347, 7.923010349273682, -0.1832973062992096, -0.23248648643493652, -1.7813506126403809, 0.727783203125, 0.05224609375, -0.627685546875
264, 305160167, -5.355652809143066, -1.685564398765564, 7.897292137145996, -0.3361026346683502, -0.2974402606487274, -1.8038382530212402, 0.726806640625, 0.05419921875, -0.626220703125
265, 305176834, -5.353148460388184, -1.670068383216858, 7.90785026550293, -0.2861194312572479, -0.4514494240283966, -1.9529041051864624, 0.726806640625, 0.052734375, -0.627197265625
266, 305193501, -5.354900360107422, -1.7368277311325073, 7.887260437011719, -0.3566952347755432, -0.583021879196167, -1.8208836317062378, 0.726318359375, 0.0537109375, -0.626220703125
267, 305210168, -5.329850196838379, -1.7439749240875244, 7.893937587738037, -0.18355341255664825, -0.6902622580528259, -1.8498003482818604, 0.726318359375, 0.05322265625, -0.625732421875
268, 305226835, -5.317882537841797, -1.717483639717102, 7.902616500854492, -0.25578123331069946, -0.7748609185218811, -1.7441478967666626, 0.725341796875, 0.0537109375, -0.62890625
269, 305243502, -5.335194110870361, -1.6850556135177612, 7.910218238830566, -0.30061623454093933, -0.4593765437602997, -1.8319482803344727, 0.726806640625, 0.054443359375, -0.625732421875
270, 305260169, -5.334701061248779, -1.6805256605148315, 7.923958778381348, -0.34222403168678284, -0.225596621632576, -1.9729076623916626, 0.727783203125, 0.05224609375, -0.627197265625
271, 305276836, -5.359023094177246, -1.6997990608215332, 7.870636940002441, -0.3571946918964386, -0.2595846951007843, -1.9608057737350464, 0.727294921875, 0.05322265625, -0.627197265625
272, 305293503, -5.335726737976074, -1.737485408782959, 7.881380081176758, -0.29852885007858276, -0.36339297890663147, -1.8585213422775269, 0.727783203125, 0.05419921875, -0.625
273, 305310170, -5.311549663543701, -1.7582789659500122, 7.887579441070557, -0.35701537132263184, -0.34806376695632935, -1.7772139310836792, 0.7255859375, 0.0537109375, -0.626220703125
274, 305326837, -5.31410551071167, -1.7149921655654907, 7.918508052825928, -0.4918918311595917, -0.07051175087690353, -1.8699826002120972, 0.72607421875, 0.0546875, -0.625732421875
275, 305343504, -5.361641883850098, -1.7025314569473267, 7.903995513916016, -0.5466262102127075, -0.17507562041282654, -1.7275127172470093, 0.725830078125, 0.0537109375, -0.629150390625
276, 305360171, -5.366857528686523, -1.69481360912323, 7.899648189544678, -0.6323646903038025, -0.31858351826667786, -1.8219977617263794, 0.72607421875, 0.0546875, -0.627197265625
277, 305376838, -5.359414577484131, -1.694718360900879, 7.894180774688721, -0.6899292469024658, -0.4892537593841553, -1.7199182510375977, 0.726806640625, 0.05322265625, -0.625244140625
278, 305393505, -5.34576416015625, -1.7109867334365845, 7.875807762145996, -0.6896986961364746, -0.8276231288909912, -1.756608486175537, 0.726318359375, 0.05224609375, -0.625732421875
279, 305410172, -5.344226360321045, -1.7308486700057983, 7.901734352111816, -0.656005322933197, -0.9475675225257874, -1.8687794208526611, 0.727294921875, 0.054443359375, -0.626220703125
280, 305426839, -5.327116012573242, -1.7145754098892212, 7.927627086639404, -0.5890408754348755, -0.9872799515724182, -1.9494340419769287, 0.72509765625, 0.055419921875, -0.623779296875
281, 305443506, -5.320192813873291, -1.7128043174743652, 7.906276226043701, -0.642328143119812, -0.7761672735214233, -1.8526692390441895, 0.726318359375, 0.0537109375, -0.624755859375
282, 305460173, -5.327636241912842, -1.7159074544906616, 7.927680969238281, -0.6926954984664917, -0.633747935295105, -1.9185320138931274, 0.727294921875, 0.0537109375, -0.626708984375
283, 305476840, -5.318652153015137, -1.738771677017212, 7.890537261962891, -0.7381836175918579, -0.5715345144271851, -1.80376136302948, 0.7255859375, 0.0546875, -0.626220703125
284, 305493507, -5.32162618637085, -1.7228021621704102, 7.894547939300537, -0.7393105030059814, -0.30175602436065674, -1.813622236251831, 0.727294921875, 0.052734375, -0.625244140625
285, 305510174, -5.326333999633789, -1.7230421304702759, 7.885477542877197, -0.7660757899284363, -0.18019813299179077, -1.7479130029678345, 0.72607421875, 0.055908203125, -0.625732421875
286, 305526841, -5.345309734344482, -1.7289780378341675, 7.916077613830566, -0.8358575701713562, 0.04138371720910072, -1.818360686302185, 0.726806640625, 0.0537109375, -0.625732421875
287, 305543508, -5.354470252990723, -1.7083488702774048, 7.874513626098633, -1.004888653755188, -0.029557056725025177, -1.8897817134857178, 0.727294921875, 0.05419921875, -0.626220703125
288, 305560175, -5.332921981811523, -1.7429155111312866, 7.875778675079346, -1.0073347091674805, -0.09928763657808304, -1.9728437662124634, 0.727294921875, 0.0537109375, -0.627197265625
289, 305576842, -5.349660873413086, -1.7322490215301514, 7.8601250648498535, -0.9675197601318359, -0.24487023055553436, -1.8787299394607544, 0.728759765625, 0.054931640625, -0.62451171875
290, 305593509, -5.283571243286133, -1.785854458808899, 7.934106826782227, -1.104137897491455, -0.0022795305121690035, -1.4483726024627686, 0.727294921875, 0.0537109375, -0.626708984375
291, 305610176, -5.354213237762451, -1.6531474590301514, 7.878527641296387, -1.1404695510864258, 0.3826729953289032, -1.886733889579773, 0.729248046875, 0.0537109375, -0.626220703125
292, 305626843, -5.3358588218688965, -1.7549654245376587, 7.896929740905762, -0.9879587292671204, 0.5317388772964478, -2.088165044784546, 0.727783203125, 0.057373046875, -0.625244140625
293, 305643510, -5.368030548095703, -1.7435671091079712, 7.880281448364258, -1.023201823234558, 0.5326481461524963, -1.9094011783599854, 0.727783203125, 0.055419921875, -0.626708984375
294, 305660177, -5.363430976867676, -1.7422089576721191, 7.876372337341309, -0.8874032497406006, 0.27417755126953125, -1.9017430543899536, 0.72607421875, 0.055419921875, -0.626708984375
295, 305676844, -5.392827033996582, -1.7250425815582275, 7.872460842132568, -0.8149576783180237, 0.0968480184674263, -1.9273430109024048, 0.728759765625, 0.054443359375, -0.625
296, 305693511, -5.3733367919921875, -1.7499324083328247, 7.883373737335205, -0.7055145502090454, -0.13546554744243622, -1.9071470499038696, 0.727783203125, 0.055419921875, -0.6240234375
297, 305710178, -5.3821234703063965, -1.7334647178649902, 7.890659809112549, -0.7392466068267822, -0.5288894772529602, -1.9054313898086548, 0.7275390625, 0.055419921875, -0.62353515625
298, 305726845, -5.374349117279053, -1.7449803352355957, 7.8798322677612305, -0.7260175347328186, -0.4902398884296417, -1.8587391376495361, 0.7275390625, 0.057861328125, -0.624267578125
299, 305743512, -5.372437953948975, -1.739951252937317, 7.864817142486572, -0.7432934045791626, -0.6466310620307922, -1.9106305837631226, 0.72705078125, 0.057373046875, -0.624267578125
300, 305760179, -5.357499599456787, -1.759094476699829, 7.890820503234863, -0.599426805973053, -0.9066383838653564, -1.9693349599838257, 0.7265625, 0.056396484375, -0.625732421875
301, 305776846, -5.350487232208252, -1.7605401277542114, 7.865163326263428, -0.48304271697998047, -0.9269365072250366, -1.8234705924987793, 0.7255859375, 0.056884765625, -0.626220703125
302, 305793513, -5.341268062591553, -1.7537493705749512, 7.917385578155518, -0.4611950218677521, -0.7406551837921143, -1.8149925470352173, 0.727783203125, 0.056884765625, -0.624755859375
303, 305810180, -5.365823745727539, -1.7325323820114136, 7.885985851287842, -0.5105891227722168, -0.5917302370071411, -1.809383511543274, 0.728271484375, 0.056884765625, -0.624755859375
304, 305826847, -5.345588684082031, -1.7493263483047485, 7.866793155670166, -0.6042035818099976, -0.8238582015037537, -1.8605577945709229, 0.72705078125, 0.056884765625, -0.625244140625
305, 305843514, -5.356455326080322, -1.7429850101470947, 7.871608734130859, -0.49542638659477234, -0.8322462439537048, -1.7674298286437988, 0.72705078125, 0.055908203125, -0.62353515625
306, 305860181, -5.367123126983643, -1.74199378490448, 7.861202716827393, -0.46758535504341125, -0.7930971384048462, -1.7648429870605469, 0.728759765625, 0.055908203125, -0.62451171875
307, 305876848, -5.351438999176025, -1.7439476251602173, 7.867397308349609, -0.44315090775489807, -0.9472216367721558, -1.7845903635025024, 0.728271484375, 0.05908203125, -0.626708984375
308, 305893515, -5.339080333709717, -1.7660516500473022, 7.871206760406494, -0.3806815445423126, -1.0212552547454834, -1.8256477117538452, 0.7275390625, 0.056396484375, -0.62353515625
309, 305910182, -5.343144416809082, -1.7525516748428345, 7.8804450035095215, -0.3579246997833252, -1.0072963237762451, -1.8431413173675537, 0.72802734375, 0.058349609375, -0.625244140625
310, 305926849, -5.362445831298828, -1.7449734210968018, 7.882508277893066, -0.31540757417678833, -0.9643821716308594, -1.8266335725784302, 0.728759765625, 0.057861328125, -0.6240234375
311, 305943516, -5.349209308624268, -1.745319128036499, 7.883145809173584, -0.34207040071487427, -1.077795147895813, -1.7284729480743408, 0.728271484375, 0.054443359375, -0.625
312, 305960183, -5.347211837768555, -1.7342510223388672, 7.875829219818115, -0.37284407019615173, -1.1916053295135498, -1.8316668272018433, 0.72802734375, 0.058349609375, -0.625244140625
313, 305976850, -5.325345993041992, -1.7493854761123657, 7.888206481933594, -0.3183659017086029, -1.1750211715698242, -1.9117192029953003, 0.7255859375, 0.056396484375, -0.625732421875
314, 305993517, -5.320052146911621, -1.7484312057495117, 7.906379222869873, -0.4441754221916199, -0.9502695202827454, -1.8041328191757202, 0.728759765625, 0.057373046875, -0.626708984375
315, 306010184, -5.331311225891113, -1.7473676204681396, 7.893261909484863, -0.3487890958786011, -0.8493936657905579, -1.9113984107971191, 0.72705078125, 0.057373046875, -0.628173828125
316, 306026851, -5.344962120056152, -1.740532398223877, 7.890859127044678, -0.5250476002693176, -0.7710959315299988, -1.899194359779358, 0.7265625, 0.056884765625, -0.627197265625
317, 306043518, -5.36428689956665, -1.758182406425476, 7.885064601898193, -0.6079174876213074, -0.9497445225715637, -1.9949731826782227, 0.728271484375, 0.055419921875, -0.62451171875
318, 306060185, -5.343533039093018, -1.766759991645813, 7.887718200683594, -0.5083736777305603, -1.1454768180847168, -1.944349765777588, 0.72607421875, 0.057373046875, -0.626220703125
319, 306076852, -5.32991361618042, -1.7732150554656982, 7.882410526275635, -0.4959002733230591, -0.9713744521141052, -1.885440707206726, 0.72607421875, 0.057373046875, -0.626220703125
320, 306093519, -5.319665431976318, -1.7460523843765259, 7.8954339027404785, -0.48282501101493835, -1.056767225265503, -1.8262368440628052, 0.7255859375, 0.057861328125, -0.626220703125
321, 306110186, -5.351141929626465, -1.7333734035491943, 7.9101409912109375, -0.6228367686271667, -1.0007264614105225, -1.6090023517608643, 0.7265625, 0.059326171875, -0.626708984375
322, 306126853, -5.3086934089660645, -1.767382025718689, 7.877192974090576, -0.4924554228782654, -0.9666617512702942, -2.027693510055542, 0.72509765625, 0.055908203125, -0.625732421875
323, 306143520, -5.295500755310059, -1.7878143787384033, 7.903939247131348, -0.5570762157440186, -0.7591091990470886, -1.8587262630462646, 0.72509765625, 0.058349609375, -0.625732421875
324, 306160187, -5.329315185546875, -1.7564294338226318, 7.882537841796875, -0.6220171451568604, -0.4961947798728943, -1.908478856086731, 0.72607421875, 0.058349609375, -0.625244140625
325, 306176854, -5.331654071807861, -1.7544809579849243, 7.903316974639893, -0.6535079479217529, -0.22156262397766113, -1.79427170753479, 0.72607421875, 0.056396484375, -0.627685546875
326, 306193521, -5.318660736083984, -1.771793246269226, 7.886363983154297, -0.54620361328125, -0.20931978523731232, -1.9156122207641602, 0.7275390625, 0.057861328125, -0.624267578125
327, 306210188, -5.3327412605285645, -1.7523051500320435, 7.8892364501953125, -0.42424875497817993, -0.1750371754169464, -1.7969996929168701, 0.72705078125, 0.057861328125, -0.625244140625
328, 306226855, -5.341633319854736, -1.7595911026000977, 7.888266563415527, -0.5277368426322937, -0.11952164024114609, -1.8221259117126465, 0.72607421875, 0.057373046875, -0.628173828125
329, 306243522, -5.360052585601807, -1.7469972372055054, 7.88824462890625, -0.4285644590854645, -0.22936168313026428, -1.6653375625610352, 0.72705078125, 0.05908203125, -0.626220703125
330, 306260189, -5.358463287353516, -1.7520781755447388, 7.900153160095215, -0.4703131318092346, -0.40729308128356934, -1.807744026184082, 0.7275390625, 0.058349609375, -0.628662109375
331, 306276856, -5.3376030921936035, -1.7578092813491821, 7.908987522125244, -0.5291327238082886, -0.2837502658367157, -1.7818626165390015, 0.728271484375, 0.058837890625, -0.626708984375
332, 306293523, -5.342915058135986, -1.7579625844955444, 7.882443428039551, -0.5334484577178955, -0.2675374150276184, -1.7244901657104492, 0.728759765625, 0.056884765625, -0.6240234375
333, 306310190, -5.358214378356934, -1.7598555088043213, 7.90269660949707, -0.5168258547782898, -0.25524333119392395, -1.6968668699264526, 0.729248046875, 0.058349609375, -0.626708984375
334, 306326857, -5.338881492614746, -1.7672779560089111, 7.874100208282471, -0.467265248298645, -0.46825140714645386, -1.7141938209533691, 0.7275390625, 0.0595703125, -0.626220703125
335, 306343524, -5.362752437591553, -1.755423903465271, 7.8807373046875, -0.3962540328502655, -0.6671211123466492, -1.708213210105896, 0.728515625, 0.05908203125, -0.624267578125
336, 306360191, -5.330683708190918, -1.7719770669937134, 7.881799221038818, -0.3246665596961975, -0.6984198689460754, -1.6686159372329712, 0.72607421875, 0.057373046875, -0.624755859375
337, 306376858, -5.333712577819824, -1.7764216661453247, 7.890798568725586, -0.36102378368377686, -0.6219403147697449, -1.6972765922546387, 0.7275390625, 0.058349609375, -0.626220703125
338, 306393525, -5.345608711242676, -1.7643179893493652, 7.899443626403809, -0.335692822933197, -0.4644990861415863, -1.7249127626419067, 0.7265625, 0.057373046875, -0.625732421875
339, 306410192, -5.318243503570557, -1.7761943340301514, 7.8699822425842285, -0.30370259284973145, -0.4990634620189667, -1.6446683406829834, 0.72705078125, 0.057373046875, -0.625732421875
340, 306426859, -5.3508429527282715, -1.7401460409164429, 7.896217346191406, -0.3868798613548279, -0.377928227186203, -1.6091948747634888, 0.7275390625, 0.058837890625, -0.628173828125
341, 306443526, -5.33616828918457, -1.764847755432129, 7.8882246017456055, -0.5114343166351318, -0.4907776415348053, -1.6914496421813965, 0.727783203125, 0.057373046875, -0.625244140625
342, 306460193, -5.358808517456055, -1.7567532062530518, 7.862929344177246, -0.42139288783073425, -0.4501815736293793, -1.7219799757003784, 0.7265625, 0.0595703125, -0.624267578125
343, 306476860, -5.349359035491943, -1.7541697025299072, 7.89946174621582, -0.41600143909454346, -0.49801331758499146, -1.8124057054519653, 0.72412109375, 0.059326171875, -0.623291015625
344, 306493527, -5.3613996505737305, -1.7533103227615356, 7.874330043792725, -0.4149513244628906, -0.5314762592315674, -1.7855249643325806, 0.729248046875, 0.057373046875, -0.62353515625
345, 306510194, -5.340206146240234, -1.7614593505859375, 7.895751953125, -0.47793298959732056, -0.5242919325828552, -1.741292119026184, 0.72509765625, 0.057373046875, -0.625732421875
346, 306526861, -5.35506010055542, -1.7445664405822754, 7.913043022155762, -0.587798535823822, -0.5936254262924194, -1.689451813697815, 0.7275390625, 0.058837890625, -0.625244140625
347, 306543528, -5.3436689376831055, -1.7528847455978394, 7.879411697387695, -0.6589890718460083, -0.5701643228530884, -1.8022502660751343, 0.72607421875, 0.058349609375, -0.624267578125
348, 306560195, -5.348389148712158, -1.7741955518722534, 7.881746768951416, -0.491520494222641, -0.6213000416755676, -1.7698121070861816, 0.72802734375, 0.058349609375, -0.6240234375
349, 306576862, -5.349488258361816, -1.7757972478866577, 7.866179466247559, -0.40242668986320496, -0.6311993598937988, -1.761218786239624, 0.728271484375, 0.057861328125, -0.626220703125
350, 306593529, -5.3387579917907715, -1.774842619895935, 7.882787227630615, -0.39741945266723633, -0.7471736073493958, -1.7456333637237549, 0.72802734375, 0.05908203125, -0.625244140625
351, 306610196, -5.347194671630859, -1.7435864210128784, 7.886007308959961, -0.33195337653160095, -0.785707950592041, -1.6978144645690918, 0.7275390625, 0.05908203125, -0.626220703125
352, 306626863, -5.326984405517578, -1.7618645429611206, 7.871181488037109, -0.3709358870983124, -0.8127166032791138, -1.8270177841186523, 0.727294921875, 0.056396484375, -0.625732421875
353, 306643530, -5.3314995765686035, -1.7702267169952393, 7.891158103942871, -0.41201868653297424, -0.7401173114776611, -1.807193636894226, 0.728271484375, 0.058837890625, -0.627685546875
354, 306660197, -5.354910850524902, -1.767395257949829, 7.889561176300049, -0.48639795184135437, -0.7886534333229065, -1.875131368637085, 0.72802734375, 0.058349609375, -0.624267578125
355, 306676864, -5.344923973083496, -1.7666168212890625, 7.887290000915527, -0.46821293234825134, -0.885418176651001, -1.823675274848938, 0.72607421875, 0.06005859375, -0.624755859375
356, 306693531, -5.342442512512207, -1.7661068439483643, 7.871732234954834, -0.37835079431533813, -0.9998428821563721, -1.694766640663147, 0.72705078125, 0.056396484375, -0.626708984375
357, 306710198, -5.349783420562744, -1.783215045928955, 7.871420383453369, -0.30727556347846985, -1.0849411487579346, -1.843461275100708, 0.7265625, 0.056396484375, -0.624267578125
358, 306726865, -5.333120346069336, -1.7510126829147339, 7.902882099151611, -0.4213801622390747, -1.2057818174362183, -1.9026395082473755, 0.7265625, 0.058349609375, -0.628173828125
359, 306743532, -5.336948394775391, -1.7390934228897095, 7.878698825836182, -0.4529862105846405, -1.0081158876419067, -1.954748511314392, 0.7255859375, 0.056884765625, -0.623046875
360, 306760199, -5.3381571769714355, -1.779362678527832, 7.859254837036133, -0.54392409324646, -0.9075220227241516, -1.9278041124343872, 0.7275390625, 0.058837890625, -0.626708984375
361, 306776866, -5.339303016662598, -1.7694708108901978, 7.869251251220703, -0.43303394317626953, -0.9015670418739319, -2.010878801345825, 0.7265625, 0.058837890625, -0.625244140625
362, 306793533, -5.328537464141846, -1.7507795095443726, 7.894021511077881, -0.45445898175239563, -0.9019384384155273, -2.048401355743408, 0.7255859375, 0.058349609375, -0.627685546875
363, 306810200, -5.320985794067383, -1.770471453666687, 7.891390800476074, -0.5851989984512329, -0.9182281494140625, -1.8842880725860596, 0.724609375, 0.0595703125, -0.626220703125
364, 306826867, -5.335899829864502, -1.7842224836349487, 7.898340702056885, -0.5326929688453674, -0.8353069424629211, -1.9389584064483643, 0.7265625, 0.057861328125, -0.625732421875
365, 306843534, -5.329123020172119, -1.7672061920166016, 7.889185905456543, -0.5326545238494873, -0.7868349552154541, -1.878012776374817, 0.72607421875, 0.058837890625, -0.626220703125
366, 306860201, -5.327544689178467, -1.7714824676513672, 7.892740249633789, -0.41049468517303467, -0.7125067710876465, -1.8209989070892334, 0.72705078125, 0.060546875, -0.627685546875
367, 306876868, -5.319543361663818, -1.765925645828247, 7.905406475067139, -0.46105414628982544, -0.6456576585769653, -1.872941255569458, 0.72509765625, 0.059326171875, -0.625732421875
368, 306893535, -5.331984043121338, -1.7595514059066772, 7.893540382385254, -0.46069562435150146, -0.6712832450866699, -1.819692611694336, 0.72705078125, 0.058837890625, -0.6220703125
369, 306910202, -5.341466903686523, -1.765921950340271, 7.875046730041504, -0.5889768600463867, -0.6719235777854919, -1.8871691226959229, 0.7275390625, 0.06005859375, -0.624755859375
370, 306926869, -5.322635650634766, -1.7727904319763184, 7.880070209503174, -0.516556978225708, -0.7880131006240845, -1.872979998588562, 0.72705078125, 0.0595703125, -0.625732421875
371, 306943536, -5.333081245422363, -1.7865737676620483, 7.896882057189941, -0.506452739238739, -0.7635657787322998, -1.9303523302078247, 0.72607421875, 0.0595703125, -0.624755859375
372, 306960203, -5.3051438331604, -1.7822933197021484, 7.867332458496094, -0.4983591139316559, -0.722969651222229, -1.86384916305542, 0.72607421875, 0.060546875, -0.624755859375
373, 306976870, -5.33967399597168, -1.7586238384246826, 7.88612699508667, -0.5234723687171936, -0.6979588866233826, -1.9691685438156128, 0.7255859375, 0.0595703125, -0.62109375
374, 306993537, -5.335428714752197, -1.7831425666809082, 7.880743980407715, -0.6854214668273926, -0.7053608894348145, -1.9754947423934937, 0.72412109375, 0.0615234375, -0.62646484375
375, 307010204, -5.354660511016846, -1.7667105197906494, 7.880712509155273, -0.6048311591148376, -0.8147016167640686, -1.985573410987854, 0.7265625, 0.059326171875, -0.627197265625
376, 307026871, -5.308678150177002, -1.8316819667816162, 7.873472690582275, -0.5105123519897461, -1.1115527153015137, -1.8063998222351074, 0.7255859375, 0.058837890625, -0.625732421875
377, 307043538, -5.323456764221191, -1.7583024501800537, 7.913326740264893, -0.29740187525749207, -0.9534200429916382, -2.0634875297546387, 0.72509765625, 0.06201171875, -0.625732421875
378, 307060205, -5.322181224822998, -1.7621347904205322, 7.920417308807373, -0.2054394632577896, -0.7488256096839905, -1.8525280952453613, 0.7275390625, 0.06005859375, -0.627197265625
379, 307076872, -5.3265910148620605, -1.7898954153060913, 7.901978969573975, -0.38991492986679077, -0.7747585773468018, -1.6882737874984741, 0.7255859375, 0.0595703125, -0.624755859375
380, 307093539, -5.333872318267822, -1.808384656906128, 7.881491661071777, -0.4567512571811676, -0.8017542958259583, -1.7947072982788086, 0.724609375, 0.06005859375, -0.624755859375
381, 307110206, -5.325046539306641, -1.780685305595398, 7.885190963745117, -0.43586403131484985, -0.7913811206817627, -1.8432563543319702, 0.72509765625, 0.06103515625, -0.624267578125
382, 307126873, -5.312840938568115, -1.788784146308899, 7.867363929748535, -0.3506506681442261, -0.7557794451713562, -1.8757716417312622, 0.72509765625, 0.06201171875, -0.626220703125
383, 307143540, -5.310140609741211, -1.7847521305084229, 7.9039459228515625, -0.42834675312042236, -0.6033839583396912, -1.7648173570632935, 0.72607421875, 0.059326171875, -0.6298828125
384, 307160207, -5.329774379730225, -1.7735804319381714, 7.89754581451416, -0.45833921432495117, -0.4962843656539917, -1.7929397821426392, 0.7236328125, 0.06103515625, -0.625244140625
385, 307176874, -5.347655296325684, -1.7639093399047852, 7.887256145477295, -0.5217050909996033, -0.7153242230415344, -1.860032558441162, 0.72412109375, 0.06005859375, -0.625244140625
386, 307193541, -5.2957563400268555, -1.8130204677581787, 7.8853278160095215, -0.4537290036678314, -0.831721305847168, -1.9115910530090332, 0.7255859375, 0.06103515625, -0.624755859375
387, 307210208, -5.3032355308532715, -1.7891873121261597, 7.902615547180176, -0.3916672170162201, -0.7386504411697388, -1.8173810243606567, 0.72705078125, 0.0625, -0.626220703125
388, 307226875, -5.304623603820801, -1.7874643802642822, 7.914191246032715, -0.4827353060245514, -0.5319117307662964, -1.7588880062103271, 0.72412109375, 0.0595703125, -0.626220703125
389, 307243542, -5.3214569091796875, -1.7879931926727295, 7.904971599578857, -0.6267682909965515, -0.43691420555114746, -1.7412664890289307, 0.72412109375, 0.06201171875, -0.62744140625
390, 307260209, -5.327733039855957, -1.7730599641799927, 7.875311851501465, -0.67900550365448, -0.28444182872772217, -1.836712121963501, 0.7236328125, 0.06103515625, -0.626953125
391, 307276876, -5.339634895324707, -1.7628021240234375, 7.8762712478637695, -0.8728808164596558, -0.4377850890159607, -1.8647712469100952, 0.72509765625, 0.06103515625, -0.6279296875
392, 307293543, -5.3141303062438965, -1.8351211547851562, 7.865306377410889, -0.81121826171875, -0.6953592896461487, -1.968822717666626, 0.7265625, 0.0615234375, -0.626220703125
393, 307310210, -5.317436695098877, -1.795005440711975, 7.88784122467041, -0.5744544267654419, -0.7419102191925049, -1.9814112186431885, 0.7265625, 0.06298828125, -0.626708984375
394, 307326877, -5.306412696838379, -1.815460205078125, 7.878349304199219, -0.5115112066268921, -0.7627589702606201, -1.7690178155899048, 0.7236328125, 0.0615234375, -0.62646484375
395, 307343544, -5.318265438079834, -1.802036166191101, 7.905762195587158, -0.5465749502182007, -0.5941121578216553, -1.8551148176193237, 0.72802734375, 0.06201171875, -0.624755859375
396, 307360211, -5.329245567321777, -1.7819017171859741, 7.8856730461120605, -0.57444167137146, -0.48209503293037415, -1.829860806465149, 0.72607421875, 0.0625, -0.626953125
397, 307376878, -5.3341145515441895, -1.788017988204956, 7.891460418701172, -0.34879374504089355, -0.5493412017822266, -1.8313207626342773, 0.72509765625, 0.060546875, -0.626953125
398, 307393545, -5.305889129638672, -1.7900707721710205, 7.889122009277344, -0.49985742568969727, -0.7156188488006592, -1.7685824632644653, 0.724609375, 0.060546875, -0.62744140625
399, 307410212, -5.294715881347656, -1.8235793113708496, 7.904078960418701, -0.37461134791374207, -0.6147303581237793, -1.7563395500183105, 0.72705078125, 0.06103515625, -0.627685546875
400, 307426879, -5.322565078735352, -1.7919124364852905, 7.8661298751831055, -0.41068682074546814, -0.4989737570285797, -1.733710765838623, 0.7255859375, 0.060546875, -0.623779296875
401, 307443546, -5.322821140289307, -1.7818403244018555, 7.887996673583984, -0.5303109288215637, -0.5437063574790955, -1.6952788829803467, 0.7265625, 0.060546875, -0.625244140625
402, 307460213, -5.327737331390381, -1.7940908670425415, 7.89177942276001, -0.5804349184036255, -0.5605210065841675, -1.7345432043075562, 0.72509765625, 0.06103515625, -0.626953125
403, 307476880, -5.320978164672852, -1.802146077156067, 7.908451080322266, -0.47534599900245667, -0.6459649205207825, -1.681114912033081, 0.7255859375, 0.0625, -0.626953125
404, 307493547, -5.323327541351318, -1.7971723079681396, 7.877324104309082, -0.3703468143939972, -0.5741854906082153, -1.6895031929016113, 0.724609375, 0.06103515625, -0.624755859375
405, 307510214, -5.3051347732543945, -1.8061052560806274, 7.8909454345703125, -0.3838447630405426, -0.48888248205184937, -1.6335397958755493, 0.72509765625, 0.06298828125, -0.62744140625
406, 307526881, -5.309840202331543, -1.7783281803131104, 7.892016887664795, -0.46315449476242065, -0.36061403155326843, -1.671446442604065, 0.7255859375, 0.06103515625, -0.626220703125
407, 307543548, -5.317471981048584, -1.8071613311767578, 7.895198822021484, -0.4295377731323242, -0.3914260268211365, -1.6727523803710938, 0.7236328125, 0.06298828125, -0.62744140625
408, 307560215, -5.327198505401611, -1.7966597080230713, 7.8778977394104, -0.42784738540649414, -0.4127870798110962, -1.604097843170166, 0.72509765625, 0.060546875, -0.626220703125
409, 307576882, -5.297996520996094, -1.8107995986938477, 7.88309907913208, -0.2356240302324295, -0.3344762623310089, -1.5328047275543213, 0.72802734375, 0.0615234375, -0.626708984375
410, 307593549, -5.314418315887451, -1.8087462186813354, 7.891536235809326, -0.3151002526283264, -0.21272629499435425, -1.4822965860366821, 0.7265625, 0.0634765625, -0.624755859375
411, 307610216, -5.326241970062256, -1.7869939804077148, 7.891051292419434, -0.36061397194862366, -0.15893959999084473, -1.4961144924163818, 0.72607421875, 0.0625, -0.625244140625
412, 307626883, -5.3617730140686035, -1.7833020687103271, 7.883817672729492, -0.4328930675983429, -0.2946997284889221, -1.701259732246399, 0.7265625, 0.06298828125, -0.627197265625
413, 307643550, -5.328763484954834, -1.796500325202942, 7.881614685058594, -0.36163854598999023, -0.4061790406703949, -1.6679375171661377, 0.72607421875, 0.06103515625, -0.625732421875
414, 307660217, -5.340125560760498, -1.7986702919006348, 7.863260269165039, -0.24013186991214752, -0.5584209561347961, -1.6671819686889648, 0.72607421875, 0.06005859375, -0.625732421875
415, 307676884, -5.2954301834106445, -1.8076221942901611, 7.8962836265563965, -0.16344743967056274, -0.724250316619873, -1.6568214893341064, 0.72607421875, 0.0615234375, -0.62744140625
416, 307693551, -5.3216094970703125, -1.7888442277908325, 7.910477161407471, -0.23362624645233154, -0.6503961682319641, -1.6777856349945068, 0.7255859375, 0.06103515625, -0.62744140625
417, 307710218, -5.349196910858154, -1.7758073806762695, 7.886893272399902, -0.2867982089519501, -0.6058812141418457, -1.6457568407058716, 0.724609375, 0.060546875, -0.625244140625
418, 307726885, -5.312179088592529, -1.7837419509887695, 7.893375873565674, -0.27920401096343994, -0.6559924483299255, -1.5976945161819458, 0.72705078125, 0.0634765625, -0.624755859375
419, 307743552, -5.337673187255859, -1.7894830703735352, 7.893919944763184, -0.35944864153862, -0.6256414651870728, -1.5371462106704712, 0.7236328125, 0.059326171875, -0.62646484375
420, 307760219, -5.324810028076172, -1.8116929531097412, 7.874212265014648, -0.3836526572704315, -0.7678816914558411, -1.580495834350586, 0.72607421875, 0.06298828125, -0.626220703125
421, 307776886, -5.330218315124512, -1.7984633445739746, 7.8540568351745605, -0.33519336581230164, -0.8170577883720398, -1.6279172897338867, 0.7255859375, 0.0625, -0.626220703125
422, 307793553, -5.340213775634766, -1.7904056310653687, 7.874972343444824, -0.2629271447658539, -0.9095965623855591, -1.5616317987442017, 0.72705078125, 0.06005859375, -0.624755859375
423, 307810220, -5.320418357849121, -1.7887775897979736, 7.890581130981445, -0.3293536901473999, -1.0032238960266113, -1.641492247581482, 0.7265625, 0.0595703125, -0.627197265625
424, 307826887, -5.314309597015381, -1.807382583618164, 7.888244152069092, -0.2529766261577606, -1.0272613763809204, -1.5642699003219604, 0.7265625, 0.060546875, -0.625244140625
425, 307843554, -5.324700355529785, -1.7953931093215942, 7.895284652709961, -0.20009921491146088, -0.8812176585197449, -1.617108941078186, 0.7255859375, 0.0625, -0.626708984375
426, 307860221, -5.324558734893799, -1.8115520477294922, 7.8809099197387695, -0.326856404542923, -0.8307733535766602, -1.6616876125335693, 0.72509765625, 0.060546875, -0.626708984375
427, 307876888, -5.303757190704346, -1.8056608438491821, 7.894252300262451, -0.2670252323150635, -0.7190638184547424, -1.5323567390441895, 0.7255859375, 0.059326171875, -0.624755859375
428, 307893555, -5.320932388305664, -1.7917535305023193, 7.914149284362793, -0.2724166810512543, -0.48984286189079285, -1.5877057313919067, 0.72607421875, 0.06201171875, -0.625732421875
429, 307910222, -5.323704719543457, -1.7869333028793335, 7.8793439865112305, -0.2792809009552002, -0.5236388444900513, -1.627994418144226, 0.72607421875, 0.0615234375, -0.624755859375
430, 307926889, -5.342972278594971, -1.7759451866149902, 7.898468017578125, -0.3323119282722473, -0.6491537690162659, -1.6855074167251587, 0.72509765625, 0.06005859375, -0.6279296875
431, 307943556, -5.332854747772217, -1.7905076742172241, 7.869819164276123, -0.26154404878616333, -0.7828905582427979, -1.657487392425537, 0.7255859375, 0.06005859375, -0.625732421875
432, 307960223, -5.300766944885254, -1.7831419706344604, 7.895400047302246, -0.20131579041481018, -0.7636936902999878, -1.652492642402649, 0.72607421875, 0.06103515625, -0.6279296875
433, 307976890, -5.306015968322754, -1.7770166397094727, 7.876584529876709, -0.22188280522823334, -0.7291678786277771, -1.625586748123169, 0.72509765625, 0.06103515625, -0.626220703125
434, 307993557, -5.318556308746338, -1.784345030784607, 7.886250972747803, -0.27981874346733093, -0.5440393090248108, -1.639007806777954, 0.72705078125, 0.06005859375, -0.626708984375
435, 308010224, -5.324204921722412, -1.7893879413604736, 7.876089572906494, -0.35657998919487, -0.47024914622306824, -1.7264751195907593, 0.724609375, 0.060546875, -0.62744140625
436, 308026891, -5.311161041259766, -1.802025318145752, 7.891552925109863, -0.37039807438850403, -0.49578502774238586, -1.7104545831680298, 0.7236328125, 0.06005859375, -0.6279296875
437, 308043558, -5.313599586486816, -1.794337272644043, 7.891952991485596, -0.36799049377441406, -0.4743984341621399, -1.7071762084960938, 0.724609375, 0.06201171875, -0.626953125
438, 308060225, -5.316020965576172, -1.793392300605774, 7.884678840637207, -0.3685283064842224, -0.29280439019203186, -1.6007680892944336, 0.72607421875, 0.0615234375, -0.626708984375
439, 308076892, -5.309694766998291, -1.7842124700546265, 7.913935661315918, -0.3946276605129242, -0.2566264271736145, -1.575539469718933, 0.724609375, 0.0625, -0.626953125
440, 308093559, -5.3263115882873535, -1.7945246696472168, 7.881742000579834, -0.47726699709892273, -0.20068828761577606, -1.589460015296936, 0.72265625, 0.06005859375, -0.62646484375
441, 308110226, -5.324014663696289, -1.7943618297576904, 7.9051642417907715, -0.5648624897003174, -0.312846302986145, -1.593327522277832, 0.7265625, 0.05908203125, -0.623779296875
442, 308126893, -5.347830295562744, -1.8251311779022217, 7.876759052276611, -0.397086501121521, -0.4401414692401886, -1.566831350326538, 0.724609375, 0.0625, -0.625244140625
443, 308143560, -5.307076930999756, -1.804875373840332, 7.909170150756836, -0.2554098665714264, -0.5327185392379761, -1.5690722465515137, 0.7265625, 0.059326171875, -0.626220703125
444, 308160227, -5.337315082550049, -1.7762471437454224, 7.91660213470459, -0.41433659195899963, -0.42458170652389526, -1.553192377090454, 0.72412109375, 0.06005859375, -0.625732421875
445, 308176894, -5.336267948150635, -1.7567059993743896, 7.871443271636963, -0.3971121311187744, -0.3249739408493042, -1.625292420387268, 0.7265625, 0.0595703125, -0.625244140625
446, 308193561, -5.329124450683594, -1.7880672216415405, 7.873160362243652, -0.4696217179298401, -0.38194942474365234, -1.6552976369857788, 0.7236328125, 0.060546875, -0.6279296875
447, 308210228, -5.341689109802246, -1.8039239645004272, 7.87476921081543, -0.5040578842163086, -0.5015222430229187, -1.7297791242599487, 0.72607421875, 0.06005859375, -0.625732421875
448, 308226895, -5.34440803527832, -1.7758333683013916, 7.871454238891602, -0.35948705673217773, -0.5438216328620911, -1.6910146474838257, 0.7275390625, 0.0625, -0.625244140625
449, 308243562, -5.335762023925781, -1.7896867990493774, 7.892640113830566, -0.3089403808116913, -0.669989824295044, -1.7944129705429077, 0.72509765625, 0.06103515625, -0.62890625
450, 308260229, -5.321719646453857, -1.7974551916122437, 7.88939905166626, -0.2483406662940979, -0.5085016489028931, -1.7590415477752686, 0.7275390625, 0.06103515625, -0.625732421875
451, 308276896, -5.326840877532959, -1.7911574840545654, 7.888862609863281, -0.2890905439853668, -0.5541179180145264, -1.736604928970337, 0.72412109375, 0.0615234375, -0.624755859375
452, 308293563, -5.321504592895508, -1.7829108238220215, 7.898436069488525, -0.16580381989479065, -0.4548303484916687, -1.676863670349121, 0.7255859375, 0.060546875, -0.626220703125
453, 308310230, -5.332452297210693, -1.7836834192276, 7.894225120544434, -0.17853334546089172, -0.5595862865447998, -1.7205076217651367, 0.7275390625, 0.0625, -0.625244140625
454, 308326897, -5.332633972167969, -1.7775906324386597, 7.893894672393799, -0.1564551591873169, -0.6311609148979187, -1.7566468715667725, 0.7265625, 0.06005859375, -0.626220703125
455, 308343564, -5.340734481811523, -1.7939189672470093, 7.88867712020874, -0.22649310529232025, -0.7081270813941956, -1.6763510704040527, 0.72705078125, 0.058349609375, -0.625244140625
456, 308360231, -5.336097240447998, -1.7900091409683228, 7.913639068603516, -0.2639004588127136, -0.6612814664840698, -1.7516396045684814, 0.7255859375, 0.06103515625, -0.626708984375
457, 308376898, -5.335801124572754, -1.772255539894104, 7.8768205642700195, -0.2587394714355469, -0.8302740454673767, -1.7271795272827148, 0.72607421875, 0.0595703125, -0.626220703125
458, 308393565, -5.334061622619629, -1.781831979751587, 7.916749954223633, -0.21345622837543488, -0.9194062352180481, -1.6997482776641846, 0.72509765625, 0.06103515625, -0.625244140625
459, 308410232, -5.315806865692139, -1.7877137660980225, 7.87185001373291, -0.21951398253440857, -1.0183323621749878, -1.7749639749526978, 0.728515625, 0.0595703125, -0.62353515625
460, 308426899, -5.320303916931152, -1.7846958637237549, 7.926493167877197, -0.25339922308921814, -0.9143733382225037, -1.8253145217895508, 0.7236328125, 0.06005859375, -0.625244140625
461, 308443566, -5.321354866027832, -1.78977632522583, 7.895931720733643, -0.3060205578804016, -0.8458849787712097, -1.6996842622756958, 0.7255859375, 0.060546875, -0.6279296875
462, 308460233, -5.3188090324401855, -1.7845755815505981, 7.880915641784668, -0.3591412603855133, -0.6900317072868347, -1.7828871011734009, 0.72509765625, 0.06103515625, -0.62841796875
463, 308476900, -5.315288543701172, -1.7865420579910278, 7.895679473876953, -0.45097556710243225, -0.8087977766990662, -1.662789225578308, 0.7265625, 0.0595703125, -0.6279296875
464, 308493567, -5.319385528564453, -1.7848659753799438, 7.895042419433594, -0.44353508949279785, -0.8269700407981873, -1.6396993398666382, 0.72509765625, 0.060546875, -0.626953125
465, 308510234, -5.324280261993408, -1.7766309976577759, 7.895951747894287, -0.5209622979164124, -0.8451805114746094, -1.7553404569625854, 0.72607421875, 0.060546875, -0.626708984375
466, 308526901, -5.336762428283691, -1.7837276458740234, 7.9065985679626465, -0.6636890769004822, -0.7957096695899963, -1.7328143119812012, 0.72509765625, 0.0615234375, -0.626708984375
467, 308543568, -5.3051581382751465, -1.7951319217681885, 7.909894943237305, -0.4845922589302063, -0.7854261994361877, -1.770836353302002, 0.724609375, 0.0595703125, -0.626953125
468, 308560235, -5.331570625305176, -1.790838599205017, 7.873873710632324, -0.46146395802497864, -0.7431140542030334, -1.7757283449172974, 0.7255859375, 0.0595703125, -0.62939453125
469, 308576902, -5.302272796630859, -1.808875560760498, 7.917461395263672, -0.48104482889175415, -0.7083831429481506, -1.7742938995361328, 0.724609375, 0.060546875, -0.6279296875
470, 308593569, -5.327043533325195, -1.7849167585372925, 7.895500659942627, -0.42855167388916016, -0.62598717212677, -1.7737946510314941, 0.72412109375, 0.06005859375, -0.626220703125
471, 308610236, -5.327364444732666, -1.7821292877197266, 7.903854846954346, -0.4288846254348755, -0.8176341652870178, -1.8558063507080078, 0.724609375, 0.0615234375, -0.62744140625
472, 308626903, -5.323882102966309, -1.7913165092468262, 7.916335105895996, -0.30276766419410706, -0.7839277386665344, -1.7817472219467163, 0.7255859375, 0.06298828125, -0.626953125
473, 308643570, -5.316737174987793, -1.7980719804763794, 7.908145904541016, -0.39416661858558655, -0.7159005999565125, -1.7463505268096924, 0.724609375, 0.06005859375, -0.62939453125
474, 308660237, -5.3132805824279785, -1.7857977151870728, 7.880079746246338, -0.36008891463279724, -0.5674365162849426, -1.7300734519958496, 0.7236328125, 0.0615234375, -0.625732421875
475, 308676904, -5.3298726081848145, -1.778307318687439, 7.9043498039245605, -0.46922460198402405, -0.4710303843021393, -1.7015411853790283, 0.7255859375, 0.06103515625, -0.6279296875
476, 308693571, -5.316990375518799, -1.8026705980300903, 7.915556907653809, -0.5676414966583252, -0.3006162643432617, -1.6394305229187012, 0.72509765625, 0.06103515625, -0.626708984375
477, 308710238, -5.359615325927734, -1.7518514394760132, 7.9076080322265625, -0.6281770467758179, -0.3490370512008667, -1.7382826805114746, 0.72607421875, 0.059326171875, -0.627197265625
478, 308726905, -5.309770107269287, -1.8285576105117798, 7.898399353027344, -0.7471352219581604, -0.32903358340263367, -1.956784725189209, 0.72607421875, 0.060546875, -0.626220703125
479, 308743572, -5.325925827026367, -1.7898375988006592, 7.887842655181885, -0.8096045851707458, -0.23737847805023193, -1.753650188446045, 0.72705078125, 0.06298828125, -0.62841796875
480, 308760239, -5.3290486335754395, -1.8178414106369019, 7.910207748413086, -0.6689909100532532, -0.19495105743408203, -1.7470676898956299, 0.7255859375, 0.06201171875, -0.625732421875
481, 308776906, -5.333270072937012, -1.7918254137039185, 7.894914627075195, -0.7317035794258118, -0.3599224388599396, -1.7430593967437744, 0.72607421875, 0.06103515625, -0.625732421875
482, 308793573, -5.328671455383301, -1.8129606246948242, 7.894882678985596, -0.5242919921875, -0.4708383083343506, -1.6176725625991821, 0.72705078125, 0.0625, -0.627197265625
483, 308810240, -5.318166255950928, -1.8028167486190796, 7.905593395233154, -0.4778689742088318, -0.3674910366535187, -1.6565910577774048, 0.72412109375, 0.06298828125, -0.6259765625
484, 308826907, -5.314091205596924, -1.8038980960845947, 7.887967586517334, -0.49721935391426086, -0.2820342481136322, -1.608003854751587, 0.72509765625, 0.06201171875, -0.626708984375
485, 308843574, -5.335426330566406, -1.7967264652252197, 7.892309665679932, -0.43142029643058777, -0.21448074281215668, -1.6264575719833374, 0.7255859375, 0.0615234375, -0.626953125
486, 308860241, -5.313806533813477, -1.798474907875061, 7.895482540130615, -0.5389296412467957, -0.26933035254478455, -1.661521553993225, 0.7275390625, 0.0625, -0.627197265625
487, 308876908, -5.3194169998168945, -1.8059523105621338, 7.893424987792969, -0.4556499421596527, -0.30184563994407654, -1.5685343742370605, 0.7265625, 0.06201171875, -0.626220703125
488, 308893575, -5.333035945892334, -1.797394871711731, 7.87466287612915, -0.3494596779346466, -0.4191005825996399, -1.4570808410644531, 0.7265625, 0.063720703125, -0.624267578125
489, 308910242, -5.335909366607666, -1.8021372556686401, 7.886235237121582, -0.20464546978473663, -0.526136040687561, -1.488494873046875, 0.72607421875, 0.06201171875, -0.626220703125
490, 308926909, -5.33051061630249, -1.7936677932739258, 7.895851135253906, -0.31890368461608887, -0.6096334457397461, -1.407686710357666, 0.7255859375, 0.0615234375, -0.625244140625
491, 308943576, -5.285987854003906, -1.7931914329528809, 7.878190994262695, -0.3856376111507416, -0.48497647047042847, -1.680833339691162, 0.7255859375, 0.06201171875, -0.625732421875
492, 308960243, -5.293857574462891, -1.8273247480392456, 7.930033206939697, -0.5232930183410645, 0.12605929374694824, -1.4932843446731567, 0.72607421875, 0.0625, -0.624267578125
493, 308976910, -5.2864484786987305, -1.8112616539001465, 7.942116737365723, -1.085965871810913, 0.7843953967094421, -1.1549921035766602, 0.72607421875, 0.06298828125, -0.625732421875
494, 308993577, -5.35718297958374, -1.8066353797912598, 7.8878960609436035, -1.3810237646102905, 1.138874888420105, -0.9622689485549927, 0.72705078125, 0.0615234375, -0.623291015625
495, 309010244, -5.3590545654296875, -1.77847421169281, 7.900908946990967, -1.3090137243270874, 1.2305941581726074, -0.9204307794570923, 0.72900390625, 0.06103515625, -0.625244140625
496, 309026911, -5.386590957641602, -1.8231501579284668, 7.835211753845215, -1.0658341646194458, 1.1678814888000488, -0.826765239238739, 0.72705078125, 0.060546875, -0.623046875
497, 309043578, -5.40365743637085, -1.8150180578231812, 7.832115173339844, -0.6458369493484497, 0.7549406886100769, -0.8607404232025146, 0.731201171875, 0.0615234375, -0.62353515625
498, 309060245, -5.3523759841918945, -1.788102388381958, 7.851891994476318, -0.4135682284832001, 0.3999743163585663, -0.8561813235282898, 0.728515625, 0.0625, -0.623779296875
499, 309076912, -5.275089263916016, -1.7975436449050903, 7.909543991088867, -0.30083394050598145, 0.4254973530769348, -0.793097198009491, 0.72607421875, 0.0615234375, -0.625244140625
500, 309093579, -5.194799423217773, -1.8867839574813843, 7.972922325134277, -1.0804461240768433, 1.4227149486541748, -0.42313456535339355, 0.72900390625, 0.06005859375, -0.623046875
501, 309110246, -5.250726222991943, -1.8245993852615356, 7.992560863494873, -1.5130960941314697, 3.2991271018981934, 0.3448302149772644, 0.72900390625, 0.06103515625, -0.62158203125
502, 309126913, -5.36237907409668, -1.7643685340881348, 7.901933193206787, -2.285677433013916, 4.546990394592285, 0.5588499307632446, 0.72802734375, 0.06201171875, -0.62109375
503, 309143580, -5.470704555511475, -1.6944358348846436, 7.8329572677612305, -2.142400026321411, 4.6096906661987305, 0.1445004642009735, 0.732666015625, 0.0625, -0.620849609375
504, 309160247, -5.4863128662109375, -1.7712147235870361, 7.743337631225586, -1.64448881149292, 3.8069369792938232, -0.14020392298698425, 0.732666015625, 0.060546875, -0.617919921875
505, 309176914, -5.505378723144531, -1.8093384504318237, 7.72715950012207, -0.6109140515327454, 2.505338191986084, -0.1178056076169014, 0.730712890625, 0.05810546875, -0.619384765625
506, 309193581, -5.532998085021973, -1.7816389799118042, 7.682703971862793, -0.46504977345466614, 0.7161886692047119, -0.3453488349914551, 0.733154296875, 0.0595703125, -0.617919921875
507, 309210248, -5.540736675262451, -1.7233024835586548, 7.691277027130127, 0.3011861741542816, -0.8506489396095276, -1.0768731832504272, 0.733642578125, 0.05810546875, -0.61767578125
508, 309226915, -5.5294189453125, -1.724320411682129, 7.736109733581543, 0.8082152009010315, -2.14385986328125, -1.8283883333206177, 0.735107421875, 0.0576171875, -0.61865234375
509, 309243582, -5.464145660400391, -1.7568762302398682, 7.778471946716309, 0.9578061699867249, -2.9199249744415283, -2.2977538108825684, 0.734130859375, 0.05908203125, -0.620361328125
510, 309260249, -5.3463287353515625, -1.81686532497406, 7.8417510986328125, 1.2987751960754395, -3.2548108100891113, -2.3879234790802, 0.732666015625, 0.06103515625, -0.619873046875
511, 309276916, -5.128734111785889, -1.88448166847229, 8.06403923034668, 0.7106564044952393, -2.234311103820801, -1.9181609153747559, 0.732177734375, 0.057861328125, -0.619873046875
512, 309293583, -5.137239456176758, -1.8946746587753296, 8.098424911499023, -0.5079254508018494, 0.050911638885736465, -0.49073922634124756, 0.732177734375, 0.05810546875, -0.620849609375
513, 309310250, -5.243154048919678, -1.7875730991363525, 8.054863929748535, -0.4192926585674286, 3.3280436992645264, 1.1543195247650146, 0.732666015625, 0.057373046875, -0.619873046875
514, 309326917, -5.531630992889404, -1.6422334909439087, 7.860628604888916, -2.2718207836151123, 5.380773544311523, 0.05459986999630928, 0.735107421875, 0.05810546875, -0.61572265625
515, 309343584, -5.515198707580566, -1.6969335079193115, 7.7947540283203125, -2.6804208755493164, 5.7499566078186035, -0.8150346875190735, 0.735595703125, 0.0576171875, -0.61669921875
516, 309360251, -5.576401710510254, -1.7502509355545044, 7.683493137359619, -2.491757392883301, 4.870172023773193, -0.972962498664856, 0.735107421875, 0.0576171875, -0.6142578125
517, 309376918, -5.624232292175293, -1.816611409187317, 7.600774765014648, -1.7822468280792236, 2.839212417602539, -0.9338005185127258, 0.7373046875, 0.05712890625, -0.61572265625
518, 309393585, -5.619648456573486, -1.8342463970184326, 7.590060710906982, -0.34849920868873596, 0.2702588140964508, -1.0044276714324951, 0.735595703125, 0.05810546875, -0.611083984375
519, 309410252, -5.57817268371582, -1.809698224067688, 7.634329795837402, 0.7072626948356628, -2.0948116779327393, -0.9692741632461548, 0.735595703125, 0.0576171875, -0.611572265625
520, 309426919, -5.511338233947754, -1.7540165185928345, 7.780732154846191, 1.429886817932129, -3.590939521789551, -1.0458307266235352, 0.73779296875, 0.05810546875, -0.6162109375
521, 309443586, -5.396902084350586, -1.831729531288147, 7.8238019943237305, 2.109980583190918, -4.392488956451416, -0.914783239364624, 0.735595703125, 0.056884765625, -0.615234375
522, 309460253, -5.3563232421875, -1.7716269493103027, 7.918759346008301, 2.174639940261841, -3.8885974884033203, -0.7273495197296143, 0.73779296875, 0.055908203125, -0.615478515625
523, 309476920, -5.371391773223877, -1.706864356994629, 7.935080051422119, 0.9955976009368896, -2.723539352416992, -0.774617612361908, 0.735107421875, 0.055908203125, -0.6162109375
524, 309493587, -5.37863302230835, -1.7361112833023071, 7.939657688140869, -0.02239830419421196, -0.7777552008628845, -1.095852255821228, 0.73583984375, 0.054931640625, -0.6171875
525, 309510254, -5.437478542327881, -1.7488211393356323, 7.843960762023926, -0.40211939811706543, 0.2581183910369873, -1.1498438119888306, 0.734619140625, 0.055908203125, -0.61865234375
526, 309526921, -5.438158988952637, -1.7918598651885986, 7.791818141937256, -0.4901246726512909, 0.6250587105751038, -1.482488751411438, 0.73583984375, 0.054931640625, -0.61572265625
527, 309543588, -5.481427192687988, -1.7392332553863525, 7.7382121086120605, -0.4269636869430542, 0.25723475217819214, -1.4186105728149414, 0.73681640625, 0.054931640625, -0.6171875
528, 309560255, -5.49630069732666, -1.7374056577682495, 7.802393913269043, -0.2188989520072937, -0.3026268482208252, -1.5776528120040894, 0.7353515625, 0.054443359375, -0.61474609375
529, 309576922, -5.478141784667969, -1.7369381189346313, 7.804266452789307, -0.09284602850675583, -1.099450707435608, -1.5397714376449585, 0.733642578125, 0.055908203125, -0.6162109375
530, 309593589, -5.471487998962402, -1.7611087560653687, 7.762688636779785, 0.11373361945152283, -1.506744623184204, -1.7071889638900757, 0.734619140625, 0.056396484375, -0.61572265625
531, 309610256, -5.448812007904053, -1.7639784812927246, 7.808716297149658, 0.11800411343574524, -1.737578272819519, -1.753112554550171, 0.7353515625, 0.054931640625, -0.61669921875
532, 309626923, -5.410619258880615, -1.7754888534545898, 7.834021091461182, 0.16706524789333344, -1.7544188499450684, -1.586322546005249, 0.735107421875, 0.055419921875, -0.6142578125
533, 309643590, -5.41531229019165, -1.7537208795547485, 7.855759620666504, 0.2133217602968216, -1.3116775751113892, -1.329452633857727, 0.733154296875, 0.054931640625, -0.61572265625
534, 309660257, -5.421510696411133, -1.7368426322937012, 7.852163314819336, 0.12406150251626968, -0.664944052696228, -1.2597349882125854, 0.733642578125, 0.054443359375, -0.61767578125
535, 309676924, -5.442389488220215, -1.7218594551086426, 7.832751274108887, 0.07427042722702026, -0.5222942233085632, -1.4232722520828247, 0.73486328125, 0.053955078125, -0.6181640625
536, 309693591, -5.421351909637451, -1.7480254173278809, 7.8520097732543945, 0.027616893872618675, -0.3790423572063446, -1.418623447418213, 0.734375, 0.053955078125, -0.61767578125
537, 309710258, -5.438831329345703, -1.7655671834945679, 7.841562271118164, -0.06399332731962204, -0.1967567652463913, -1.2418190240859985, 0.734375, 0.054931640625, -0.6181640625
538, 309726925, -5.448252201080322, -1.7314025163650513, 7.810340881347656, 0.05862106755375862, -0.2594950497150421, -1.1321965456008911, 0.732666015625, 0.053955078125, -0.6171875
539, 309743592, -5.459690093994141, -1.7419084310531616, 7.7983808517456055, 0.07822759449481964, -0.5150842070579529, -1.2344681024551392, 0.734375, 0.053955078125, -0.6171875
540, 309760259, -5.462978363037109, -1.7314486503601074, 7.783697605133057, 0.12789061665534973, -0.8375352621078491, -1.4591041803359985, 0.733154296875, 0.053466796875, -0.61572265625
541, 309776926, -5.445498943328857, -1.7386599779129028, 7.816300868988037, 0.1820230334997177, -0.9868571162223816, -1.5692514181137085, 0.734130859375, 0.053466796875, -0.61669921875
542, 309793593, -5.4398651123046875, -1.7227524518966675, 7.853672981262207, 0.070121169090271, -0.9814146161079407, -1.4974979162216187, 0.73486328125, 0.05126953125, -0.61767578125
543, 309810260, -5.443453311920166, -1.7235305309295654, 7.870511531829834, -0.00623669195920229, -0.8896058201789856, -1.6182998418807983, 0.732666015625, 0.054931640625, -0.6171875
544, 309826927, -5.434282302856445, -1.7551554441452026, 7.812502861022949, 0.08221036195755005, -0.9035775661468506, -1.5967851877212524, 0.733154296875, 0.054443359375, -0.61767578125
545, 309843594, -5.43839693069458, -1.7377797365188599, 7.838313579559326, 0.15388751029968262, -0.8429396152496338, -1.4798762798309326, 0.732666015625, 0.054443359375, -0.6171875
546, 309860261, -5.4445037841796875, -1.7249226570129395, 7.820931434631348, 0.05420286953449249, -1.0299888849258423, -1.6243315935134888, 0.733642578125, 0.052978515625, -0.61767578125
547, 309876928, -5.4378557205200195, -1.7155101299285889, 7.822540283203125, -0.08941392600536346, -1.093252420425415, -1.6893877983093262, 0.73388671875, 0.052734375, -0.61767578125
548, 309893595, -5.449667930603027, -1.7289937734603882, 7.8498663902282715, 0.08328608423471451, -1.1338741779327393, -1.7389229536056519, 0.733154296875, 0.052978515625, -0.6181640625
549, 309910262, -5.457222938537598, -1.720450520515442, 7.832625389099121, 0.07793304324150085, -1.2817747592926025, -1.7181768417358398, 0.7333984375, 0.05126953125, -0.6162109375
550, 309926929, -5.496833324432373, -1.671774983406067, 7.837442874908447, 0.05344729870557785, -1.631349802017212, -1.7505255937576294, 0.7353515625, 0.053466796875, -0.61669921875
551, 309943596, -5.400320529937744, -1.7682137489318848, 7.783609867095947, 0.27347320318222046, -1.7739994525909424, -1.756377935409546, 0.73486328125, 0.053466796875, -0.61865234375
552, 309960263, -5.403498649597168, -1.7383102178573608, 7.850512504577637, 0.33406004309654236, -1.5578796863555908, -1.640339732170105, 0.730224609375, 0.05224609375, -0.618896484375
553, 309976930, -5.406351089477539, -1.7098503112792969, 7.839818000793457, 0.1572427749633789, -1.5664472579956055, -1.7473112344741821, 0.733642578125, 0.052734375, -0.61767578125
554, 309993597, -5.410768032073975, -1.721526026725769, 7.853904724121094, 0.23675741255283356, -1.2914563417434692, -1.6350764036178589, 0.73193359375, 0.05029296875, -0.619873046875
555, 310010264, -5.427871227264404, -1.7102227210998535, 7.840045928955078, 0.27051496505737305, -1.295938491821289, -1.6454366445541382, 0.734375, 0.054443359375, -0.61865234375
556, 310026931, -5.389336585998535, -1.7334436178207397, 7.852477550506592, 0.2919143736362457, -1.3241381645202637, -1.681832194328308, 0.7333984375, 0.052734375, -0.619384765625
557, 310043598, -5.419166564941406, -1.731188178062439, 7.850353240966797, 0.2830779552459717, -1.308872938156128, -1.4974976778030396, 0.7333984375, 0.0517578125, -0.619384765625
558, 310060265, -5.421977996826172, -1.712420105934143, 7.8636932373046875, 0.3576621115207672, -1.2516028881072998, -1.517975091934204, 0.732421875, 0.05078125, -0.620361328125
559, 310076932, -5.396937847137451, -1.7085696458816528, 7.854442596435547, 0.08345257490873337, -1.1583598852157593, -1.6721762418746948, 0.732177734375, 0.0517578125, -0.618408203125
560, 310093599, -5.403124809265137, -1.7248202562332153, 7.8521409034729, 0.1488802284002304, -0.8308888673782349, -1.5280025005340576, 0.733154296875, 0.05322265625, -0.618896484375
561, 310110266, -5.418877601623535, -1.702388882637024, 7.847337245941162, 0.18553198873996735, -0.7332404255867004, -1.4414571523666382, 0.731201171875, 0.0517578125, -0.621337890625
562, 310126933, -5.4167938232421875, -1.6980582475662231, 7.852299690246582, 0.0475819855928421, -0.8135104775428772, -1.5482234954833984, 0.731201171875, 0.04931640625, -0.621337890625
563, 310143600, -5.407192707061768, -1.7030584812164307, 7.868038654327393, 0.1402999758720398, -0.6700795292854309, -1.4924393892288208, 0.732177734375, 0.05126953125, -0.6181640625
564, 310160267, -5.432056903839111, -1.7005091905593872, 7.853518009185791, 0.20367860794067383, -0.6253340840339661, -1.5788309574127197, 0.732177734375, 0.053466796875, -0.619384765625
565, 310176934, -5.41336727142334, -1.7140796184539795, 7.833623886108398, 0.19215288758277893, -0.8803853392601013, -1.5385934114456177, 0.731201171875, 0.05224609375, -0.621337890625
566, 310193601, -5.41767692565918, -1.7123894691467285, 7.866702079772949, 0.5066767334938049, -1.010036587715149, -1.4381656646728516, 0.73291015625, 0.05029296875, -0.620849609375
567, 310210268, -5.395422458648682, -1.7155234813690186, 7.837111473083496, 0.6331650614738464, -1.1961257457733154, -1.2914817333221436, 0.731689453125, 0.048828125, -0.61767578125
568, 310226935, -5.394140720367432, -1.7085940837860107, 7.89147424697876, 1.161618947982788, -1.1184167861938477, -1.0604296922683716, 0.7333984375, 0.05078125, -0.620361328125
569, 310243602, -5.414877414703369, -1.664163589477539, 7.855194091796875, 0.5122091174125671, -1.1229374408721924, -1.3776813745498657, 0.73291015625, 0.04931640625, -0.620849609375
570, 310260269, -5.403262138366699, -1.6825611591339111, 7.855462074279785, 0.5178952217102051, -0.9603225588798523, -1.3909873962402344, 0.73095703125, 0.047607421875, -0.621826171875
571, 310276936, -5.4121928215026855, -1.6808024644851685, 7.870275020599365, 0.2906721234321594, -0.8226414918899536, -1.4276903867721558, 0.73291015625, 0.05029296875, -0.622314453125
572, 310293603, -5.409348964691162, -1.677591323852539, 7.854288578033447, -0.009553537704050541, -0.7309224009513855, -1.5295393466949463, 0.730224609375, 0.048095703125, -0.618896484375
573, 310310270, -5.403815746307373, -1.6838490962982178, 7.866327285766602, 0.02818037010729313, -0.8479083776473999, -1.6149959564208984, 0.732421875, 0.04931640625, -0.622314453125
574, 310326937, -5.416779041290283, -1.6771562099456787, 7.845886707305908, 0.02679728902876377, -0.7143638730049133, -1.6027147769927979, 0.731201171875, 0.0498046875, -0.620849609375
575, 310343604, -5.383118152618408, -1.6967177391052246, 7.860105037689209, -0.03362947702407837, -0.8202467560768127, -1.586898922920227, 0.730224609375, 0.05029296875, -0.62255859375
576, 310360271, -5.417617321014404, -1.667665719985962, 7.870620250701904, -0.09216730296611786, -0.6616529226303101, -1.5630791187286377, 0.73193359375, 0.048583984375, -0.620849609375
577, 310376938, -5.404766082763672, -1.6716474294662476, 7.868319511413574, 0.020048340782523155, -0.6261025071144104, -1.667297124862671, 0.73095703125, 0.04931640625, -0.62353515625
578, 310393605, -5.3966240882873535, -1.70824134349823, 7.851941108703613, -0.03453872352838516, -0.7517967820167542, -1.7588623762130737, 0.730712890625, 0.048583984375, -0.621826171875
579, 310410272, -5.399585247039795, -1.6972929239273071, 7.867277145385742, 0.04252348467707634, -0.7714161276817322, -1.5863099098205566, 0.730224609375, 0.049072265625, -0.622314453125
580, 310426939, -5.388546943664551, -1.6833374500274658, 7.8855695724487305, 0.12153865396976471, -0.6820149421691895, -1.5626178979873657, 0.730224609375, 0.049072265625, -0.622802734375
581, 310443606, -5.368513107299805, -1.6922435760498047, 7.870439529418945, 0.12027082592248917, -0.5212312936782837, -1.5678045749664307, 0.731201171875, 0.0498046875, -0.621337890625
582, 310460273, -5.40344762802124, -1.6837844848632812, 7.858975410461426, 0.22685809433460236, -0.4332004189491272, -1.3962892293930054, 0.73193359375, 0.045654296875, -0.619873046875
583, 310476940, -5.38184118270874, -1.7422897815704346, 7.863926887512207, 1.1038113832473755, -0.5218075513839722, -0.9913523197174072, 0.73095703125, 0.048095703125, -0.620849609375
584, 310493607, -5.4264373779296875, -1.6065922975540161, 7.842626094818115, 0.3578798174858093, -0.7818148136138916, -1.3050823211669922, 0.7333984375, 0.046142578125, -0.620849609375
585, 310510274, -5.407384395599365, -1.6442933082580566, 7.867228031158447, 0.14665192365646362, -0.7930845022201538, -1.596068263053894, 0.73388671875, 0.046630859375, -0.621826171875
586, 310526941, -5.390754222869873, -1.67845618724823, 7.869271755218506, 0.012044372968375683, -0.6122204661369324, -1.6286476850509644, 0.73193359375, 0.047607421875, -0.619873046875
587, 310543608, -5.4059834480285645, -1.6487396955490112, 7.873067855834961, -0.04740910604596138, -0.5850197076797485, -1.6914499998092651, 0.73095703125, 0.046142578125, -0.621826171875
588, 310560275, -5.405808925628662, -1.662264108657837, 7.858482837677002, 0.0049496544525027275, -0.4340456426143646, -1.7156156301498413, 0.73095703125, 0.047119140625, -0.622802734375
589, 310576942, -5.410330295562744, -1.6463510990142822, 7.8787455558776855, 0.003963565919548273, -0.39417949318885803, -1.6654787063598633, 0.73291015625, 0.048095703125, -0.621337890625
590, 310593609, -5.414047718048096, -1.6687943935394287, 7.861303806304932, -0.09045124799013138, -0.5472409725189209, -1.5975921154022217, 0.730224609375, 0.047607421875, -0.621337890625
591, 310610276, -5.4089765548706055, -1.6676263809204102, 7.852243423461914, -0.10977603495121002, -0.5007795691490173, -1.6557713747024536, 0.73193359375, 0.04931640625, -0.622802734375
592, 310626943, -5.405575275421143, -1.6715205907821655, 7.858824729919434, -0.06400614231824875, -0.4195104241371155, -1.6292879581451416, 0.7314453125, 0.045654296875, -0.619873046875
593, 310643610, -5.426584243774414, -1.6411720514297485, 7.8569560050964355, -0.1784052550792694, -0.4482990503311157, -1.579150915145874, 0.73046875, 0.047119140625, -0.620361328125
594, 310660277, -5.4127397537231445, -1.6371620893478394, 7.84016752243042, -0.17494754493236542, -0.5235747694969177, -1.7871644496917725, 0.7333984375, 0.048583984375, -0.620849609375
595, 310676944, -5.415472507476807, -1.6643483638763428, 7.897285461425781, -0.32378292083740234, -0.5602648854255676, -1.8368914127349854, 0.73193359375, 0.046630859375, -0.621337890625
596, 310693611, -5.400149822235107, -1.6723722219467163, 7.883592128753662, -0.2012646198272705, -0.5189389586448669, -1.7238500118255615, 0.73193359375, 0.045654296875, -0.620849609375
597, 310710278, -5.41810941696167, -1.6545172929763794, 7.839153289794922, -0.27278807759284973, -0.545934796333313, -1.7127212285995483, 0.73046875, 0.045654296875, -0.621826171875
598, 310726945, -5.42068338394165, -1.6501888036727905, 7.862903118133545, -0.2672172486782074, -0.6563381552696228, -1.7294974327087402, 0.730224609375, 0.048583984375, -0.622802734375
599, 310743612, -5.401812553405762, -1.6637966632843018, 7.859310150146484, -0.28327643871307373, -0.8414924144744873, -1.8110867738723755, 0.730712890625, 0.048095703125, -0.619873046875
600, 310760279, -5.415693283081055, -1.6551357507705688, 7.847316265106201, -0.2459075152873993, -0.8211303949356079, -1.7708492279052734, 0.729736328125, 0.048095703125, -0.619873046875
601, 310776946, -5.3780951499938965, -1.6717276573181152, 7.885088920593262, -0.33605140447616577, -0.7784978747367859, -1.8406563997268677, 0.7314453125, 0.046142578125, -0.621337890625
602, 310793613, -5.407935619354248, -1.647803783416748, 7.903419494628906, -0.3933705687522888, -0.7053902745246887, -1.685839056968689, 0.73095703125, 0.048583984375, -0.622314453125
603, 310810280, -5.421867370605469, -1.6422054767608643, 7.858953952789307, -0.4313690662384033, -0.6228111982345581, -1.8147621154785156, 0.732421875, 0.046630859375, -0.620849609375
604, 310826947, -5.405769348144531, -1.660032033920288, 7.861159324645996, -0.4104306995868683, -0.7989369034767151, -1.7869724035263062, 0.732421875, 0.048828125, -0.620361328125
605, 310843614, -5.412253379821777, -1.6744608879089355, 7.864289283752441, -0.3864572048187256, -0.8538505434989929, -1.8169392347335815, 0.732421875, 0.048583984375, -0.621337890625
606, 310860281, -5.4021220207214355, -1.6724308729171753, 7.869697093963623, -0.36161285638809204, -0.7708653807640076, -1.6653249263763428, 0.73095703125, 0.046630859375, -0.622314453125
607, 310876948, -5.407026290893555, -1.6378766298294067, 7.879140853881836, -0.2787429690361023, -0.7466996908187866, -1.6481257677078247, 0.729736328125, 0.046142578125, -0.621826171875
608, 310893615, -5.426754474639893, -1.654862403869629, 7.872519493103027, -0.4832859933376312, -0.7502983808517456, -1.6910784244537354, 0.729736328125, 0.046142578125, -0.620849609375
609, 310910282, -5.405612945556641, -1.6528890132904053, 7.872674942016602, -0.36795201897621155, -0.8122169971466064, -1.7425342798233032, 0.729248046875, 0.044677734375, -0.620361328125
610, 310926949, -5.40955924987793, -1.6861785650253296, 7.873208045959473, -0.3327089548110962, -0.8492658138275146, -1.7855892181396484, 0.728271484375, 0.047607421875, -0.62353515625
611, 310943616, -5.401893138885498, -1.6608432531356812, 7.895641803741455, -0.3805662989616394, -0.8113078474998474, -1.7207763195037842, 0.729248046875, 0.045166015625, -0.621337890625
612, 310960283, -5.397645950317383, -1.6606680154800415, 7.874706268310547, -0.3718707859516144, -0.8017414808273315, -1.6465378999710083, 0.7333984375, 0.047607421875, -0.623291015625
613, 310976950, -5.397579193115234, -1.6474663019180298, 7.853340148925781, -0.39930200576782227, -0.7217786908149719, -1.6236274242401123, 0.73095703125, 0.046630859375, -0.622802734375
614, 310993617, -5.396511554718018, -1.6533832550048828, 7.877114772796631, -0.36796486377716064, -0.6454912424087524, -1.599538803100586, 0.73193359375, 0.046630859375, -0.623291015625
615, 311010284, -5.399374961853027, -1.6657792329788208, 7.884382724761963, -0.3501639664173126, -0.6764184832572937, -1.7471956014633179, 0.729248046875, 0.047119140625, -0.619873046875
616, 311026951, -5.398609161376953, -1.6600381135940552, 7.865945816040039, -0.20461983978748322, -0.7944290637969971, -1.6709210872650146, 0.729736328125, 0.048583984375, -0.6240234375
617, 311043618, -5.398576736450195, -1.6608855724334717, 7.865455627441406, -0.2958010733127594, -0.716963529586792, -1.6741613149642944, 0.732421875, 0.046630859375, -0.620361328125
618, 311060285, -5.403525352478027, -1.6528401374816895, 7.861973762512207, -0.22102481126785278, -0.937347948551178, -1.3755813837051392, 0.72998046875, 0.045654296875, -0.620849609375
619, 311076952, -5.396878719329834, -1.6622827053070068, 7.855541229248047, -0.12078948318958282, -0.998293399810791, -1.6669511795043945, 0.728759765625, 0.046142578125, -0.622314453125
620, 311093619, -5.423526287078857, -1.6785967350006104, 7.866697788238525, -0.04756278172135353, -0.7973234057426453, -1.4315450191497803, 0.727783203125, 0.048095703125, -0.620849609375
621, 311110286, -5.389840126037598, -1.6800960302352905, 7.871698379516602, 0.12198687344789505, -0.8406088352203369, -1.4052022695541382, 0.73046875, 0.046630859375, -0.620361328125
622, 311126953, -5.402406215667725, -1.611811876296997, 7.905550479888916, -0.08726248145103455, -0.8329122066497803, -1.500276803970337, 0.73095703125, 0.046630859375, -0.621337890625
623, 311143620, -5.400800704956055, -1.6439093351364136, 7.884413719177246, -0.2543725371360779, -0.6799019575119019, -1.538042664527893, 0.73095703125, 0.047607421875, -0.621826171875
624, 311160287, -5.398595333099365, -1.6393357515335083, 7.888779640197754, -0.39000454545021057, -0.5778225660324097, -1.7055752277374268, 0.729248046875, 0.046630859375, -0.623046875
625, 311176954, -5.400731563568115, -1.6636476516723633, 7.870481014251709, -0.4086633622646332, -0.49634847044944763, -1.7490397691726685, 0.7314453125, 0.046142578125, -0.623291015625
626, 311193621, -5.394187927246094, -1.6661818027496338, 7.88090705871582, -0.3739966154098511, -0.358808308839798, -1.4937325716018677, 0.73095703125, 0.047119140625, -0.623779296875
627, 311210288, -5.401645660400391, -1.6404422521591187, 7.870686054229736, -0.4672268331050873, -0.43142029643058777, -1.555817723274231, 0.73095703125, 0.046630859375, -0.622314453125
628, 311226955, -5.404694557189941, -1.646663784980774, 7.870414733886719, -0.39355191588401794, -0.31285911798477173, -1.490057110786438, 0.73095703125, 0.048095703125, -0.622314453125
629, 311243622, -5.395925045013428, -1.647598385810852, 7.867452144622803, -0.3823336064815521, -0.3328370451927185, -1.6466790437698364, 0.73095703125, 0.047119140625, -0.622314453125
630, 311260289, -5.413654327392578, -1.6575825214385986, 7.875564098358154, -0.5111270546913147, -0.3545566201210022, -1.6328352689743042, 0.7333984375, 0.044677734375, -0.62060546875
631, 311276956, -5.381000995635986, -1.6743581295013428, 7.867727756500244, -0.44610926508903503, -0.4573532044887543, -1.5868349075317383, 0.7314453125, 0.047607421875, -0.621826171875
632, 311293623, -5.403585910797119, -1.6231745481491089, 7.876230716705322, -0.38084807991981506, -0.5186828374862671, -1.5504008531570435, 0.72998046875, 0.048095703125, -0.62451171875
633, 311310290, -5.405026912689209, -1.644485354423523, 7.865737438201904, -0.425298810005188, -0.6050743460655212, -1.680128812789917, 0.73095703125, 0.046630859375, -0.619873046875
634, 311326957, -5.380336761474609, -1.6712970733642578, 7.875985145568848, -0.36767032742500305, -0.557396411895752, -1.6107444763183594, 0.729248046875, 0.046142578125, -0.621826171875
635, 311343624, -5.399313926696777, -1.6500576734542847, 7.874908447265625, -0.4230962097644806, -0.4003393054008484, -1.718970775604248, 0.73095703125, 0.04443359375, -0.621337890625
636, 311360291, -5.392770767211914, -1.6564514636993408, 7.867027759552002, -0.4998830258846283, -0.3767756223678589, -1.5484669208526611, 0.73193359375, 0.046142578125, -0.623779296875
637, 311376958, -5.400169849395752, -1.6513035297393799, 7.870687961578369, -0.40754932165145874, -0.31994107365608215, -1.736605167388916, 0.73046875, 0.044677734375, -0.623779296875
638, 311393625, -5.400591850280762, -1.6533461809158325, 7.854456424713135, -0.4635770618915558, -0.15806879103183746, -1.6845858097076416, 0.7333984375, 0.045654296875, -0.622314453125
639, 311410292, -5.4155354499816895, -1.6627616882324219, 7.8510847091674805, -0.4314715564250946, -0.18724164366722107, -1.6070687770843506, 0.732421875, 0.045654296875, -0.625
640, 311426959, -5.397275924682617, -1.6648645401000977, 7.8682451248168945, -0.38991495966911316, -0.23234564065933228, -1.6201698780059814, 0.73095703125, 0.047119140625, -0.622802734375
641, 311443626, -5.404424667358398, -1.6460914611816406, 7.879453659057617, -0.46914777159690857, -0.18631957471370697, -1.5824934244155884, 0.73046875, 0.046142578125, -0.621826171875
642, 311460293, -5.419898986816406, -1.6506383419036865, 7.860061168670654, -0.36764469742774963, -0.2239702343940735, -1.6043027639389038, 0.7314453125, 0.047119140625, -0.621826171875
643, 311476960, -5.396737098693848, -1.6497433185577393, 7.877134323120117, -0.36408454179763794, -0.23265297710895538, -1.5397586822509766, 0.73095703125, 0.046142578125, -0.622314453125
644, 311493627, -5.418180465698242, -1.6553130149841309, 7.882864952087402, -0.3350653052330017, -0.2480590045452118, -1.5813536643981934, 0.732421875, 0.046630859375, -0.621337890625
645, 311510294, -5.423637390136719, -1.6415272951126099, 7.874993324279785, -0.34317174553871155, -0.32999399304389954, -1.563962697982788, 0.73388671875, 0.045166015625, -0.619140625
646, 311526961, -5.410961151123047, -1.658986210823059, 7.881541728973389, -0.20307029783725739, -0.37950336933135986, -1.532459020614624, 0.73388671875, 0.047119140625, -0.621826171875
647, 311543628, -5.402809143066406, -1.6508678197860718, 7.855049133300781, -0.22274085879325867, -0.31288474798202515, -1.588742971420288, 0.73095703125, 0.045166015625, -0.61767578125
648, 311560295, -5.4016499519348145, -1.6489760875701904, 7.893959999084473, -0.2001248300075531, -0.1871519833803177, -1.5592882633209229, 0.7314453125, 0.047119140625, -0.621337890625
649, 311576962, -5.420034885406494, -1.6310582160949707, 7.856473445892334, -0.20599015057086945, -0.10734282433986664, -1.575283408164978, 0.73193359375, 0.0439453125, -0.619140625
650, 311593629, -5.436809062957764, -1.6475368738174438, 7.8465986251831055, -0.2059517204761505, -0.2131872922182083, -1.4915555715560913, 0.7314453125, 0.047119140625, -0.621337890625
651, 311610296, -5.4218268394470215, -1.6559369564056396, 7.879426002502441, -0.16763512790203094, -0.24731621146202087, -1.5645772218704224, 0.73388671875, 0.045166015625, -0.62060546875
