sep=,
DeviceTag:,A,,,,,,,,,,,,,,,,,
FirmwareVersion:,2.2.1,,,,,,,,,,,,,,,,,
AppVersion:,2023.6.1,,,,,,,,,,,,,,,,,
SyncStatus:,Synced,,,,,,,,,,,,,,,,,
OutputRate:,60Hz,,,,,,,,,,,,,,,,,
FilterProfile:,General,,,,,,,,,,,,,,,,,
Measurement Mode:,Inertial Mode - Rate quantities (with mag),,,,,,,,,,,,,,,,,
StartTime:,2023-12-07 12:53:54.985 +0200,,,,,,,,,,,,,,,,,
 2023,,,,,,,,,,,,,,,,,,,

PacketCounter,SampleTimeFine,Acc_X,Acc_Y,Acc_Z,Gyr_X,Gyr_Y,Gyr_Z,Mag_X,Mag_Y,Mag_Z
1, 1673661966, -6.797147750854492, -0.8528127670288086, 7.131092548370361, -2.3227903842926025, -1.5434086322784424, -2.2441208362579346, 1.115234375, -0.4013671875, 0.05322265625
2, 1673678633, -6.796572685241699, -0.840188205242157, 7.1393609046936035, -2.3651280403137207, -1.4577852487564087, -2.351438045501709, 1.1162109375, -0.40283203125, 0.05419921875
3, 1673695300, -6.8012495040893555, -0.8342368602752686, 7.135262966156006, -2.3526031970977783, -1.5380936861038208, -2.3431007862091064, 1.1142578125, -0.402587890625, 0.0556640625
4, 1673711967, -6.790749549865723, -0.8498613238334656, 7.118364334106445, -2.389191150665283, -1.5792791843414307, -2.285767078399658, 1.11474609375, -0.4013671875, 0.0546875
5, 1673728634, -6.800479888916016, -0.838132917881012, 7.12997579574585, -2.2447738647460938, -1.5903693437576294, -2.161020517349243, 1.11474609375, -0.40185546875, 0.05517578125
6, 1673745301, -6.802034378051758, -0.838051438331604, 7.136951446533203, -2.225346565246582, -1.395648717880249, -2.165015697479248, 1.11669921875, -0.403076171875, 0.056396484375
7, 1673761968, -6.795263290405273, -0.8406350016593933, 7.148027420043945, -2.2591042518615723, -1.6360241174697876, -2.2207107543945312, 1.1162109375, -0.40185546875, 0.055908203125
8, 1673778635, -6.794668674468994, -0.8273565173149109, 7.137157440185547, -2.2956275939941406, -1.541231393814087, -2.1820225715637207, 1.11328125, -0.402587890625, 0.0556640625
9, 1673795302, -6.791873455047607, -0.8352702260017395, 7.1501569747924805, -2.353666305541992, -1.5327023267745972, -2.258054256439209, 1.11572265625, -0.404052734375, 0.056396484375
10, 1673811969, -6.79478645324707, -0.8552157878875732, 7.135669231414795, -2.3810715675354004, -1.55595862865448, -2.18304705619812, 1.11474609375, -0.402587890625, 0.05419921875
11, 1673828636, -6.8090362548828125, -0.828497052192688, 7.127624034881592, -2.346097946166992, -1.5794583559036255, -2.169843912124634, 1.11572265625, -0.40234375, 0.0546875
12, 1673845303, -6.800843238830566, -0.8280903697013855, 7.125740051269531, -2.3493378162384033, -1.6486639976501465, -2.203934669494629, 1.11572265625, -0.40087890625, 0.05419921875
13, 1673861970, -6.7850871086120605, -0.8360218405723572, 7.1426496505737305, -2.2858822345733643, -1.6515198945999146, -2.216203212738037, 1.1162109375, -0.40087890625, 0.056396484375
14, 1673878637, -6.780279159545898, -0.8435578346252441, 7.148072242736816, -2.283628463745117, -1.6805773973464966, -2.2208259105682373, 1.1142578125, -0.40185546875, 0.05615234375
15, 1673895304, -6.789063453674316, -0.843177855014801, 7.122760772705078, -2.3202548027038574, -1.6169041395187378, -2.19680118560791, 1.115234375, -0.40234375, 0.052734375
16, 1673911971, -6.785523891448975, -0.8383586406707764, 7.143697261810303, -2.3113670349121094, -1.6646206378936768, -2.199413776397705, 1.1142578125, -0.40185546875, 0.05322265625
17, 1673928638, -6.801693916320801, -0.8282305002212524, 7.11766242980957, -2.35695743560791, -1.6260095834732056, -2.184417724609375, 1.11669921875, -0.40185546875, 0.05419921875
18, 1673945305, -6.797513484954834, -0.8312099575996399, 7.133756160736084, -2.343587875366211, -1.6184282302856445, -2.097283363342285, 1.1162109375, -0.403564453125, 0.055908203125
19, 1673961972, -6.796645641326904, -0.8555119037628174, 7.154158592224121, -2.272012948989868, -1.6569879055023193, -2.03745174407959, 1.115234375, -0.402587890625, 0.05517578125
20, 1673978639, -6.795094013214111, -0.8295230865478516, 7.129063606262207, -2.255889654159546, -1.685879111289978, -2.0735909938812256, 1.115234375, -0.404541015625, 0.05517578125
21, 1673995306, -6.803558826446533, -0.8317345976829529, 7.130408763885498, -2.275022506713867, -1.6787461042404175, -2.1059019565582275, 1.1162109375, -0.40234375, 0.05419921875
22, 1674011973, -6.791048049926758, -0.8268433213233948, 7.12756872177124, -2.294462203979492, -1.6093610525131226, -2.1286072731018066, 1.11767578125, -0.40234375, 0.052734375
23, 1674028640, -6.7975850105285645, -0.8421723246574402, 7.141098976135254, -2.3915834426879883, -1.595754861831665, -2.168241262435913, 1.1171875, -0.40185546875, 0.052734375
24, 1674045307, -6.796314716339111, -0.8355382680892944, 7.134560585021973, -2.3211891651153564, -1.4782624244689941, -2.166898250579834, 1.115234375, -0.403076171875, 0.05419921875
25, 1674061974, -6.787517070770264, -0.8368281126022339, 7.13887357711792, -2.3533589839935303, -1.5455985069274902, -2.199605703353882, 1.1142578125, -0.402587890625, 0.05419921875
26, 1674078641, -6.794164657592773, -0.8395360112190247, 7.147949695587158, -2.340360403060913, -1.5862712860107422, -2.142963409423828, 1.1162109375, -0.404052734375, 0.05517578125
27, 1674095308, -6.790566444396973, -0.8309531211853027, 7.135252475738525, -2.270092010498047, -1.5899852514266968, -2.1488544940948486, 1.11572265625, -0.4013671875, 0.05419921875
28, 1674111975, -6.8021159172058105, -0.8382760882377625, 7.136532783508301, -2.372363567352295, -1.4309303760528564, -2.1694982051849365, 1.115234375, -0.40234375, 0.05419921875
29, 1674128642, -6.802238464355469, -0.8182254433631897, 7.1287150382995605, -2.3846960067749023, -1.3529011011123657, -2.2206592559814453, 1.1162109375, -0.40234375, 0.0537109375
30, 1674145309, -6.795267581939697, -0.8337189555168152, 7.140109539031982, -2.378638505935669, -1.3296960592269897, -2.246297597885132, 1.1171875, -0.403076171875, 0.052734375
31, 1674161976, -6.793936252593994, -0.8225762844085693, 7.125235080718994, -2.4287374019622803, -1.3506345748901367, -2.2658019065856934, 1.1142578125, -0.403076171875, 0.0556640625
32, 1674178643, -6.784632682800293, -0.8349164724349976, 7.135376930236816, -2.35717511177063, -1.4510747194290161, -2.179025888442993, 1.115234375, -0.40234375, 0.0537109375
33, 1674195310, -6.791065692901611, -0.8354178667068481, 7.136866569519043, -2.3198320865631104, -1.534354567527771, -2.2350029945373535, 1.1162109375, -0.403076171875, 0.05517578125
34, 1674211977, -6.80176305770874, -0.8325380682945251, 7.1305155754089355, -2.2794406414031982, -1.615431308746338, -2.2053301334381104, 1.1162109375, -0.40185546875, 0.0546875
35, 1674228644, -6.796977519989014, -0.848454475402832, 7.15264368057251, -2.291107654571533, -1.669589638710022, -2.214743137359619, 1.1162109375, -0.40283203125, 0.0546875
36, 1674245311, -6.796077251434326, -0.8308106064796448, 7.1541829109191895, -2.271244764328003, -1.7150521278381348, -2.2533798217773438, 1.11669921875, -0.40283203125, 0.05419921875
37, 1674261978, -6.792062759399414, -0.8267192840576172, 7.132522106170654, -2.2644827365875244, -1.607363224029541, -2.1727893352508545, 1.1171875, -0.40234375, 0.05517578125
38, 1674278645, -6.789918899536133, -0.8258855938911438, 7.1309990882873535, -2.3369154930114746, -1.4752404689788818, -2.2772510051727295, 1.11669921875, -0.40283203125, 0.0546875
39, 1674295312, -6.80818510055542, -0.8292143940925598, 7.123843669891357, -2.3151063919067383, -1.5181159973144531, -2.1601881980895996, 1.1162109375, -0.40185546875, 0.05517578125
40, 1674311979, -6.7941436767578125, -0.8167462944984436, 7.123892784118652, -2.3901901245117188, -1.56184983253479, -2.1280570030212402, 1.11572265625, -0.403076171875, 0.05322265625
41, 1674328646, -6.785223007202148, -0.8304169774055481, 7.146829605102539, -2.276712656021118, -1.5510026216506958, -2.1622114181518555, 1.11474609375, -0.404052734375, 0.05419921875
42, 1674345313, -6.795139789581299, -0.828023374080658, 7.124531269073486, -2.3801369667053223, -1.6244087219238281, -2.113086223602295, 1.11474609375, -0.40185546875, 0.05419921875
43, 1674361980, -6.803704261779785, -0.8383614420890808, 7.1368021965026855, -2.4110257625579834, -1.5862842798233032, -2.169626235961914, 1.11572265625, -0.404052734375, 0.0546875
44, 1674378647, -6.789174556732178, -0.8231250643730164, 7.144218444824219, -2.387155055999756, -1.524352788925171, -2.238985538482666, 1.11376953125, -0.40185546875, 0.05615234375
45, 1674395314, -6.80246639251709, -0.8319959044456482, 7.14286994934082, -2.3930842876434326, -1.5434212684631348, -2.1886820793151855, 1.1162109375, -0.403564453125, 0.0546875
46, 1674411981, -6.790161609649658, -0.8382892608642578, 7.143643856048584, -2.370109796524048, -1.6180951595306396, -2.241636276245117, 1.11474609375, -0.40185546875, 0.0546875
47, 1674428648, -6.791640281677246, -0.826195478439331, 7.150859355926514, -2.3059496879577637, -1.487905740737915, -2.1645419597625732, 1.1162109375, -0.403564453125, 0.0546875
48, 1674445315, -6.802093505859375, -0.8248488306999207, 7.163441181182861, -2.3039774894714355, -1.499367356300354, -2.1944961547851562, 1.11669921875, -0.40234375, 0.05419921875
49, 1674461982, -6.802432537078857, -0.8196876049041748, 7.135738849639893, -2.4117815494537354, -1.4764313697814941, -2.186556100845337, 1.1162109375, -0.40283203125, 0.05517578125
50, 1674478649, -6.799142360687256, -0.8326637148857117, 7.132419586181641, -2.4210915565490723, -1.6456670761108398, -2.2348999977111816, 1.115234375, -0.40087890625, 0.0546875
51, 1674495316, -6.78387975692749, -0.8274832963943481, 7.158381462097168, -2.3482234477996826, -1.6629045009613037, -2.2560179233551025, 1.11767578125, -0.40234375, 0.05322265625
52, 1674511983, -6.77061653137207, -0.8361736536026001, 7.144942283630371, -2.3114185333251953, -1.6179927587509155, -2.2584896087646484, 1.1171875, -0.40283203125, 0.05126953125
53, 1674528650, -6.798852920532227, -0.8258466720581055, 7.140284538269043, -2.4189016819000244, -1.5398354530334473, -2.189181327819824, 1.11572265625, -0.40234375, 0.05322265625
54, 1674545317, -6.79298734664917, -0.832535445690155, 7.1316070556640625, -2.407376289367676, -1.514440655708313, -2.273921251296997, 1.11572265625, -0.403564453125, 0.05517578125
55, 1674561984, -6.782670974731445, -0.8254724740982056, 7.1222124099731445, -2.3526034355163574, -1.5471479892730713, -2.235245943069458, 1.11376953125, -0.403564453125, 0.05419921875
56, 1674578651, -6.7885003089904785, -0.8322068452835083, 7.140670299530029, -2.2321338653564453, -1.5658451318740845, -2.2525856494903564, 1.11376953125, -0.40234375, 0.05517578125
57, 1674595318, -6.794073104858398, -0.8184505701065063, 7.138189315795898, -2.3194093704223633, -1.5072689056396484, -2.163658380508423, 1.115234375, -0.403076171875, 0.0546875
58, 1674611985, -6.784673690795898, -0.8196672797203064, 7.139223098754883, -2.4570517539978027, -1.5603512525558472, -2.349055767059326, 1.115234375, -0.404541015625, 0.05322265625
59, 1674628652, -6.792179107666016, -0.83968186378479, 7.130847454071045, -2.4138007164001465, -1.5234287977218628, -2.338299036026001, 1.115234375, -0.402587890625, 0.052734375
60, 1674645319, -6.790061950683594, -0.8339759111404419, 7.147532939910889, -2.369264602661133, -1.5490305423736572, -2.2093515396118164, 1.1171875, -0.40283203125, 0.055419921875
61, 1674661986, -6.798384666442871, -0.8200283050537109, 7.135456085205078, -2.3686623573303223, -1.52316153049469, -2.201859474182129, 1.1142578125, -0.403564453125, 0.0556640625
62, 1674678653, -6.785018444061279, -0.8305573463439941, 7.122793197631836, -2.3743739128112793, -1.5327149629592896, -2.210388660430908, 1.11474609375, -0.404052734375, 0.055908203125
63, 1674695320, -6.781650543212891, -0.8319597244262695, 7.157583713531494, -2.342909097671509, -1.577178955078125, -2.2571451663970947, 1.1142578125, -0.403564453125, 0.05126953125
64, 1674711987, -6.787072658538818, -0.8290864825248718, 7.1361589431762695, -2.343203544616699, -1.5515917539596558, -2.3070127964019775, 1.1171875, -0.404541015625, 0.0537109375
65, 1674728654, -6.792485237121582, -0.8292614817619324, 7.148925304412842, -2.327566623687744, -1.49948251247406, -2.3280277252197266, 1.1162109375, -0.403564453125, 0.05322265625
66, 1674745321, -6.798408508300781, -0.8252514004707336, 7.143094539642334, -2.3509511947631836, -1.515119194984436, -2.2422635555267334, 1.11376953125, -0.404052734375, 0.05517578125
67, 1674761988, -6.787642002105713, -0.8261363506317139, 7.151370525360107, -2.3537046909332275, -1.5482748746871948, -2.342576026916504, 1.1171875, -0.403076171875, 0.05419921875
68, 1674778655, -6.780691146850586, -0.8230776786804199, 7.168887615203857, -2.4062108993530273, -1.515734076499939, -2.351245880126953, 1.1142578125, -0.404052734375, 0.0537109375
69, 1674795322, -6.788714408874512, -0.8334146738052368, 7.128570556640625, -2.295525550842285, -1.5369027853012085, -2.2499477863311768, 1.115234375, -0.403564453125, 0.0537109375
70, 1674811989, -6.799803733825684, -0.8209718465805054, 7.146121501922607, -2.3311142921447754, -1.584888219833374, -2.26143479347229, 1.1162109375, -0.402587890625, 0.05224609375
71, 1674828656, -6.803787708282471, -0.8129028677940369, 7.166428089141846, -2.3702123165130615, -1.6188379526138306, -2.2752914428710938, 1.11328125, -0.403076171875, 0.05322265625
72, 1674845323, -6.796302795410156, -0.8341205716133118, 7.1611199378967285, -2.3209588527679443, -1.6059547662734985, -2.270399570465088, 1.11474609375, -0.404052734375, 0.0537109375
73, 1674861990, -6.788308143615723, -0.8325738310813904, 7.135009288787842, -2.319767951965332, -1.5692260265350342, -2.2985732555389404, 1.115234375, -0.404541015625, 0.0546875
74, 1674878657, -6.79654598236084, -0.8226842880249023, 7.157439231872559, -2.344510078430176, -1.5363906621932983, -2.2862794399261475, 1.11474609375, -0.405029296875, 0.05517578125
75, 1674895324, -6.802469253540039, -0.8352116942405701, 7.134057998657227, -2.4553487300872803, -1.5411289930343628, -2.2377305030822754, 1.1162109375, -0.40283203125, 0.05419921875
76, 1674911991, -6.7907562255859375, -0.8272966742515564, 7.135447025299072, -2.462251663208008, -1.4151016473770142, -2.2144229412078857, 1.1162109375, -0.40283203125, 0.0537109375
77, 1674928658, -6.79326057434082, -0.8248097896575928, 7.132016658782959, -2.35652232170105, -1.5763593912124634, -2.177105188369751, 1.11572265625, -0.403076171875, 0.05517578125
78, 1674945325, -6.781424522399902, -0.8287871479988098, 7.141056537628174, -2.274061918258667, -1.6276614665985107, -2.186645984649658, 1.11572265625, -0.404541015625, 0.055419921875
79, 1674961992, -6.7861785888671875, -0.8118704557418823, 7.134746074676514, -2.256286859512329, -1.602074384689331, -2.1961355209350586, 1.1142578125, -0.402587890625, 0.05419921875
80, 1674978659, -6.7761640548706055, -0.8258326053619385, 7.1626458168029785, -2.3486592769622803, -1.6829721927642822, -2.25555682182312, 1.11572265625, -0.402587890625, 0.05419921875
81, 1674995326, -6.799920558929443, -0.8258530497550964, 7.128551483154297, -2.3798038959503174, -1.5829416513442993, -2.290121078491211, 1.11572265625, -0.403076171875, 0.05322265625
82, 1675011993, -6.789849758148193, -0.8268128633499146, 7.149240493774414, -2.3970541954040527, -1.5290653705596924, -2.2276008129119873, 1.11669921875, -0.40283203125, 0.05224609375
83, 1675028660, -6.79343843460083, -0.8432064652442932, 7.139220237731934, -2.3578922748565674, -1.5614014863967896, -2.322777509689331, 1.11328125, -0.403564453125, 0.0556640625
84, 1675045327, -6.786940574645996, -0.8305503726005554, 7.1346049308776855, -2.354614019393921, -1.6310679912567139, -2.269477367401123, 1.11572265625, -0.40185546875, 0.055908203125
85, 1675061994, -6.802906513214111, -0.8126093745231628, 7.126554012298584, -2.4375860691070557, -1.5915985107421875, -2.24121356010437, 1.11376953125, -0.404052734375, 0.0556640625
86, 1675078661, -6.786255359649658, -0.8229055404663086, 7.141313552856445, -2.40144681930542, -1.494052767753601, -2.186889410018921, 1.115234375, -0.404052734375, 0.05322265625
87, 1675095328, -6.789068222045898, -0.8121994137763977, 7.121809959411621, -2.465721607208252, -1.5528082847595215, -2.2336578369140625, 1.1171875, -0.40283203125, 0.05224609375
88, 1675111995, -6.7771711349487305, -0.8194685578346252, 7.123854637145996, -2.381763219833374, -1.5784850120544434, -2.2990469932556152, 1.11572265625, -0.40234375, 0.0546875
89, 1675128662, -6.798844337463379, -0.823660671710968, 7.149005889892578, -2.3846449851989746, -1.5620802640914917, -2.358187198638916, 1.115234375, -0.402587890625, 0.05419921875
90, 1675145329, -6.794463157653809, -0.8213792443275452, 7.137731552124023, -2.368828535079956, -1.6543370485305786, -2.2599363327026367, 1.1162109375, -0.40234375, 0.05322265625
91, 1675161996, -6.7914533615112305, -0.8324621915817261, 7.140044212341309, -2.4494197368621826, -1.6259968280792236, -2.2797608375549316, 1.115234375, -0.404052734375, 0.057861328125
92, 1675178663, -6.778598308563232, -0.8255612254142761, 7.152322769165039, -2.4755825996398926, -1.6077219247817993, -2.253469467163086, 1.11474609375, -0.40234375, 0.05517578125
93, 1675195330, -6.781165599822998, -0.8174132704734802, 7.149163246154785, -2.4311063289642334, -1.5439848899841309, -2.289865016937256, 1.11474609375, -0.403564453125, 0.05419921875
94, 1675211997, -6.791741371154785, -0.8148074746131897, 7.136972427368164, -2.374854564666748, -1.492484211921692, -2.3348731994628906, 1.1162109375, -0.40234375, 0.0537109375
95, 1675228664, -6.786798477172852, -0.8206614255905151, 7.123885631561279, -2.423546075820923, -1.5691447257995605, -2.3678417205810547, 1.11669921875, -0.4013671875, 0.05322265625
96, 1675245331, -6.7939300537109375, -0.824793815612793, 7.145578384399414, -2.457961082458496, -1.4598597288131714, -2.360722303390503, 1.115234375, -0.404052734375, 0.0556640625
97, 1675261998, -6.792338848114014, -0.8346172571182251, 7.14279317855835, -2.4443607330322266, -1.581712245941162, -2.3797268867492676, 1.11474609375, -0.403564453125, 0.052734375
98, 1675278665, -6.773133277893066, -0.8222348690032959, 7.149040699005127, -2.365358591079712, -1.5968494415283203, -2.339848518371582, 1.11572265625, -0.404541015625, 0.05517578125
99, 1675295332, -6.778763771057129, -0.8254837989807129, 7.132882595062256, -2.41740345954895, -1.6570137739181519, -2.263509511947632, 1.1162109375, -0.40234375, 0.05322265625
100, 1675311999, -6.786991119384766, -0.8227158188819885, 7.136074066162109, -2.397771120071411, -1.4888020753860474, -2.3185765743255615, 1.115234375, -0.402587890625, 0.052734375
101, 1675328666, -6.793561935424805, -0.8310887813568115, 7.143996238708496, -2.4121525287628174, -1.592046856880188, -2.2945902347564697, 1.1162109375, -0.404541015625, 0.05322265625
102, 1675345333, -6.785755634307861, -0.832189679145813, 7.157391548156738, -2.4510843753814697, -1.5276695489883423, -2.3034911155700684, 1.11572265625, -0.40087890625, 0.0546875
103, 1675362000, -6.786688327789307, -0.8334161639213562, 7.154781818389893, -2.4554123878479004, -1.5332145690917969, -2.255582332611084, 1.115234375, -0.403076171875, 0.0537109375
104, 1675378667, -6.7835373878479, -0.834453821182251, 7.139516830444336, -2.432898998260498, -1.492631435394287, -2.214717388153076, 1.1142578125, -0.404541015625, 0.0537109375
105, 1675395334, -6.785388946533203, -0.8344088196754456, 7.127444267272949, -2.422295093536377, -1.4453117847442627, -2.246412754058838, 1.11572265625, -0.403564453125, 0.052734375
106, 1675412001, -6.793507099151611, -0.825045645236969, 7.152721881866455, -2.425496816635132, -1.4829367399215698, -2.304015874862671, 1.11474609375, -0.40185546875, 0.051513671875
107, 1675428668, -6.792441368103027, -0.8386576771736145, 7.161335468292236, -2.346097946166992, -1.5515151023864746, -2.3068461418151855, 1.1162109375, -0.403076171875, 0.05078125
108, 1675445335, -6.791904449462891, -0.8135964870452881, 7.133066654205322, -2.4064924716949463, -1.471334457397461, -2.293361186981201, 1.11279296875, -0.403076171875, 0.0537109375
109, 1675462002, -6.773972034454346, -0.8341668248176575, 7.158949851989746, -2.4670026302337646, -1.4790949821472168, -2.276700258255005, 1.115234375, -0.40234375, 0.0556640625
110, 1675478669, -6.7973833084106445, -0.8271256685256958, 7.143836498260498, -2.4181463718414307, -1.5238405466079712, -2.3480188846588135, 1.11376953125, -0.402587890625, 0.0546875
111, 1675495336, -6.794405460357666, -0.8224205374717712, 7.151378154754639, -2.3967981338500977, -1.5119688510894775, -2.3173859119415283, 1.115234375, -0.403076171875, 0.05224609375
112, 1675512003, -6.775928020477295, -0.8382481932640076, 7.137684345245361, -2.2707581520080566, -1.5160157680511475, -2.2924392223358154, 1.115234375, -0.402587890625, 0.0537109375
113, 1675528670, -6.778892993927002, -0.8427106738090515, 7.13343620300293, -2.412614107131958, -1.3640044927597046, -2.2705278396606445, 1.11572265625, -0.405029296875, 0.05322265625
114, 1675545337, -6.78549861907959, -0.8211499452590942, 7.147106170654297, -2.415316343307495, -1.520305871963501, -2.2340805530548096, 1.1171875, -0.403564453125, 0.05078125
115, 1675562004, -6.793379783630371, -0.8317460417747498, 7.136607646942139, -2.4025094509124756, -1.3492257595062256, -2.2851905822753906, 1.11474609375, -0.40185546875, 0.0546875
116, 1675578671, -6.792958736419678, -0.8411453366279602, 7.133455753326416, -2.5372707843780518, -1.4802987575531006, -2.2901339530944824, 1.11474609375, -0.402587890625, 0.05126953125
117, 1675595338, -6.790024280548096, -0.8356456756591797, 7.142992973327637, -2.4311702251434326, -1.5595828294754028, -2.2412006855010986, 1.115234375, -0.405029296875, 0.0546875
118, 1675612005, -6.791329383850098, -0.8342808485031128, 7.159253120422363, -2.350566864013672, -1.4963579177856445, -2.207340955734253, 1.11572265625, -0.40234375, 0.05419921875
119, 1675628672, -6.789667129516602, -0.808942437171936, 7.134144306182861, -2.3625028133392334, -1.5401430130004883, -2.3009042739868164, 1.1181640625, -0.4013671875, 0.05224609375
120, 1675645339, -6.7909746170043945, -0.8295484781265259, 7.141868591308594, -2.388205051422119, -1.4707581996917725, -2.213385581970215, 1.11376953125, -0.404541015625, 0.052734375
121, 1675662006, -6.785900115966797, -0.8314000964164734, 7.139211654663086, -2.3600950241088867, -1.5148248672485352, -2.268517017364502, 1.11572265625, -0.403076171875, 0.05419921875
122, 1675678673, -6.803073406219482, -0.8328016400337219, 7.135456085205078, -2.4730727672576904, -1.493348479270935, -2.184648275375366, 1.1123046875, -0.402587890625, 0.05419921875
123, 1675695340, -6.791279315948486, -0.8274503946304321, 7.151710510253906, -2.4585888385772705, -1.52449369430542, -2.2525088787078857, 1.11669921875, -0.403564453125, 0.05322265625
124, 1675712007, -6.804323673248291, -0.8162814974784851, 7.139165878295898, -2.438431739807129, -1.5818532705307007, -2.3243143558502197, 1.11572265625, -0.40234375, 0.0517578125
125, 1675728674, -6.794400215148926, -0.8246036171913147, 7.141719818115234, -2.3975281715393066, -1.610565185546875, -2.344433069229126, 1.115234375, -0.40185546875, 0.0537109375
126, 1675745341, -6.780145168304443, -0.8276609778404236, 7.119781494140625, -2.4597413539886475, -1.607837200164795, -2.3337013721466064, 1.1142578125, -0.402587890625, 0.0556640625
127, 1675762008, -6.786229133605957, -0.8243292570114136, 7.144896984100342, -2.46631121635437, -1.5652304887771606, -2.3205747604370117, 1.11474609375, -0.402587890625, 0.056396484375
128, 1675778675, -6.792662620544434, -0.8307017683982849, 7.137049198150635, -2.3943262100219727, -1.5674331188201904, -2.362489700317383, 1.11669921875, -0.40185546875, 0.05419921875
129, 1675795342, -6.789152145385742, -0.835743248462677, 7.1640214920043945, -2.4451165199279785, -1.5790742635726929, -2.3824167251586914, 1.1162109375, -0.40185546875, 0.05419921875
130, 1675812009, -6.774691104888916, -0.841978907585144, 7.159572601318359, -2.4218087196350098, -1.5416797399520874, -2.3313705921173096, 1.1162109375, -0.403564453125, 0.05419921875
131, 1675828676, -6.79267692565918, -0.825025200843811, 7.124583721160889, -2.408550500869751, -1.5519083738327026, -2.2215890884399414, 1.1142578125, -0.404052734375, 0.05322265625
132, 1675845343, -6.786815166473389, -0.8281328082084656, 7.150573253631592, -2.514014720916748, -1.4950389862060547, -2.319716691970825, 1.1142578125, -0.404541015625, 0.05419921875
133, 1675862010, -6.780876636505127, -0.8323704600334167, 7.138955116271973, -2.4408135414123535, -1.4867149591445923, -2.338951826095581, 1.1142578125, -0.403564453125, 0.052734375
134, 1675878677, -6.783325672149658, -0.8201712965965271, 7.157281875610352, -2.42622709274292, -1.5350717306137085, -2.2588353157043457, 1.11474609375, -0.403076171875, 0.0537109375
135, 1675895344, -6.789892673492432, -0.8317180871963501, 7.133915424346924, -2.441556692123413, -1.505578637123108, -2.2603721618652344, 1.11376953125, -0.40185546875, 0.05419921875
136, 1675912011, -6.775580883026123, -0.8286518454551697, 7.138433933258057, -2.4060187339782715, -1.5109187364578247, -2.2231438159942627, 1.1162109375, -0.403076171875, 0.0517578125
137, 1675928678, -6.79382848739624, -0.8295313119888306, 7.156126976013184, -2.4602534770965576, -1.4766747951507568, -2.234042167663574, 1.11767578125, -0.40234375, 0.0537109375
138, 1675945345, -6.7784423828125, -0.8448109030723572, 7.128873825073242, -2.4469990730285645, -1.4900060892105103, -2.2912099361419678, 1.1162109375, -0.403076171875, 0.05419921875
139, 1675962012, -6.771485328674316, -0.8312772512435913, 7.145833969116211, -2.4174931049346924, -1.5182952880859375, -2.2815794944763184, 1.11474609375, -0.403076171875, 0.0546875
140, 1675978679, -6.780467510223389, -0.8306185007095337, 7.145659446716309, -2.417711019515991, -1.6007553339004517, -2.286573886871338, 1.11669921875, -0.40283203125, 0.0546875
141, 1675995346, -6.795495986938477, -0.8259481191635132, 7.116230487823486, -2.2946674823760986, -1.5145301818847656, -2.2740747928619385, 1.1162109375, -0.402587890625, 0.05224609375
142, 1676012013, -6.788227081298828, -0.8449399471282959, 7.1367363929748535, -2.3630917072296143, -1.4499222040176392, -2.276508092880249, 1.11376953125, -0.402587890625, 0.051513671875
143, 1676028680, -6.781553268432617, -0.836073100566864, 7.156704902648926, -2.420041561126709, -1.3922806978225708, -2.2063162326812744, 1.1162109375, -0.403076171875, 0.05224609375
144, 1676045347, -6.788616180419922, -0.8310151696205139, 7.128133296966553, -2.495048761367798, -1.4847426414489746, -2.242225408554077, 1.1162109375, -0.404052734375, 0.05322265625
145, 1676062014, -6.788081169128418, -0.8287370204925537, 7.1376633644104, -2.4063005447387695, -1.5424736738204956, -2.2456703186035156, 1.11572265625, -0.404541015625, 0.0546875
146, 1676078681, -6.788746356964111, -0.8289023637771606, 7.138859748840332, -2.42041277885437, -1.4694772958755493, -2.3062057495117188, 1.115234375, -0.40185546875, 0.0556640625
147, 1676095348, -6.795421600341797, -0.8374395966529846, 7.149625301361084, -2.4429521560668945, -1.4994316101074219, -2.358558177947998, 1.11328125, -0.402587890625, 0.05517578125
148, 1676112015, -6.797981262207031, -0.8263041973114014, 7.143089294433594, -2.4349989891052246, -1.5249032974243164, -2.369353771209717, 1.115234375, -0.40185546875, 0.05126953125
149, 1676128682, -6.78049898147583, -0.82982337474823, 7.157783031463623, -2.40299654006958, -1.6165711879730225, -2.3210229873657227, 1.11669921875, -0.40283203125, 0.05322265625
150, 1676145349, -6.792116641998291, -0.8303101658821106, 7.128911018371582, -2.3814430236816406, -1.570583462715149, -2.2863943576812744, 1.11572265625, -0.403076171875, 0.05419921875
151, 1676162016, -6.7844648361206055, -0.8258768916130066, 7.141260623931885, -2.3730034828186035, -1.5095995664596558, -2.255415678024292, 1.1142578125, -0.403076171875, 0.05517578125
152, 1676178683, -6.797099590301514, -0.8218966126441956, 7.142561912536621, -2.320215940475464, -1.4931563138961792, -2.232914924621582, 1.11328125, -0.40185546875, 0.0546875
153, 1676195350, -6.777148723602295, -0.8399267792701721, 7.1604814529418945, -2.370877981185913, -1.5391440391540527, -2.2260382175445557, 1.1162109375, -0.40234375, 0.05419921875
154, 1676212017, -6.787422180175781, -0.8310989737510681, 7.119139671325684, -2.35298752784729, -1.5732218027114868, -2.275726795196533, 1.11572265625, -0.402587890625, 0.05322265625
155, 1676228684, -6.791233062744141, -0.834841787815094, 7.14572811126709, -2.2884562015533447, -1.5904844999313354, -2.2452731132507324, 1.115234375, -0.404052734375, 0.052734375
156, 1676245351, -6.784699440002441, -0.8327193856239319, 7.125147819519043, -2.23901104927063, -1.5868860483169556, -2.2356300354003906, 1.11474609375, -0.403076171875, 0.0546875
157, 1676262018, -6.771042823791504, -0.8416007161140442, 7.138600826263428, -2.315797805786133, -1.5761287212371826, -2.212437868118286, 1.11572265625, -0.404541015625, 0.055419921875
158, 1676278685, -6.78816032409668, -0.8324973583221436, 7.146541595458984, -2.472727060317993, -1.5167584419250488, -2.2658276557922363, 1.11572265625, -0.403076171875, 0.0537109375
159, 1676295352, -6.795138835906982, -0.8264096975326538, 7.146315097808838, -2.390317678451538, -1.5778318643569946, -2.205548048019409, 1.11474609375, -0.403564453125, 0.05224609375
160, 1676312019, -6.796574115753174, -0.8326643109321594, 7.150601863861084, -2.3971824645996094, -1.5196784734725952, -2.258784294128418, 1.11572265625, -0.402587890625, 0.05126953125
161, 1676328686, -6.784631729125977, -0.8399577140808105, 7.156773567199707, -2.5140531063079834, -1.5764873027801514, -2.245119571685791, 1.11669921875, -0.4013671875, 0.0517578125
162, 1676345353, -6.790169715881348, -0.8325688242912292, 7.138500690460205, -2.415239095687866, -1.5461361408233643, -2.2463362216949463, 1.11572265625, -0.40234375, 0.05224609375
163, 1676362020, -6.784811019897461, -0.8268916606903076, 7.160275936126709, -2.4271364212036133, -1.5039010047912598, -2.2416491508483887, 1.11572265625, -0.40234375, 0.0556640625
164, 1676378687, -6.7714056968688965, -0.8408874869346619, 7.146995544433594, -2.5144243240356445, -1.5879745483398438, -2.2455294132232666, 1.11279296875, -0.404052734375, 0.0556640625
165, 1676395354, -6.779897212982178, -0.8295232057571411, 7.160624980926514, -2.395312547683716, -1.4257692098617554, -2.1790130138397217, 1.11328125, -0.403076171875, 0.052734375
166, 1676412021, -6.782462120056152, -0.833564281463623, 7.137622356414795, -2.440096378326416, -1.522316575050354, -2.2354252338409424, 1.11669921875, -0.405029296875, 0.0546875
167, 1676428688, -6.779261112213135, -0.8423231244087219, 7.13726282119751, -2.4019813537597656, -1.4983940124511719, -2.2447547912597656, 1.11572265625, -0.403564453125, 0.05322265625
168, 1676445355, -6.7709832191467285, -0.8405042886734009, 7.147382736206055, -2.461085796356201, -1.4862152338027954, -2.2397537231445312, 1.11572265625, -0.40234375, 0.05322265625
169, 1676462022, -6.78588342666626, -0.8252543210983276, 7.143913745880127, -2.4164302349090576, -1.510995626449585, -2.2195708751678467, 1.1142578125, -0.404541015625, 0.052734375
170, 1676478689, -6.7825517654418945, -0.8298311829566956, 7.152426719665527, -2.3787667751312256, -1.5810976028442383, -2.2908127307891846, 1.11474609375, -0.403564453125, 0.0517578125
171, 1676495356, -6.795345783233643, -0.8383474349975586, 7.1483049392700195, -2.3673818111419678, -1.5275542736053467, -2.2910690307617188, 1.11669921875, -0.403564453125, 0.05322265625
172, 1676512023, -6.780393123626709, -0.8289519548416138, 7.138813018798828, -2.4109108448028564, -1.5177574157714844, -2.2621264457702637, 1.11572265625, -0.403076171875, 0.05419921875
173, 1676528690, -6.784467697143555, -0.8304104208946228, 7.145781993865967, -2.4048662185668945, -1.501813530921936, -2.232877016067505, 1.11474609375, -0.40185546875, 0.0517578125
174, 1676545357, -6.794872760772705, -0.8275143504142761, 7.157090663909912, -2.3785617351531982, -1.5218170881271362, -2.219776153564453, 1.11474609375, -0.40087890625, 0.05419921875
175, 1676562024, -6.781137466430664, -0.8247385621070862, 7.140155792236328, -2.4765684604644775, -1.471155047416687, -2.2792868614196777, 1.11474609375, -0.403076171875, 0.05517578125
176, 1676578691, -6.779306411743164, -0.8229103684425354, 7.141031742095947, -2.5054216384887695, -1.4558131694793701, -2.2664551734924316, 1.11474609375, -0.402587890625, 0.052734375
177, 1676595358, -6.771583080291748, -0.8259584307670593, 7.137413024902344, -2.484956979751587, -1.4571832418441772, -2.327566623687744, 1.11474609375, -0.403076171875, 0.0537109375
178, 1676612025, -6.7797956466674805, -0.8370260000228882, 7.1467695236206055, -2.5156028270721436, -1.4084423780441284, -2.305783271789551, 1.1162109375, -0.40234375, 0.0537109375
179, 1676628692, -6.7865753173828125, -0.8364772796630859, 7.147471904754639, -2.434499740600586, -1.3843022584915161, -2.265033006668091, 1.115234375, -0.402587890625, 0.0537109375
180, 1676645359, -6.789100646972656, -0.8318748474121094, 7.148759841918945, -2.386655569076538, -1.4475146532058716, -2.2860231399536133, 1.11572265625, -0.40234375, 0.05224609375
181, 1676662026, -6.781496524810791, -0.8354970812797546, 7.1460862159729, -2.395312547683716, -1.5290653705596924, -2.227370023727417, 1.11474609375, -0.402587890625, 0.05517578125
182, 1676678693, -6.794825553894043, -0.8220663666725159, 7.14853048324585, -2.4237167835235596, -1.4673515558242798, -2.2024872303009033, 1.1142578125, -0.402587890625, 0.05419921875
183, 1676695360, -6.795845031738281, -0.8240669965744019, 7.129709243774414, -2.383479595184326, -1.4416749477386475, -2.2826807498931885, 1.11669921875, -0.403564453125, 0.052734375
184, 1676712027, -6.779760360717773, -0.82315593957901, 7.136685371398926, -2.522658586502075, -1.4818482398986816, -2.268132448196411, 1.11669921875, -0.403076171875, 0.052734375
185, 1676728694, -6.793008804321289, -0.8427618741989136, 7.150903224945068, -2.4554383754730225, -1.5509899854660034, -2.2961020469665527, 1.11669921875, -0.40234375, 0.0517578125
186, 1676745361, -6.781741619110107, -0.8263748288154602, 7.147317886352539, -2.361734390258789, -1.6144198179244995, -2.3019800186157227, 1.1142578125, -0.40185546875, 0.052734375
187, 1676762028, -6.787750720977783, -0.8333951234817505, 7.1418776512146, -2.3768205642700195, -1.5748480558395386, -2.236206531524658, 1.11328125, -0.40185546875, 0.052734375
188, 1676778695, -6.783857345581055, -0.8243148922920227, 7.150136947631836, -2.3799448013305664, -1.5001615285873413, -2.2671210765838623, 1.1123046875, -0.404052734375, 0.05322265625
189, 1676795362, -6.776105880737305, -0.8319534063339233, 7.146568775177002, -2.3739774227142334, -1.5141077041625977, -2.2842302322387695, 1.1162109375, -0.40283203125, 0.05419921875
190, 1676812029, -6.7800679206848145, -0.8342124223709106, 7.157467842102051, -2.4331231117248535, -1.4046709537506104, -2.277500629425049, 1.11669921875, -0.403076171875, 0.0546875
191, 1676828696, -6.779889106750488, -0.8487970232963562, 7.139806270599365, -2.379086971282959, -1.4538025856018066, -2.2315962314605713, 1.11474609375, -0.402587890625, 0.05322265625
192, 1676845363, -6.789893627166748, -0.8365287184715271, 7.137225151062012, -2.3038878440856934, -1.5689698457717896, -2.092928886413574, 1.11572265625, -0.403076171875, 0.05322265625
193, 1676862030, -6.777163028717041, -0.8234328031539917, 7.156260967254639, -2.3581228256225586, -1.5330352783203125, -2.1665141582489014, 1.1142578125, -0.402587890625, 0.05224609375
194, 1676878697, -6.779762268066406, -0.8123801350593567, 7.138062477111816, -2.466362237930298, -1.3650546073913574, -2.2504982948303223, 1.11328125, -0.402587890625, 0.0546875
195, 1676895364, -6.800238132476807, -0.837798535823822, 7.155450344085693, -2.4554386138916016, -1.4508699178695679, -2.2285611629486084, 1.11474609375, -0.403076171875, 0.05517578125
196, 1676912031, -6.780885219573975, -0.8490813374519348, 7.121781349182129, -2.3333168029785156, -1.4856517314910889, -2.1873886585235596, 1.1162109375, -0.403076171875, 0.052734375
197, 1676928698, -6.793738842010498, -0.8385631442070007, 7.142606258392334, -2.233222484588623, -1.6241140365600586, -2.0641019344329834, 1.11474609375, -0.40185546875, 0.05419921875
198, 1676945365, -6.779919147491455, -0.8133668303489685, 7.157034397125244, -2.31313419342041, -1.7645742893218994, -2.16011118888855, 1.1123046875, -0.403076171875, 0.0546875
199, 1676962032, -6.791045188903809, -0.8257754445075989, 7.133199691772461, -2.282501220703125, -1.6302738189697266, -2.1929080486297607, 1.1142578125, -0.403564453125, 0.05322265625
200, 1676978699, -6.7728753089904785, -0.8272463083267212, 7.171543598175049, -2.32401967048645, -1.598206877708435, -2.2995083332061768, 1.11474609375, -0.403076171875, 0.0546875
201, 1676995366, -6.788820743560791, -0.8223450779914856, 7.140105247497559, -2.390087366104126, -1.568841814994812, -2.2561328411102295, 1.11279296875, -0.4013671875, 0.052734375
202, 1677012033, -6.798956394195557, -0.8306167125701904, 7.138106822967529, -2.4288270473480225, -1.5855284929275513, -2.3711469173431396, 1.1162109375, -0.403564453125, 0.052734375
203, 1677028700, -6.775040149688721, -0.8338174223899841, 7.148101329803467, -2.412520408630371, -1.630035400390625, -2.2499921321868896, 1.11376953125, -0.403564453125, 0.051513671875
204, 1677045367, -6.775434970855713, -0.842399001121521, 7.142419815063477, -2.480884552001953, -1.5838127136230469, -2.2767772674560547, 1.11572265625, -0.404052734375, 0.052734375
205, 1677062034, -6.795623302459717, -0.836158275604248, 7.138279438018799, -2.5178563594818115, -1.561964988708496, -2.3289756774902344, 1.11669921875, -0.40283203125, 0.055419921875
206, 1677078701, -6.795742511749268, -0.8385574221611023, 7.158107280731201, -2.4444634914398193, -1.5581358671188354, -2.348479747772217, 1.11328125, -0.402587890625, 0.0546875
207, 1677095368, -6.785979747772217, -0.8184934258460999, 7.1517534255981445, -2.414214849472046, -1.5292831659317017, -2.325146436691284, 1.11669921875, -0.403564453125, 0.0537109375
208, 1677112035, -6.788870334625244, -0.826424241065979, 7.131345272064209, -2.5541882514953613, -1.5255695581436157, -2.3754501342773438, 1.1162109375, -0.403564453125, 0.052734375
209, 1677128702, -6.7827959060668945, -0.8313990831375122, 7.14065408706665, -2.5442633628845215, -1.5694695711135864, -2.395901918411255, 1.1171875, -0.40234375, 0.05224609375
210, 1677145369, -6.795421123504639, -0.8347660303115845, 7.142124176025391, -2.460292100906372, -1.515272855758667, -2.398667812347412, 1.1142578125, -0.402587890625, 0.05322265625
211, 1677162036, -6.775356769561768, -0.826694905757904, 7.141089916229248, -2.442516565322876, -1.6042770147323608, -2.3400142192840576, 1.11572265625, -0.403076171875, 0.05419921875
212, 1677178703, -6.788538932800293, -0.8413244485855103, 7.131278038024902, -2.4101169109344482, -1.6398403644561768, -2.3797271251678467, 1.1162109375, -0.403564453125, 0.05419921875
213, 1677195370, -6.773566722869873, -0.8369252681732178, 7.149641513824463, -2.394890069961548, -1.5881028175354004, -2.2843713760375977, 1.115234375, -0.403076171875, 0.05224609375
214, 1677212037, -6.769110679626465, -0.8310005068778992, 7.141209125518799, -2.3103551864624023, -1.5951718091964722, -2.2778398990631104, 1.11474609375, -0.402587890625, 0.052734375
215, 1677228704, -6.777331352233887, -0.8495579361915588, 7.1611456871032715, -2.4098093509674072, -1.6044949293136597, -2.2274086475372314, 1.1171875, -0.404052734375, 0.05322265625
216, 1677245371, -6.776811122894287, -0.8224568367004395, 7.126675128936768, -2.379624605178833, -1.5225341320037842, -2.2797482013702393, 1.11572265625, -0.40185546875, 0.05224609375
217, 1677262038, -6.77947473526001, -0.8306939601898193, 7.143510818481445, -2.541548490524292, -1.4293423891067505, -2.2810800075531006, 1.11474609375, -0.40185546875, 0.0537109375
218, 1677278705, -6.781048774719238, -0.8409700989723206, 7.158177375793457, -2.496073007583618, -1.3596374988555908, -2.3596596717834473, 1.115234375, -0.403076171875, 0.0537109375
219, 1677295372, -6.774847507476807, -0.8374406099319458, 7.154577732086182, -2.4307987689971924, -1.4438773393630981, -2.249985933303833, 1.1162109375, -0.40234375, 0.05224609375
220, 1677312039, -6.782980442047119, -0.8386837840080261, 7.153633117675781, -2.4412362575531006, -1.426627516746521, -2.2031917572021484, 1.1171875, -0.403076171875, 0.05419921875
221, 1677328706, -6.786301612854004, -0.8270534873008728, 7.143452167510986, -2.4718947410583496, -1.4211846590042114, -2.241828441619873, 1.11474609375, -0.40087890625, 0.05419921875
222, 1677345373, -6.772980690002441, -0.8324010372161865, 7.158906936645508, -2.432194948196411, -1.5423583984375, -2.324685573577881, 1.11572265625, -0.403564453125, 0.05224609375
223, 1677362040, -6.789102554321289, -0.8409843444824219, 7.1495819091796875, -2.4357552528381348, -1.5259919166564941, -2.3193070888519287, 1.1162109375, -0.40185546875, 0.05322265625
224, 1677378707, -6.767547607421875, -0.833553671836853, 7.146155834197998, -2.471907138824463, -1.6031501293182373, -2.3844780921936035, 1.115234375, -0.402587890625, 0.05419921875
225, 1677395374, -6.779721736907959, -0.829964816570282, 7.141885280609131, -2.4248180389404297, -1.4809774160385132, -2.403444290161133, 1.1162109375, -0.403076171875, 0.0537109375
226, 1677412041, -6.789809226989746, -0.8359375, 7.145198345184326, -2.471715211868286, -1.4876112937927246, -2.3840174674987793, 1.11572265625, -0.4013671875, 0.0517578125
227, 1677428708, -6.78456449508667, -0.8442850112915039, 7.131920337677002, -2.3699944019317627, -1.53044855594635, -2.4102959632873535, 1.11572265625, -0.40185546875, 0.0517578125
228, 1677445375, -6.770818710327148, -0.8321187496185303, 7.13700008392334, -2.3860793113708496, -1.547378420829773, -2.221748113632202, 1.11474609375, -0.40087890625, 0.052734375
229, 1677462042, -6.778791427612305, -0.8383010029792786, 7.144097805023193, -2.424882411956787, -1.595914602279663, -2.357149600982666, 1.11474609375, -0.40234375, 0.05224609375
230, 1677478709, -6.773294448852539, -0.8382901549339294, 7.132951259613037, -2.390087366104126, -1.5331761837005615, -2.2966525554656982, 1.11328125, -0.403564453125, 0.05224609375
231, 1677495376, -6.777127742767334, -0.8411151170730591, 7.157812118530273, -2.3423068523406982, -1.5496323108673096, -2.2746636867523193, 1.11376953125, -0.40185546875, 0.05224609375
232, 1677512043, -6.769444465637207, -0.8213312029838562, 7.148414611816406, -2.354947090148926, -1.4718081951141357, -2.3307557106018066, 1.11474609375, -0.40185546875, 0.049072265625
233, 1677528710, -6.7900896072387695, -0.8170205354690552, 7.154632568359375, -2.4133310317993164, -1.3766697645187378, -2.5063822269439697, 1.1162109375, -0.404541015625, 0.0517578125
234, 1677545377, -6.780919075012207, -0.8448793888092041, 7.138171672821045, -2.556736469268799, -1.3595221042633057, -2.4317593574523926, 1.11474609375, -0.403076171875, 0.05419921875
235, 1677562044, -6.774188995361328, -0.8549361228942871, 7.131840229034424, -2.5444939136505127, -1.4633945226669312, -2.3517327308654785, 1.11474609375, -0.40234375, 0.056396484375
236, 1677578711, -6.78798770904541, -0.8552882075309753, 7.1267409324646, -2.4589598178863525, -1.4370132684707642, -2.3156566619873047, 1.1142578125, -0.40185546875, 0.05322265625
237, 1677595378, -6.778358459472656, -0.8406030535697937, 7.129357814788818, -2.3619391918182373, -1.5211511850357056, -2.273306369781494, 1.115234375, -0.403076171875, 0.05322265625
238, 1677612045, -6.796581745147705, -0.8461596369743347, 7.141487121582031, -2.2929160594940186, -1.5784415006637573, -2.170161724090576, 1.1162109375, -0.403564453125, 0.05224609375
239, 1677628712, -6.778192043304443, -0.8355422019958496, 7.158212661743164, -2.3784849643707275, -1.5532948970794678, -2.1660146713256836, 1.1142578125, -0.4013671875, 0.0517578125
240, 1677645379, -6.778782844543457, -0.8443787097930908, 7.164923667907715, -2.3873727321624756, -1.4823095798492432, -2.18989896774292, 1.11669921875, -0.40283203125, 0.05322265625
241, 1677662046, -6.785948276519775, -0.8386362195014954, 7.129216194152832, -2.3600692749023438, -1.5301666259765625, -2.1929333209991455, 1.11474609375, -0.403564453125, 0.05322265625
242, 1677678713, -6.784409999847412, -0.8482890725135803, 7.1285481452941895, -2.2743051052093506, -1.5660371780395508, -2.1748383045196533, 1.11669921875, -0.40283203125, 0.0537109375
243, 1677695380, -6.783952713012695, -0.8504915237426758, 7.124034881591797, -2.3315236568450928, -1.5992697477340698, -2.154296875, 1.11669921875, -0.40234375, 0.0537109375
244, 1677712047, -6.777522087097168, -0.8494278788566589, 7.143688201904297, -2.3424222469329834, -1.5542809963226318, -2.1976208686828613, 1.1142578125, -0.40234375, 0.051513671875
245, 1677728714, -6.7666802406311035, -0.842457115650177, 7.137913703918457, -2.2967162132263184, -1.6146501302719116, -2.201155185699463, 1.1162109375, -0.40234375, 0.052734375
246, 1677745381, -6.775607109069824, -0.8389762043952942, 7.149634838104248, -2.323853015899658, -1.6056984663009644, -2.1542584896087646, 1.1162109375, -0.402587890625, 0.052734375
247, 1677762048, -6.783265113830566, -0.8272614479064941, 7.157995700836182, -2.3424861431121826, -1.5452395677566528, -2.1316041946411133, 1.115234375, -0.40087890625, 0.051513671875
248, 1677778715, -6.779198169708252, -0.8293706774711609, 7.154682636260986, -2.339707612991333, -1.560684323310852, -2.162249803543091, 1.11474609375, -0.40234375, 0.05322265625
249, 1677795382, -6.766099452972412, -0.8329824805259705, 7.14577054977417, -2.3393101692199707, -1.4611659049987793, -2.1148273944854736, 1.11474609375, -0.403076171875, 0.05322265625
250, 1677812049, -6.779520034790039, -0.8354887366294861, 7.150240898132324, -2.328399419784546, -1.4891222715377808, -2.217048168182373, 1.11572265625, -0.402587890625, 0.05224609375
251, 1677828716, -6.776490211486816, -0.8296428918838501, 7.151219367980957, -2.308805465698242, -1.5132237672805786, -2.231647253036499, 1.11572265625, -0.400390625, 0.05224609375
252, 1677845383, -6.776783466339111, -0.8252367973327637, 7.148967266082764, -2.37165904045105, -1.5027995109558105, -2.116300344467163, 1.11572265625, -0.403564453125, 0.05322265625
253, 1677862050, -6.79276704788208, -0.8414347767829895, 7.154005527496338, -2.3384780883789062, -1.5600440502166748, -2.22320818901062, 1.1142578125, -0.404541015625, 0.05322265625
254, 1677878717, -6.773181438446045, -0.824736475944519, 7.154074668884277, -2.35819935798645, -1.5160540342330933, -2.167538642883301, 1.11669921875, -0.40234375, 0.052734375
255, 1677895384, -6.779666900634766, -0.8353872895240784, 7.158982753753662, -2.385579824447632, -1.450127124786377, -2.261037826538086, 1.1142578125, -0.40234375, 0.05322265625
256, 1677912051, -6.785451412200928, -0.8232433199882507, 7.146465301513672, -2.460035800933838, -1.425052285194397, -2.229956865310669, 1.115234375, -0.40234375, 0.05322265625
257, 1677928718, -6.788516044616699, -0.8361137509346008, 7.1487274169921875, -2.34541916847229, -1.4759831428527832, -2.3077938556671143, 1.115234375, -0.403564453125, 0.0517578125
258, 1677945385, -6.78753137588501, -0.8213493227958679, 7.155012130737305, -2.442145586013794, -1.5458290576934814, -2.3532440662384033, 1.11474609375, -0.40185546875, 0.0517578125
259, 1677962052, -6.778254508972168, -0.8304197192192078, 7.16887903213501, -2.4596645832061768, -1.5266834497451782, -2.3304741382598877, 1.11474609375, -0.403076171875, 0.05419921875
260, 1677978719, -6.78074312210083, -0.8162927627563477, 7.164764881134033, -2.4755702018737793, -1.5280922651290894, -2.481077194213867, 1.11474609375, -0.4013671875, 0.0546875
261, 1677995386, -6.786693096160889, -0.8374600410461426, 7.149399280548096, -2.4730217456817627, -1.5785237550735474, -2.4969184398651123, 1.11474609375, -0.40185546875, 0.05419921875
262, 1678012053, -6.777873516082764, -0.8467431664466858, 7.1479811668396, -2.45733380317688, -1.6031246185302734, -2.4212708473205566, 1.11669921875, -0.40185546875, 0.05078125
263, 1678028720, -6.772846221923828, -0.8441493511199951, 7.149372100830078, -2.422935724258423, -1.47206449508667, -2.411742925643921, 1.1162109375, -0.403076171875, 0.0537109375
264, 1678045387, -6.768827438354492, -0.8255425691604614, 7.141144752502441, -2.4831900596618652, -1.4599368572235107, -2.337799072265625, 1.115234375, -0.403564453125, 0.05126953125
265, 1678062054, -6.774547576904297, -0.8430160284042358, 7.125668048858643, -2.563600778579712, -1.4678125381469727, -2.4617390632629395, 1.11572265625, -0.403076171875, 0.05517578125
266, 1678078721, -6.790302276611328, -0.8276855945587158, 7.140770435333252, -2.4694864749908447, -1.3759909868240356, -2.3974766731262207, 1.1171875, -0.40283203125, 0.05419921875
267, 1678095388, -6.787796974182129, -0.8382974863052368, 7.153011322021484, -2.41489315032959, -1.5247751474380493, -2.4012162685394287, 1.1142578125, -0.40087890625, 0.05224609375
268, 1678112055, -6.777453899383545, -0.8423751592636108, 7.166996955871582, -2.4329886436462402, -1.526580810546875, -2.38195538520813, 1.11474609375, -0.40185546875, 0.05224609375
269, 1678128722, -6.774560451507568, -0.8576127886772156, 7.1541876792907715, -2.5107617378234863, -1.5136466026306152, -2.401113748550415, 1.1162109375, -0.40234375, 0.0546875
270, 1678145389, -6.778275489807129, -0.8392179012298584, 7.146077632904053, -2.4382777214050293, -1.3845840692520142, -2.302274227142334, 1.11474609375, -0.402587890625, 0.05126953125
271, 1678162056, -6.779306888580322, -0.834074854850769, 7.1377787590026855, -2.446960687637329, -1.414845585823059, -2.2826550006866455, 1.11572265625, -0.40234375, 0.0537109375
272, 1678178723, -6.778017997741699, -0.8515347838401794, 7.142877578735352, -2.4774014949798584, -1.3833420276641846, -2.321791410446167, 1.11474609375, -0.402587890625, 0.052734375
273, 1678195390, -6.784095287322998, -0.8474382162094116, 7.135502815246582, -2.4762871265411377, -1.4111061096191406, -2.15834379196167, 1.11376953125, -0.4013671875, 0.0537109375
274, 1678212057, -6.7861151695251465, -0.8426056504249573, 7.131141185760498, -2.314621686935425, -1.4016859531402588, -2.1659486293792725, 1.11572265625, -0.4013671875, 0.05224609375
275, 1678228724, -6.791430950164795, -0.8487395644187927, 7.137866497039795, -2.3290138244628906, -1.4467973709106445, -2.1657328605651855, 1.11572265625, -0.402587890625, 0.052734375
276, 1678245391, -6.779824256896973, -0.8260195851325989, 7.140254974365234, -2.2864327430725098, -1.50551438331604, -2.0895864963531494, 1.1162109375, -0.402587890625, 0.05224609375
277, 1678262058, -6.795645236968994, -0.8348225355148315, 7.1418585777282715, -2.3229310512542725, -1.5784082412719727, -2.1200528144836426, 1.1142578125, -0.403564453125, 0.05419921875
278, 1678278725, -6.794381618499756, -0.8339895606040955, 7.1497697830200195, -2.372645378112793, -1.4477450847625732, -2.2308661937713623, 1.11376953125, -0.40185546875, 0.05224609375
279, 1678295392, -6.799095630645752, -0.8319025635719299, 7.127630710601807, -2.3161818981170654, -1.3728406429290771, -2.213923215866089, 1.11572265625, -0.403564453125, 0.0537109375
280, 1678312059, -6.778955459594727, -0.8341759443283081, 7.1445417404174805, -2.3672280311584473, -1.4482444524765015, -2.1063883304595947, 1.11279296875, -0.403076171875, 0.051513671875
281, 1678328726, -6.7921295166015625, -0.8398453593254089, 7.14013147354126, -2.3254668712615967, -1.5301668643951416, -2.0916998386383057, 1.11474609375, -0.40185546875, 0.05419921875
282, 1678345393, -6.8042755126953125, -0.8208615183830261, 7.151541233062744, -2.262049674987793, -1.549222469329834, -2.1300160884857178, 1.11474609375, -0.402587890625, 0.0537109375
283, 1678362060, -6.795175552368164, -0.8199325203895569, 7.128917694091797, -2.346827745437622, -1.7011957168579102, -2.2029995918273926, 1.11474609375, -0.403564453125, 0.052734375
284, 1678378727, -6.786745071411133, -0.8398734331130981, 7.135229110717773, -2.303567886352539, -1.6044434309005737, -2.278979539871216, 1.1142578125, -0.40234375, 0.05419921875
285, 1678395394, -6.784303188323975, -0.8338161706924438, 7.159407615661621, -2.32783579826355, -1.6624820232391357, -2.2936043739318848, 1.115234375, -0.4013671875, 0.0546875
286, 1678412061, -6.77903413772583, -0.8205520510673523, 7.161431789398193, -2.377678394317627, -1.7532278299331665, -2.18945050239563, 1.1142578125, -0.403076171875, 0.052734375
287, 1678428728, -6.777740478515625, -0.8309980034828186, 7.1400885581970215, -2.3305253982543945, -1.6575772762298584, -2.155308723449707, 1.115234375, -0.403564453125, 0.05224609375
288, 1678445395, -6.778921127319336, -0.8277117609977722, 7.1530351638793945, -2.3363137245178223, -1.6253306865692139, -2.247962713241577, 1.1162109375, -0.403564453125, 0.05322265625
289, 1678462062, -6.773829460144043, -0.8294568657875061, 7.153700351715088, -2.248833656311035, -1.6302356719970703, -2.231506824493408, 1.1142578125, -0.403564453125, 0.05322265625
290, 1678478729, -6.786170959472656, -0.839267373085022, 7.131460189819336, -2.3348283767700195, -1.700913906097412, -2.2425711154937744, 1.11572265625, -0.4013671875, 0.052734375
291, 1678495396, -6.778624057769775, -0.8325327634811401, 7.134644985198975, -2.3279640674591064, -1.6975713968276978, -2.264354705810547, 1.11328125, -0.40185546875, 0.052734375
292, 1678512063, -6.780237674713135, -0.8361397981643677, 7.147707939147949, -2.3004047870635986, -1.5911122560501099, -2.2278568744659424, 1.11572265625, -0.40234375, 0.05224609375
293, 1678528730, -6.774692058563232, -0.840802013874054, 7.167398452758789, -2.393148183822632, -1.610680341720581, -2.2256669998168945, 1.115234375, -0.4013671875, 0.0517578125
294, 1678545397, -6.778041362762451, -0.8318818807601929, 7.151319980621338, -2.2810416221618652, -1.7434053421020508, -2.1867613792419434, 1.11474609375, -0.404052734375, 0.0537109375
295, 1678562064, -6.7932634353637695, -0.8281051516532898, 7.1473588943481445, -2.30643630027771, -1.7124137878417969, -2.2825653553009033, 1.11572265625, -0.40087890625, 0.052734375
296, 1678578731, -6.784523963928223, -0.8160630464553833, 7.142218589782715, -2.3238914012908936, -1.7323148250579834, -2.284025192260742, 1.1123046875, -0.403076171875, 0.052001953125
297, 1678595398, -6.763699531555176, -0.8335915207862854, 7.156077861785889, -2.2962427139282227, -1.7109284400939941, -2.229905605316162, 1.11572265625, -0.403564453125, 0.05224609375
298, 1678612065, -6.786425590515137, -0.8211604356765747, 7.172816276550293, -2.302210569381714, -1.6138561964035034, -2.2692086696624756, 1.1162109375, -0.403076171875, 0.05078125
299, 1678628732, -6.78855037689209, -0.8135355114936829, 7.153037071228027, -2.3998970985412598, -1.5032604932785034, -2.2915682792663574, 1.11474609375, -0.402587890625, 0.052734375
300, 1678645399, -6.775691032409668, -0.8352035880088806, 7.146378517150879, -2.499889373779297, -1.421735405921936, -2.3755781650543213, 1.11572265625, -0.402587890625, 0.0537109375
301, 1678662066, -6.78722620010376, -0.830893337726593, 7.143646240234375, -2.421642303466797, -1.4225423336029053, -2.3139796257019043, 1.11376953125, -0.403564453125, 0.0517578125
302, 1678678733, -6.774524688720703, -0.8256475925445557, 7.158998966217041, -2.468500852584839, -1.5713775157928467, -2.3450093269348145, 1.11376953125, -0.40185546875, 0.0537109375
303, 1678695400, -6.778359889984131, -0.8414889574050903, 7.159352779388428, -2.412729024887085, -1.5880388021469116, -2.339451313018799, 1.11669921875, -0.40283203125, 0.05224609375
304, 1678712067, -6.782583236694336, -0.8346742391586304, 7.181651592254639, -2.32291841506958, -1.5577389001846313, -2.2438902854919434, 1.1142578125, -0.40234375, 0.0537109375
305, 1678728734, -6.771425724029541, -0.8277431726455688, 7.132155418395996, -2.336428642272949, -1.6622897386550903, -2.298163414001465, 1.11279296875, -0.40087890625, 0.05419921875
306, 1678745401, -6.77927827835083, -0.8308241963386536, 7.1593828201293945, -2.328015089035034, -1.6184282302856445, -2.25909161567688, 1.115234375, -0.403076171875, 0.0517578125
307, 1678762068, -6.785305976867676, -0.8179333806037903, 7.139967918395996, -2.4144325256347656, -1.446221113204956, -2.3370308876037598, 1.115234375, -0.404052734375, 0.05224609375
308, 1678778735, -6.773452281951904, -0.8421486020088196, 7.158295154571533, -2.4444501399993896, -1.4914658069610596, -2.312391519546509, 1.11474609375, -0.403564453125, 0.0517578125
309, 1678795402, -6.7755231857299805, -0.8380824327468872, 7.154698848724365, -2.4298131465911865, -1.4604747295379639, -2.314734935760498, 1.11669921875, -0.40283203125, 0.05322265625
310, 1678812069, -6.785061836242676, -0.8277274370193481, 7.173360824584961, -2.4185516834259033, -1.5218279361724854, -2.312943935394287, 1.115234375, -0.40185546875, 0.05126953125
311, 1678828736, -6.765276908874512, -0.8315468430519104, 7.154619216918945, -2.5040512084960938, -1.543792724609375, -2.3872063159942627, 1.1162109375, -0.403564453125, 0.052734375
312, 1678845403, -6.773926258087158, -0.839236319065094, 7.160393238067627, -2.481806755065918, -1.5563045740127563, -2.374361515045166, 1.11376953125, -0.40234375, 0.051025390625
313, 1678862070, -6.776371002197266, -0.8318507075309753, 7.141621112823486, -2.4575772285461426, -1.5314985513687134, -2.3240580558776855, 1.11474609375, -0.40234375, 0.052734375
314, 1678878737, -6.78241491317749, -0.823195219039917, 7.1455078125, -2.511683702468872, -1.485344409942627, -2.3740153312683105, 1.11474609375, -0.403564453125, 0.0537109375
315, 1678895404, -6.7795820236206055, -0.827987790107727, 7.158082485198975, -2.476209878921509, -1.4805035591125488, -2.477336883544922, 1.11328125, -0.40087890625, 0.0537109375
316, 1678912071, -6.777055740356445, -0.8220571875572205, 7.148950576782227, -2.455566644668579, -1.4464772939682007, -2.504192352294922, 1.115234375, -0.403564453125, 0.05224609375
317, 1678928738, -6.765978813171387, -0.8449275493621826, 7.168144702911377, -2.511709451675415, -1.4940143823623657, -2.4751343727111816, 1.11474609375, -0.40234375, 0.052734375
318, 1678945405, -6.77395486831665, -0.8340719938278198, 7.132351398468018, -2.506612539291382, -1.4524321556091309, -2.450482130050659, 1.1142578125, -0.4013671875, 0.051513671875
319, 1678962072, -6.781868934631348, -0.8219866752624512, 7.165923595428467, -2.43210506439209, -1.4214664697647095, -2.411320447921753, 1.11376953125, -0.40185546875, 0.052734375
320, 1678978739, -6.7836151123046875, -0.8348541855812073, 7.1605424880981445, -2.5232481956481934, -1.3198097944259644, -2.508866310119629, 1.11279296875, -0.403564453125, 0.05224609375
321, 1678995406, -6.778414249420166, -0.8398253321647644, 7.148256778717041, -2.568774938583374, -1.424642562866211, -2.4901695251464844, 1.115234375, -0.4013671875, 0.05322265625
322, 1679012073, -6.778020858764648, -0.8349474668502808, 7.165563583374023, -2.5303683280944824, -1.4420846700668335, -2.353128433227539, 1.1142578125, -0.402587890625, 0.05322265625
323, 1679028740, -6.7815680503845215, -0.8381996154785156, 7.144826889038086, -2.4762487411499023, -1.3841103315353394, -2.4158413410186768, 1.11474609375, -0.3994140625, 0.0517578125
324, 1679045407, -6.7750067710876465, -0.8330328464508057, 7.183444023132324, -2.476940155029297, -1.429624080657959, -2.420822858810425, 1.11474609375, -0.40087890625, 0.0517578125
325, 1679062074, -6.783808708190918, -0.8438899517059326, 7.156586647033691, -2.5610013008117676, -1.4215818643569946, -2.449010133743286, 1.112060546875, -0.40087890625, 0.052734375
326, 1679078741, -6.775765419006348, -0.8401026725769043, 7.151400089263916, -2.5714893341064453, -1.3762471675872803, -2.4718177318573, 1.11474609375, -0.4013671875, 0.05322265625
327, 1679095408, -6.779205799102783, -0.8456986546516418, 7.141165733337402, -2.605849266052246, -1.4251933097839355, -2.460510015487671, 1.11572265625, -0.40185546875, 0.052734375
328, 1679112075, -6.772427558898926, -0.8535493612289429, 7.136284828186035, -2.554687738418579, -1.3993242979049683, -2.434051752090454, 1.115234375, -0.40185546875, 0.05224609375
329, 1679128742, -6.769023418426514, -0.8518525958061218, 7.14417839050293, -2.5787768363952637, -1.3777201175689697, -2.4424657821655273, 1.1171875, -0.3984375, 0.0517578125
330, 1679145409, -6.785630226135254, -0.8496204018592834, 7.157934665679932, -2.552075147628784, -1.4096590280532837, -2.303478240966797, 1.115234375, -0.4013671875, 0.05322265625
331, 1679162076, -6.781768798828125, -0.8398054242134094, 7.151369094848633, -2.4317593574523926, -1.544061541557312, -2.2247190475463867, 1.11279296875, -0.40234375, 0.05322265625
332, 1679178743, -6.782169342041016, -0.8505240082740784, 7.165215015411377, -2.4453983306884766, -1.5742974281311035, -2.3544092178344727, 1.1142578125, -0.40234375, 0.05419921875
333, 1679195410, -6.782231330871582, -0.8358722925186157, 7.160823345184326, -2.455348491668701, -1.5479416847229004, -2.3422813415527344, 1.115234375, -0.4013671875, 0.050537109375
334, 1679212077, -6.776217937469482, -0.8356262445449829, 7.160921573638916, -2.5573389530181885, -1.5427683591842651, -2.42152738571167, 1.1162109375, -0.4013671875, 0.050048828125
335, 1679228744, -6.7796173095703125, -0.830661952495575, 7.151216983795166, -2.624046802520752, -1.4900062084197998, -2.5910451412200928, 1.11572265625, -0.403564453125, 0.050048828125
336, 1679245411, -6.769742965698242, -0.8630540370941162, 7.148502349853516, -2.5959115028381348, -1.3717268705368042, -2.6024298667907715, 1.115234375, -0.4013671875, 0.05419921875
337, 1679262078, -6.7829813957214355, -0.8394168615341187, 7.146154403686523, -2.6925485134124756, -1.2482606172561646, -2.6770012378692627, 1.11376953125, -0.40234375, 0.05615234375
338, 1679278745, -6.776248455047607, -0.8483527898788452, 7.147359371185303, -2.7083897590637207, -1.3519408702850342, -2.696274757385254, 1.115234375, -0.403076171875, 0.0537109375
339, 1679295412, -6.773017883300781, -0.852266252040863, 7.151426315307617, -2.8403072357177734, -1.338353157043457, -2.6625425815582275, 1.11376953125, -0.4013671875, 0.0537109375
340, 1679312079, -6.780510425567627, -0.8457832336425781, 7.150084495544434, -2.680804967880249, -1.3716628551483154, -2.5159871578216553, 1.11572265625, -0.40087890625, 0.05126953125
341, 1679328746, -6.774128437042236, -0.8543478846549988, 7.138462543487549, -2.54815673828125, -1.3529014587402344, -2.501323938369751, 1.11376953125, -0.403076171875, 0.05224609375
342, 1679345413, -6.781061172485352, -0.8536766171455383, 7.134918689727783, -2.617861270904541, -1.3178629875183105, -2.4485230445861816, 1.1142578125, -0.3994140625, 0.052001953125
343, 1679362080, -6.784939765930176, -0.8558528423309326, 7.134382247924805, -2.626890182495117, -1.30845046043396, -2.434218645095825, 1.113037109375, -0.40087890625, 0.052001953125
344, 1679378747, -6.765812873840332, -0.8536239266395569, 7.138288497924805, -2.6748623847961426, -1.2936718463897705, -2.4072608947753906, 1.11376953125, -0.40087890625, 0.05517578125
345, 1679395414, -6.776365280151367, -0.8598415851593018, 7.116235256195068, -2.5747034549713135, -1.2649599313735962, -2.3058085441589355, 1.1162109375, -0.40087890625, 0.0556640625
346, 1679412081, -6.780465126037598, -0.8568533658981323, 7.127335071563721, -2.5095608234405518, -1.3628596067428589, -2.3106391429901123, 1.11376953125, -0.4013671875, 0.05419921875
347, 1679428748, -6.7760009765625, -0.8544346690177917, 7.147342681884766, -2.3684706687927246, -1.4301748275756836, -2.3008272647857666, 1.11474609375, -0.40087890625, 0.05322265625
348, 1679445415, -6.7791666984558105, -0.8624707460403442, 7.160881042480469, -2.431016683578491, -1.414896845817566, -2.277942657470703, 1.115234375, -0.39990234375, 0.052734375
349, 1679462082, -6.777444362640381, -0.8542051911354065, 7.123249053955078, -2.410846471786499, -1.4161903858184814, -2.2238614559173584, 1.115234375, -0.3994140625, 0.05322265625
350, 1679478749, -6.776744842529297, -0.8577570915222168, 7.144948482513428, -2.3513994216918945, -1.4477193355560303, -2.165809392929077, 1.1142578125, -0.4013671875, 0.05322265625
351, 1679495416, -6.770220756530762, -0.8530345559120178, 7.13480806350708, -2.310931444168091, -1.4855620861053467, -2.1887073516845703, 1.1162109375, -0.39990234375, 0.05224609375
352, 1679512083, -6.784167289733887, -0.877467930316925, 7.14467716217041, -2.239100694656372, -1.488340973854065, -2.03377628326416, 1.11572265625, -0.3994140625, 0.05224609375
353, 1679528750, -6.773059368133545, -0.8566768169403076, 7.15541934967041, -2.2099788188934326, -1.6122679710388184, -2.0420491695404053, 1.115234375, -0.3994140625, 0.05322265625
354, 1679545417, -6.788068771362305, -0.855900228023529, 7.133243083953857, -2.082990884780884, -1.6985061168670654, -1.9585133790969849, 1.115234375, -0.402587890625, 0.052734375
355, 1679562084, -6.7849297523498535, -0.847262442111969, 7.137278079986572, -2.1247527599334717, -1.7476568222045898, -1.8253402709960938, 1.11572265625, -0.403076171875, 0.0517578125
356, 1679578751, -6.776196479797363, -0.8520832061767578, 7.1527276039123535, -2.063589572906494, -1.7186120748519897, -1.875528335571289, 1.1142578125, -0.39990234375, 0.05517578125
357, 1679595418, -6.785964488983154, -0.8473514914512634, 7.146272659301758, -2.133627414703369, -1.665414571762085, -1.9322731494903564, 1.11572265625, -0.40185546875, 0.052734375
358, 1679612085, -6.791843891143799, -0.8421995043754578, 7.1550612449646, -2.2208895683288574, -1.5611194372177124, -1.9541590213775635, 1.1142578125, -0.4013671875, 0.052734375
359, 1679628752, -6.767282962799072, -0.8432316184043884, 7.145004749298096, -2.244107723236084, -1.548377275466919, -2.0212388038635254, 1.11376953125, -0.40185546875, 0.051513671875
360, 1679645419, -6.7739176750183105, -0.8439434170722961, 7.149145126342773, -2.267364263534546, -1.430635690689087, -2.0113525390625, 1.11328125, -0.40234375, 0.05322265625
361, 1679662086, -6.783524990081787, -0.8524727821350098, 7.150755405426025, -2.3554975986480713, -1.2860008478164673, -1.9506632089614868, 1.1162109375, -0.40234375, 0.052734375
362, 1679678753, -6.78727388381958, -0.8359096646308899, 7.151653289794922, -2.435959577560425, -1.2418829202651978, -2.0066394805908203, 1.11376953125, -0.4013671875, 0.0537109375
363, 1679695420, -6.782601833343506, -0.8469312191009521, 7.135615348815918, -2.4209635257720947, -1.3297215700149536, -2.095310926437378, 1.11572265625, -0.40087890625, 0.050537109375
364, 1679712087, -6.784243583679199, -0.8657249212265015, 7.154716491699219, -2.1637096405029297, -1.417739748954773, -1.8392223119735718, 1.1142578125, -0.40087890625, 0.0546875
365, 1679728754, -6.77208948135376, -0.8573364615440369, 7.142598628997803, -1.9696165323257446, -1.654221773147583, -1.516297459602356, 1.1142578125, -0.4013671875, 0.05322265625
366, 1679745421, -6.787109851837158, -0.8610305786132812, 7.155060291290283, -1.807373046875, -1.8645023107528687, -1.3844817876815796, 1.115234375, -0.40185546875, 0.052734375
367, 1679762088, -6.792803764343262, -0.8428189158439636, 7.144505500793457, -1.8442552089691162, -1.817976474761963, -1.5218552350997925, 1.115234375, -0.405029296875, 0.052734375
368, 1679778755, -6.7895660400390625, -0.8221189975738525, 7.174922943115234, -2.193023681640625, -1.5199474096298218, -1.6713953018188477, 1.11328125, -0.403564453125, 0.05322265625
369, 1679795422, -6.781381607055664, -0.8539557456970215, 7.1669206619262695, -2.549257516860962, -1.3313864469528198, -2.0237619876861572, 1.1171875, -0.40283203125, 0.05224609375
370, 1679812089, -6.779128074645996, -0.8173156976699829, 7.151811599731445, -2.79793119430542, -0.8133056163787842, -2.217560291290283, 1.115234375, -0.404052734375, 0.05224609375
371, 1679828756, -6.761871337890625, -0.8453822135925293, 7.1476287841796875, -2.89853835105896, -0.5082584619522095, -2.243365526199341, 1.115234375, -0.402587890625, 0.05419921875
372, 1679845423, -6.752867698669434, -0.8366132974624634, 7.167688846588135, -3.1005585193634033, -0.0683474913239479, -2.292772054672241, 1.115234375, -0.40185546875, 0.0546875
373, 1679862090, -6.776163578033447, -0.8263506889343262, 7.149542808532715, -3.3696515560150146, 0.3884933888912201, -2.319479465484619, 1.11572265625, -0.4013671875, 0.05419921875
374, 1679878757, -6.7789812088012695, -0.8531423211097717, 7.13577127456665, -3.1916563510894775, 0.49793654680252075, -1.9332658052444458, 1.115234375, -0.403076171875, 0.056396484375
375, 1679895424, -6.79090690612793, -0.8710091710090637, 7.1318864822387695, -3.172145128250122, 0.5884709358215332, -1.6900283098220825, 1.1171875, -0.40087890625, 0.05517578125
376, 1679912091, -6.809813499450684, -0.8628290295600891, 7.1447296142578125, -3.173964023590088, 0.6319869756698608, -1.467697262763977, 1.115234375, -0.39990234375, 0.05322265625
377, 1679928758, -6.81586217880249, -0.8537665605545044, 7.126659393310547, -2.8907899856567383, 0.6528741121292114, -1.4768280982971191, 1.1181640625, -0.4013671875, 0.057373046875
378, 1679945425, -6.822629928588867, -0.786141037940979, 7.128198623657227, -3.0515353679656982, 0.4383869469165802, -1.6599589586257935, 1.118408203125, -0.405029296875, 0.057373046875
379, 1679962092, -6.851418495178223, -0.817611038684845, 7.115145206451416, -3.204955577850342, 0.6087050437927246, -1.9531476497650146, 1.118896484375, -0.40283203125, 0.056884765625
380, 1679978759, -6.834323406219482, -0.8406585454940796, 7.080854415893555, -3.2764408588409424, -0.029697930440306664, -2.3333687782287598, 1.1162109375, -0.40185546875, 0.058349609375
381, 1679995426, -6.841368198394775, -0.9034764170646667, 7.080074310302734, -3.0993292331695557, -0.6913124322891235, -2.377448081970215, 1.118408203125, -0.403076171875, 0.0595703125
382, 1680012093, -6.808053493499756, -0.8702442646026611, 7.087466239929199, -2.6361441612243652, -1.71478271484375, -1.9903972148895264, 1.11669921875, -0.40283203125, 0.059814453125
383, 1680028760, -6.849761486053467, -0.833177924156189, 7.087898254394531, -2.0588126182556152, -3.064751386642456, -1.987442970275879, 1.118896484375, -0.40234375, 0.054931640625
384, 1680045427, -6.8039445877075195, -0.9152066707611084, 7.048611640930176, -1.2737452983856201, -5.445977687835693, -2.0251195430755615, 1.11376953125, -0.402587890625, 0.056884765625
385, 1680062094, -6.8072991371154785, -0.8092842698097229, 7.061837673187256, 0.6694967746734619, -8.22325325012207, -1.8567159175872803, 1.1162109375, -0.40283203125, 0.056396484375
386, 1680078761, -6.811896324157715, -0.3514781594276428, 7.1036834716796875, 3.361867666244507, -12.68196964263916, -2.6927926540374756, 1.115234375, -0.404052734375, 0.05322265625
387, 1680095428, -6.790638446807861, -0.42221230268478394, 7.09926176071167, 2.525676965713501, -14.483445167541504, -6.06810188293457, 1.11279296875, -0.404052734375, 0.049072265625
388, 1680112095, -6.5854363441467285, -0.2727217674255371, 7.585134983062744, -1.924808382987976, -9.287758827209473, -7.996212482452393, 1.11279296875, -0.403076171875, 0.048095703125
389, 1680128762, -6.57658052444458, -1.3589222431182861, 7.369712829589844, -4.652304649353027, -1.6407499313354492, -7.065456390380859, 1.112548828125, -0.40185546875, 0.04541015625
390, 1680145429, -6.751983642578125, -1.6423828601837158, 6.927928924560547, -1.831436276435852, -2.3997819423675537, -2.080340623855591, 1.111083984375, -0.40185546875, 0.0458984375
391, 1680162096, -6.911924362182617, -1.5700269937515259, 6.930689811706543, 4.6200270652771, -8.303282737731934, 4.605530261993408, 1.108642578125, -0.404052734375, 0.04638671875
392, 1680178763, -6.784508228302002, -0.9405066967010498, 7.213024616241455, 8.346168518066406, -13.426676750183105, 8.118612289428711, 1.111083984375, -0.407470703125, 0.04345703125
393, 1680195430, -6.7263264656066895, -0.48180028796195984, 7.378190994262695, 6.738642692565918, -12.197962760925293, 6.520960330963135, 1.107177734375, -0.41015625, 0.042236328125
394, 1680212097, -6.682211875915527, -0.5926727056503296, 7.305374622344971, 3.8390183448791504, -9.82979965209961, 4.220609664916992, 1.105224609375, -0.4111328125, 0.042236328125
395, 1680228764, -6.535576820373535, -0.7117337584495544, 7.3106207847595215, 0.6612111330032349, -8.040250778198242, 2.1970126628875732, 1.106689453125, -0.40771484375, 0.040283203125
396, 1680245431, -6.569011688232422, -0.6994125247001648, 7.35026216506958, -2.3322932720184326, -6.012096405029297, 1.131658911705017, 1.1025390625, -0.408203125, 0.040771484375
397, 1680262098, -6.571009159088135, -0.5062846541404724, 7.416368007659912, -3.2936136722564697, -3.653395652770996, 0.40064024925231934, 1.1015625, -0.40771484375, 0.0400390625
398, 1680278765, -6.521708011627197, -0.8507937788963318, 7.350429058074951, -3.502485513687134, -1.6135362386703491, 0.37228700518608093, 1.1015625, -0.40771484375, 0.0380859375
399, 1680295432, -6.648728370666504, -0.9000064134597778, 7.274703025817871, -2.385733127593994, -1.1717681884765625, 2.296607494354248, 1.10009765625, -0.40869140625, 0.041015625
400, 1680312099, -6.687966346740723, -0.8582808971405029, 7.329522132873535, -1.19270658493042, -0.5980181097984314, 4.672082901000977, 1.1005859375, -0.41015625, 0.03759765625
401, 1680328766, -6.765775680541992, -1.0914849042892456, 7.263397216796875, 0.17574797570705414, 1.3909043073654175, 7.897927284240723, 1.10107421875, -0.413818359375, 0.0390625
402, 1680345433, -6.764810085296631, -1.1447970867156982, 7.1089911460876465, 1.4640929698944092, 0.636930525302887, 10.968241691589355, 1.1025390625, -0.415283203125, 0.040771484375
403, 1680362100, -6.642846584320068, -0.7188078761100769, 7.095292568206787, 1.1991616487503052, -3.6497795581817627, 11.403599739074707, 1.102294921875, -0.41943359375, 0.042724609375
404, 1680378767, -6.396273612976074, -0.5705239772796631, 7.469892501831055, -0.8909510374069214, -4.437901973724365, 9.439860343933105, 1.099609375, -0.422607421875, 0.042236328125
405, 1680395434, -6.38232421875, -0.4519049823284149, 7.509149551391602, -3.204841136932373, 2.5028929710388184, 8.367409706115723, 1.102294921875, -0.424072265625, 0.042724609375
406, 1680412101, -6.477902889251709, 0.11725548654794693, 7.370904922485352, -4.6982293128967285, 8.557827949523926, 6.56038236618042, 1.10400390625, -0.427490234375, 0.044921875
407, 1680428768, -6.609440326690674, 0.4972277581691742, 7.384622097015381, -8.06896686553955, 12.841379165649414, -0.4265798330307007, 1.1044921875, -0.427001953125, 0.048095703125
408, 1680445435, -6.774185657501221, 0.07606438547372818, 7.236361980438232, -10.341410636901855, 16.16489601135254, -5.902788162231445, 1.10693359375, -0.427490234375, 0.05419921875
409, 1680462102, -6.917193412780762, -0.3667760193347931, 7.235037803649902, -9.79647445678711, 16.3624210357666, -7.090092182159424, 1.109375, -0.4228515625, 0.058837890625
410, 1680478769, -7.070385456085205, -1.322346568107605, 6.892751693725586, -2.693201780319214, 8.469923973083496, -0.4092654585838318, 1.112060546875, -0.424072265625, 0.062744140625
411, 1680495436, -6.944856643676758, -0.6142751574516296, 6.888436317443848, 3.1475002765655518, -3.2807185649871826, 3.977595329284668, 1.112060546875, -0.425048828125, 0.0615234375
412, 1680512103, -6.974610805511475, 0.45763638615608215, 7.11923360824585, 4.6799235343933105, -12.0780611038208, -0.3403930068016052, 1.110107421875, -0.426025390625, 0.05908203125
413, 1680528770, -6.809899806976318, 1.2133996486663818, 7.5395307540893555, -1.403321385383606, -12.62158203125, -13.247416496276855, 1.110107421875, -0.425537109375, 0.054443359375
414, 1680545437, -6.774074077606201, -0.019994959235191345, 7.435201644897461, -8.708900451660156, -7.295947551727295, -22.433292388916016, 1.1083984375, -0.42041015625, 0.052734375
415, 1680562104, -6.570794105529785, -1.6889386177062988, 7.197021484375, -10.772375106811523, -1.4846556186676025, -20.631338119506836, 1.107666015625, -0.414306640625, 0.051513671875
416, 1680578771, -6.64162015914917, -1.3056596517562866, 7.23011589050293, -8.350361824035645, 2.5129473209381104, -12.342552185058594, 1.105712890625, -0.40966796875, 0.05322265625
417, 1680595438, -6.703096866607666, -0.3924141526222229, 7.261559009552002, -9.40085506439209, 5.8792524337768555, -10.404181480407715, 1.108154296875, -0.406982421875, 0.05419921875
418, 1680612105, -6.693154335021973, -0.739707350730896, 7.225199222564697, -12.176215171813965, 9.284000396728516, -11.432388305664062, 1.111083984375, -0.405517578125, 0.0556640625
419, 1680628772, -6.796575546264648, -0.5858393311500549, 7.188769340515137, -13.353073120117188, 10.140064239501953, -12.734487533569336, 1.110107421875, -0.40234375, 0.057861328125
420, 1680645439, -6.856993675231934, -1.115358591079712, 7.028454303741455, -13.747060775756836, 8.959329605102539, -13.176459312438965, 1.111572265625, -0.3984375, 0.060302734375
421, 1680662106, -6.892120838165283, -1.0448719263076782, 6.96151065826416, -14.512228012084961, 6.836699485778809, -12.784727096557617, 1.11572265625, -0.392822265625, 0.0634765625
422, 1680678773, -6.852665424346924, -1.467055082321167, 7.04184103012085, -13.206204414367676, 4.4807353019714355, -10.567234992980957, 1.1171875, -0.392578125, 0.067138671875
423, 1680695440, -6.854086875915527, -1.142192006111145, 7.024655342102051, -9.725083351135254, 1.9208956956863403, -7.671840190887451, 1.11669921875, -0.3916015625, 0.06591796875
424, 1680712107, -6.807236194610596, -1.2227493524551392, 7.093778133392334, -7.592657089233398, 1.0078792572021484, -6.414818286895752, 1.11767578125, -0.392578125, 0.067138671875
425, 1680728774, -6.860383987426758, -0.9682810306549072, 7.101083755493164, -5.801738262176514, 1.1586353778839111, -4.6424689292907715, 1.119140625, -0.393310546875, 0.06494140625
426, 1680745441, -6.931641578674316, -1.0230070352554321, 7.122225761413574, -6.314414978027344, 2.4732203483581543, -4.700085163116455, 1.120361328125, -0.394775390625, 0.06298828125
427, 1680762108, -6.888912677764893, -1.2879279851913452, 6.779070854187012, -4.294199466705322, -0.32175952196121216, -2.6234447956085205, 1.121337890625, -0.392822265625, 0.064453125
428, 1680778775, -6.851845741271973, -1.1811481714248657, 6.993310451507568, -2.622753620147705, -3.5051114559173584, -1.8888599872589111, 1.120361328125, -0.394775390625, 0.064453125
429, 1680795442, -6.874053955078125, -0.961876630783081, 7.163111209869385, -2.243122100830078, -3.299863815307617, -0.48863911628723145, 1.1181640625, -0.393310546875, 0.06298828125
430, 1680812109, -6.920849323272705, -0.9742158651351929, 7.064878463745117, -3.2361392974853516, -1.590074896812439, -0.7373384833335876, 1.121337890625, -0.393310546875, 0.06103515625
431, 1680828776, -6.880744457244873, -0.9581202864646912, 7.124326705932617, -3.6163082122802734, -1.656936764717102, -0.9689924120903015, 1.120849609375, -0.396728515625, 0.06201171875
432, 1680845443, -6.805046558380127, -0.9151954054832458, 7.001077651977539, -3.301515579223633, -0.9676478505134583, -0.7069873809814453, 1.1201171875, -0.395263671875, 0.06494140625
433, 1680862110, -6.8407087326049805, -1.0373382568359375, 6.86409330368042, -1.3781170845031738, -3.6106865406036377, -0.6936175227165222, 1.120361328125, -0.396728515625, 0.064453125
434, 1680878777, -6.815356254577637, -0.8956338167190552, 7.080429553985596, -0.22794024646282196, -6.169421195983887, -0.9071123003959656, 1.119873046875, -0.396240234375, 0.064697265625
435, 1680895444, -6.826829433441162, -0.8361749053001404, 7.231277942657471, -1.870546579360962, -3.3806328773498535, -1.6203233003616333, 1.11669921875, -0.395263671875, 0.0615234375
436, 1680912111, -6.835801601409912, -0.8121467232704163, 7.11228084564209, -2.912228584289551, -1.3290560245513916, -2.383633613586426, 1.121826171875, -0.396240234375, 0.06298828125
437, 1680928778, -6.832849502563477, -0.9390778541564941, 7.064004898071289, -2.732503890991211, -1.2795978784561157, -2.711975574493408, 1.1181640625, -0.394775390625, 0.0615234375
438, 1680945445, -6.8166704177856445, -0.9415175318717957, 7.0640668869018555, -2.054382085800171, -1.8482381105422974, -2.5550718307495117, 1.11962890625, -0.396728515625, 0.0625
439, 1680962112, -6.8135857582092285, -1.0894875526428223, 7.018585205078125, -1.4110037088394165, -2.715125799179077, -2.2388575077056885, 1.11865234375, -0.396240234375, 0.0625
440, 1680978779, -6.809897422790527, -0.9883342385292053, 7.068962097167969, -0.7316012382507324, -3.431436538696289, -1.6047254800796509, 1.119873046875, -0.39892578125, 0.06103515625
441, 1680995446, -6.825174808502197, -0.9141770005226135, 7.114132404327393, -1.1963436603546143, -2.788954019546509, -1.8717764616012573, 1.1201171875, -0.395751953125, 0.060546875
442, 1681012113, -6.814744472503662, -0.8808452486991882, 7.092617988586426, -1.8233166933059692, -1.9585390090942383, -2.3175904750823975, 1.119140625, -0.396240234375, 0.059814453125
443, 1681028780, -6.8163933753967285, -0.9583353996276855, 7.103338718414307, -2.2201216220855713, -1.267329216003418, -2.637378215789795, 1.11865234375, -0.396728515625, 0.058837890625
444, 1681045447, -6.821585655212402, -0.9892946481704712, 7.090667247772217, -2.392533302307129, -0.9539577960968018, -2.390983819961548, 1.120361328125, -0.397216796875, 0.060546875
445, 1681062114, -6.811329364776611, -0.948381245136261, 7.066669464111328, -2.404212713241577, -0.9754852652549744, -2.389075756072998, 1.119140625, -0.39794921875, 0.0615234375
446, 1681078781, -6.83379602432251, -0.9566775560379028, 7.0857930183410645, -2.3575594425201416, -1.0055290460586548, -2.6145572662353516, 1.119873046875, -0.397705078125, 0.06103515625
447, 1681095448, -6.815825462341309, -0.9900786280632019, 7.071335792541504, -2.692227840423584, -0.9126445651054382, -2.4689745903015137, 1.11865234375, -0.397705078125, 0.06103515625
448, 1681112115, -6.8255510330200195, -0.9669961929321289, 7.08094596862793, -2.7743678092956543, -0.9041540026664734, -2.4652481079101562, 1.11865234375, -0.396240234375, 0.064453125
449, 1681128782, -6.844040870666504, -0.9721656441688538, 7.084320545196533, -2.6740682125091553, -0.7742590308189392, -2.3279762268066406, 1.120849609375, -0.397216796875, 0.0595703125
450, 1681145449, -6.853087425231934, -0.9619414210319519, 7.069416522979736, -2.438777446746826, -1.0756052732467651, -2.4030730724334717, 1.120361328125, -0.396240234375, 0.06005859375
451, 1681162116, -6.844951152801514, -0.9531171321868896, 7.068188667297363, -2.347698450088501, -1.4189820289611816, -2.4132542610168457, 1.11962890625, -0.394775390625, 0.06201171875
452, 1681178783, -6.844578742980957, -0.9276487231254578, 7.086846828460693, -2.33895206451416, -1.3114343881607056, -2.7024986743927, 1.1181640625, -0.396240234375, 0.06298828125
453, 1681195450, -6.845127105712891, -0.9491437077522278, 7.085833549499512, -2.740379810333252, -1.1106433868408203, -2.92698073387146, 1.120849609375, -0.396240234375, 0.06005859375
454, 1681212117, -6.852355480194092, -1.0027050971984863, 7.081416130065918, -2.7985315322875977, -1.0165070295333862, -3.05488657951355, 1.120849609375, -0.394287109375, 0.059814453125
455, 1681228784, -6.867891788482666, -0.9691399335861206, 7.067412376403809, -2.6166317462921143, -1.3236514329910278, -3.0449016094207764, 1.120361328125, -0.396728515625, 0.06103515625
456, 1681245451, -6.853434085845947, -0.9479532837867737, 7.085102081298828, -2.65256667137146, -1.4908641576766968, -3.0694775581359863, 1.120849609375, -0.395263671875, 0.06201171875
457, 1681262118, -6.83715295791626, -0.9686249494552612, 7.105806350708008, -2.5276660919189453, -1.5088441371917725, -2.9126760959625244, 1.1181640625, -0.395263671875, 0.0615234375
458, 1681278785, -6.842328071594238, -0.9704598784446716, 7.07352876663208, -2.2778146266937256, -1.4854599237442017, -2.7742526531219482, 1.1181640625, -0.39794921875, 0.06201171875
459, 1681295452, -6.859539031982422, -0.974624514579773, 7.057626724243164, -2.091904401779175, -1.3655411005020142, -2.782179832458496, 1.11962890625, -0.393798828125, 0.060302734375
460, 1681312119, -6.8468732833862305, -0.9531123638153076, 7.0779266357421875, -1.9794776439666748, -1.1126925945281982, -2.7721009254455566, 1.1201171875, -0.394775390625, 0.0615234375
461, 1681328786, -6.85377311706543, -0.9813456535339355, 7.0378007888793945, -1.8976833820343018, -0.9182537198066711, -2.877330780029297, 1.120849609375, -0.394775390625, 0.06005859375
462, 1681345453, -6.8597564697265625, -0.9810047745704651, 7.034360408782959, -1.764151692390442, -1.3940867185592651, -3.1473400592803955, 1.119140625, -0.394287109375, 0.060302734375
463, 1681362120, -6.827414035797119, -0.9970263242721558, 7.07162618637085, -1.584196925163269, -1.7239782810211182, -3.131742000579834, 1.119140625, -0.396240234375, 0.0625
464, 1681378787, -6.83795166015625, -0.9267750382423401, 7.1241044998168945, -2.165604829788208, -1.4097869396209717, -3.3951423168182373, 1.121337890625, -0.394775390625, 0.06103515625
465, 1681395454, -6.838911533355713, -1.0095845460891724, 7.07337760925293, -2.5104029178619385, -1.0810863971710205, -3.4295146465301514, 1.120849609375, -0.393798828125, 0.06103515625
466, 1681412121, -6.827274322509766, -1.0200235843658447, 7.045217990875244, -2.173814296722412, -1.0134819746017456, -3.1426146030426025, 1.1181640625, -0.394287109375, 0.060791015625
467, 1681428788, -6.820983409881592, -1.0117220878601074, 7.047892093658447, -1.8514782190322876, -1.303852915763855, -2.7674009799957275, 1.1201171875, -0.393798828125, 0.059326171875
468, 1681445455, -6.833367347717285, -1.0025749206542969, 7.0431623458862305, -1.5676894187927246, -1.5006225109100342, -2.4937806129455566, 1.1201171875, -0.39208984375, 0.059814453125
469, 1681462122, -6.822012901306152, -1.0474399328231812, 7.026694297790527, -1.1791317462921143, -1.8187321424484253, -2.164875030517578, 1.120849609375, -0.396240234375, 0.0615234375
470, 1681478789, -6.8152899742126465, -1.062276840209961, 7.048973083496094, -0.654583752155304, -2.3914833068847656, -1.7300355434417725, 1.11767578125, -0.395263671875, 0.0625
471, 1681495456, -6.82573938369751, -1.0052809715270996, 7.0525126457214355, -0.4720292091369629, -2.629194974899292, -1.612229824066162, 1.119140625, -0.394775390625, 0.060302734375
472, 1681512123, -6.850214958190918, -0.9836891889572144, 7.089951992034912, -0.6538922190666199, -2.5127339363098145, -1.6980708837509155, 1.119873046875, -0.396728515625, 0.058837890625
473, 1681528790, -6.839842319488525, -0.9678661227226257, 7.102619647979736, -0.7887815833091736, -2.406147003173828, -1.7163199186325073, 1.11865234375, -0.397216796875, 0.057373046875
474, 1681545457, -6.836195945739746, -0.9572624564170837, 7.08989953994751, -1.0351629257202148, -2.0318427085876465, -1.9975473880767822, 1.11962890625, -0.397216796875, 0.058837890625
475, 1681562124, -6.826329231262207, -0.960736095905304, 7.060262680053711, -1.251436471939087, -1.745351791381836, -1.9795929193496704, 1.11962890625, -0.396240234375, 0.058837890625
476, 1681578791, -6.830721855163574, -0.9979242086410522, 7.050054550170898, -1.3275830745697021, -1.5883842706680298, -1.8442680835723877, 1.11767578125, -0.39794921875, 0.059814453125
477, 1681595458, -6.825483798980713, -0.9942491054534912, 7.065978050231934, -1.2474539279937744, -1.762973427772522, -1.5116487741470337, 1.119140625, -0.397705078125, 0.059814453125
478, 1681612125, -6.828317165374756, -0.9769386649131775, 7.080838680267334, -1.0253788232803345, -1.838889479637146, -1.2088555097579956, 1.1181640625, -0.39794921875, 0.058349609375
479, 1681628792, -6.833951473236084, -0.9587548971176147, 7.07538366317749, -0.8375865817070007, -2.077113389968872, -0.8423120975494385, 1.121337890625, -0.39794921875, 0.059326171875
480, 1681645459, -6.833031177520752, -0.9173671007156372, 7.098667144775391, -0.694475531578064, -2.1572041511535645, -0.6992394924163818, 1.120361328125, -0.3984375, 0.058349609375
481, 1681662126, -6.835790634155273, -0.891365110874176, 7.086056709289551, -0.8319901823997498, -2.0652801990509033, -0.9248746633529663, 1.120849609375, -0.39892578125, 0.060546875
482, 1681678793, -6.8454484939575195, -0.9003622531890869, 7.102906227111816, -1.027517557144165, -2.0759735107421875, -1.0937647819519043, 1.119140625, -0.397216796875, 0.060302734375
483, 1681695460, -6.830015659332275, -0.9090641140937805, 7.085790157318115, -1.316287875175476, -1.9052135944366455, -1.4578876495361328, 1.1171875, -0.39892578125, 0.059326171875
484, 1681712127, -6.8202972412109375, -0.9401459097862244, 7.091034889221191, -1.5335603952407837, -1.7343511581420898, -1.4901341199874878, 1.1181640625, -0.39990234375, 0.057861328125
485, 1681728794, -6.836602210998535, -0.9249080419540405, 7.053597927093506, -1.4530982971191406, -1.8772315979003906, -1.3571274280548096, 1.118896484375, -0.4013671875, 0.0546875
486, 1681745461, -6.825031280517578, -0.9590744972229004, 7.1039323806762695, -1.1206965446472168, -2.1703691482543945, -0.937719464302063, 1.120361328125, -0.40234375, 0.055908203125
487, 1681762128, -6.836199760437012, -0.9260867238044739, 7.096620082855225, -0.8166481256484985, -2.5152437686920166, -0.7593781352043152, 1.118408203125, -0.403076171875, 0.057861328125
488, 1681778795, -6.828665733337402, -0.8768087029457092, 7.097282886505127, -1.0687154531478882, -2.53778338432312, -0.9446347951889038, 1.119384765625, -0.40234375, 0.058837890625
489, 1681795462, -6.815255641937256, -0.9219332337379456, 7.087123870849609, -1.1377031803131104, -2.5748062133789062, -0.8591011762619019, 1.118896484375, -0.400390625, 0.056396484375
490, 1681812129, -6.819570064544678, -0.9276832938194275, 7.079783916473389, -1.1253288984298706, -3.1113717555999756, -0.8195187449455261, 1.120361328125, -0.4013671875, 0.055908203125
491, 1681828796, -6.796505928039551, -0.9073903560638428, 7.108785152435303, -0.8284555673599243, -3.365957260131836, -0.6145254969596863, 1.117919921875, -0.40234375, 0.055419921875
492, 1681845463, -6.796109199523926, -0.8768657445907593, 7.141336917877197, -0.9641517400741577, -3.266310930252075, -0.4979109764099121, 1.119873046875, -0.403564453125, 0.055908203125
493, 1681862130, -6.8126935958862305, -0.8317385911941528, 7.1287126541137695, -1.1727542877197266, -2.9253926277160645, -0.760197639465332, 1.116943359375, -0.404541015625, 0.056396484375
494, 1681878797, -6.799907684326172, -0.8279485702514648, 7.119075775146484, -1.3348956108093262, -2.653463125228882, -1.0226768255233765, 1.117431640625, -0.404052734375, 0.056884765625
495, 1681895464, -6.805656909942627, -0.8589157462120056, 7.114527702331543, -1.5721843242645264, -2.5381033420562744, -1.1315561532974243, 1.119384765625, -0.404541015625, 0.05078125
496, 1681912131, -6.807219982147217, -0.8787571787834167, 7.102902412414551, -1.482475996017456, -2.43660044670105, -1.1775439977645874, 1.119384765625, -0.404541015625, 0.05322265625
497, 1681928798, -6.789320945739746, -0.8730542063713074, 7.094443321228027, -1.4783074855804443, -2.4779200553894043, -1.0935535430908203, 1.120361328125, -0.407470703125, 0.05322265625
498, 1681945465, -6.776780605316162, -0.8686330318450928, 7.128384113311768, -1.4954487085342407, -2.473956346511841, -0.9988952279090881, 1.119384765625, -0.406494140625, 0.0537109375
499, 1681962132, -6.791717529296875, -0.8426761031150818, 7.134310722351074, -1.6610476970672607, -2.3162333965301514, -1.0880402326583862, 1.117431640625, -0.406982421875, 0.057861328125
500, 1681978799, -6.800503730773926, -0.8105824589729309, 7.131561756134033, -1.9097727537155151, -2.096886396408081, -1.1785686016082764, 1.117431640625, -0.407958984375, 0.055419921875
501, 1681995466, -6.781954288482666, -0.8226624727249146, 7.130049228668213, -2.059785842895508, -1.8828665018081665, -1.5213813781738281, 1.117919921875, -0.408203125, 0.0537109375
502, 1682012133, -6.786740303039551, -0.8384321928024292, 7.1298909187316895, -2.0657413005828857, -1.587052583694458, -1.5388749837875366, 1.117919921875, -0.406982421875, 0.05419921875
503, 1682028800, -6.80233907699585, -0.8180642127990723, 7.135861873626709, -2.1060683727264404, -1.3735066652297974, -1.579573631286621, 1.117919921875, -0.406982421875, 0.05322265625
504, 1682045467, -6.785830020904541, -0.8277389407157898, 7.122386455535889, -2.1756322383880615, -1.125511646270752, -1.743494987487793, 1.117431640625, -0.406005859375, 0.05322265625
505, 1682062134, -6.799692153930664, -0.8259487748146057, 7.121603488922119, -2.226127862930298, -1.1502151489257812, -1.800649881362915, 1.116455078125, -0.40869140625, 0.05224609375
506, 1682078801, -6.803224563598633, -0.8260296583175659, 7.119828224182129, -2.3934555053710938, -1.289343237876892, -1.9160348176956177, 1.117919921875, -0.408203125, 0.054443359375
507, 1682095468, -6.8106207847595215, -0.8307406902313232, 7.125543117523193, -2.386911392211914, -1.3006513118743896, -2.1512489318847656, 1.118896484375, -0.407470703125, 0.055419921875
508, 1682112135, -6.793768882751465, -0.8394407629966736, 7.12816047668457, -2.4596898555755615, -1.3875935077667236, -2.1397361755371094, 1.116943359375, -0.407470703125, 0.05224609375
509, 1682128802, -6.795871257781982, -0.8224279880523682, 7.125425338745117, -2.5713484287261963, -1.340517520904541, -2.2176246643066406, 1.119384765625, -0.407470703125, 0.05224609375
510, 1682145469, -6.792342662811279, -0.8154577612876892, 7.12287712097168, -2.6645665168762207, -1.2916613817214966, -2.427879571914673, 1.117919921875, -0.407470703125, 0.0537109375
511, 1682162136, -6.804663181304932, -0.8077533841133118, 7.133330821990967, -2.9130859375, -1.1398802995681763, -2.7479865550994873, 1.118896484375, -0.408203125, 0.053955078125
512, 1682178803, -6.801782131195068, -0.8156997561454773, 7.1413140296936035, -3.0954225063323975, -0.8535304069519043, -2.955641508102417, 1.118408203125, -0.408203125, 0.05322265625
513, 1682195470, -6.815018177032471, -0.8571298122406006, 7.100602626800537, -3.1076786518096924, -1.0259552001953125, -2.9896936416625977, 1.117431640625, -0.407958984375, 0.05419921875
514, 1682212137, -6.807104587554932, -0.860674262046814, 7.0918073654174805, -2.9806652069091797, -1.1513932943344116, -2.804462432861328, 1.119384765625, -0.406005859375, 0.054443359375
515, 1682228804, -6.805305004119873, -0.8328043222427368, 7.089192867279053, -2.7847533226013184, -1.2310487031936646, -2.8015425205230713, 1.119873046875, -0.407958984375, 0.052734375
516, 1682245471, -6.8166584968566895, -0.8455159664154053, 7.134668350219727, -2.6991686820983887, -1.2733224630355835, -2.9018163681030273, 1.117431640625, -0.407958984375, 0.05322265625
517, 1682262138, -6.804929256439209, -0.8535124659538269, 7.1226325035095215, -2.6925477981567383, -1.2370549440383911, -2.9011762142181396, 1.118408203125, -0.407470703125, 0.054443359375
518, 1682278805, -6.7826666831970215, -0.85924232006073, 7.109362602233887, -2.7392523288726807, -1.2910336256027222, -2.8565714359283447, 1.11572265625, -0.407470703125, 0.054931640625
519, 1682295472, -6.822327136993408, -0.8647465705871582, 7.11026668548584, -2.639017105102539, -1.3194893598556519, -2.856443405151367, 1.118408203125, -0.406494140625, 0.055419921875
520, 1682312139, -6.793013572692871, -0.8542373180389404, 7.127326011657715, -2.6505043506622314, -1.3858391046524048, -2.8835158348083496, 1.119873046875, -0.406494140625, 0.055419921875
521, 1682328806, -6.808497905731201, -0.8561382293701172, 7.132666110992432, -2.679075241088867, -1.3101919889450073, -2.901944160461426, 1.117919921875, -0.406494140625, 0.05224609375
522, 1682345473, -6.796458721160889, -0.8926554918289185, 7.124121189117432, -2.676398992538452, -1.3066446781158447, -2.791937828063965, 1.118896484375, -0.406005859375, 0.053955078125
523, 1682362140, -6.803691387176514, -0.8814924955368042, 7.096010684967041, -2.5788793563842773, -1.4613711833953857, -2.6422834396362305, 1.119384765625, -0.406005859375, 0.055419921875
524, 1682378807, -6.806056022644043, -0.8778511881828308, 7.12945556640625, -2.507380962371826, -1.4945396184921265, -2.555469274520874, 1.116943359375, -0.405517578125, 0.057373046875
525, 1682395474, -6.79488468170166, -0.860660970211029, 7.1249775886535645, -2.43770170211792, -1.5327154397964478, -2.528447389602661, 1.118408203125, -0.405029296875, 0.058349609375
526, 1682412141, -6.812779426574707, -0.8531122803688049, 7.136585235595703, -2.5477349758148193, -1.4536001682281494, -2.473167896270752, 1.118408203125, -0.403564453125, 0.054443359375
527, 1682428808, -6.8066864013671875, -0.8546882271766663, 7.12340784072876, -2.6566648483276367, -1.318490743637085, -2.644601345062256, 1.117431640625, -0.405517578125, 0.05419921875
528, 1682445475, -6.7986626625061035, -0.8524497151374817, 7.138050079345703, -2.77992582321167, -1.2132225036621094, -2.6173620223999023, 1.120361328125, -0.403564453125, 0.0537109375
529, 1682462142, -6.814988613128662, -0.8743075132369995, 7.111028671264648, -2.6875410079956055, -1.2356593608856201, -2.6341769695281982, 1.120361328125, -0.404541015625, 0.056396484375
530, 1682478809, -6.817084312438965, -0.8682452440261841, 7.121460914611816, -2.5965776443481445, -1.4276777505874634, -2.6923434734344482, 1.119384765625, -0.40283203125, 0.055908203125
531, 1682495476, -6.803541660308838, -0.8845576643943787, 7.1387176513671875, -2.4942545890808105, -1.5608893632888794, -2.5755367279052734, 1.117919921875, -0.405029296875, 0.05419921875
532, 1682512143, -6.797182559967041, -0.8421244025230408, 7.121097087860107, -2.506331205368042, -1.4795690774917603, -2.5870752334594727, 1.117431640625, -0.405517578125, 0.0546875
533, 1682528810, -6.810781478881836, -0.8564357757568359, 7.133414268493652, -2.6296560764312744, -1.4305461645126343, -2.6490962505340576, 1.120361328125, -0.403076171875, 0.053955078125
534, 1682545477, -6.807905197143555, -0.865888237953186, 7.114908695220947, -2.6106772422790527, -1.4429172277450562, -2.7509453296661377, 1.119873046875, -0.405029296875, 0.0537109375
535, 1682562144, -6.798534393310547, -0.8838179111480713, 7.110749244689941, -2.5885095596313477, -1.475791096687317, -2.751214027404785, 1.118408203125, -0.405029296875, 0.055908203125
536, 1682578811, -6.792601585388184, -0.8809936046600342, 7.10178804397583, -2.474801778793335, -1.322473406791687, -2.8608620166778564, 1.117919921875, -0.404052734375, 0.056884765625
537, 1682595478, -6.813223838806152, -0.8639416098594666, 7.094564914703369, -2.4043025970458984, -1.0884758234024048, -2.8133761882781982, 1.119873046875, -0.404052734375, 0.056884765625
538, 1682612145, -6.822242736816406, -0.8544058799743652, 7.114254951477051, -2.465555429458618, -1.4189308881759644, -3.16406512260437, 1.117919921875, -0.403564453125, 0.05419921875
539, 1682628812, -6.808955192565918, -0.8590907454490662, 7.1008734703063965, -2.6582911014556885, -1.5894858837127686, -3.4429237842559814, 1.118408203125, -0.403076171875, 0.0546875
540, 1682645479, -6.807079792022705, -0.8635270595550537, 7.148672580718994, -2.8664326667785645, -1.5443689823150635, -3.599083662033081, 1.119384765625, -0.403564453125, 0.055419921875
541, 1682662146, -6.806262493133545, -0.9079647064208984, 7.131711483001709, -3.0896599292755127, -1.1405463218688965, -3.548729419708252, 1.118896484375, -0.40234375, 0.056396484375
542, 1682678813, -6.816805362701416, -0.9170730113983154, 7.138583183288574, -3.2126519680023193, -0.9863833785057068, -3.4578423500061035, 1.119384765625, -0.40185546875, 0.055419921875
543, 1682695480, -6.80930757522583, -0.8950653076171875, 7.116928577423096, -3.2242038249969482, -0.9174469113349915, -3.172530174255371, 1.11767578125, -0.40185546875, 0.055419921875
544, 1682712147, -6.808884620666504, -0.9371169209480286, 7.10565710067749, -2.9033913612365723, -1.1825255155563354, -2.813990354537964, 1.118896484375, -0.4013671875, 0.05322265625
545, 1682728814, -6.8064351081848145, -0.9128434062004089, 7.105557918548584, -2.5641517639160156, -1.5419743061065674, -2.470614194869995, 1.119873046875, -0.4013671875, 0.05419921875
546, 1682745481, -6.808710098266602, -0.89717036485672, 7.1177449226379395, -2.3563685417175293, -1.672714352607727, -2.2669289112091064, 1.120361328125, -0.40087890625, 0.05419921875
547, 1682762148, -6.807066917419434, -0.8887258172035217, 7.129780292510986, -2.341794729232788, -1.599218726158142, -2.3103678226470947, 1.120849609375, -0.40234375, 0.053955078125
548, 1682778815, -6.814933776855469, -0.8776805400848389, 7.124021530151367, -2.50852108001709, -1.5092029571533203, -2.497251510620117, 1.118896484375, -0.40185546875, 0.056396484375
549, 1682795482, -6.823253154754639, -0.9110314846038818, 7.117615699768066, -2.673351764678955, -1.4887382984161377, -2.509289264678955, 1.11767578125, -0.40087890625, 0.05419921875
550, 1682812149, -6.803919315338135, -0.9075678586959839, 7.095584869384766, -2.5396788120269775, -1.5831724405288696, -2.528050661087036, 1.119873046875, -0.40234375, 0.057373046875
551, 1682828816, -6.8186469078063965, -0.9220531582832336, 7.096800804138184, -2.428583860397339, -1.7563271522521973, -2.380905866622925, 1.121337890625, -0.4013671875, 0.053955078125
552, 1682845483, -6.808851718902588, -0.9092631936073303, 7.119812965393066, -2.359287977218628, -1.8018276691436768, -2.2617805004119873, 1.119873046875, -0.40185546875, 0.054443359375
553, 1682862150, -6.7967143058776855, -0.8893052935600281, 7.112242221832275, -2.2240147590637207, -1.8071810007095337, -2.241853952407837, 1.11767578125, -0.40185546875, 0.056884765625
554, 1682878817, -6.798529624938965, -0.8879342675209045, 7.115123748779297, -2.3029403686523438, -1.7348891496658325, -2.354806423187256, 1.117919921875, -0.40234375, 0.056884765625
555, 1682895484, -6.801915168762207, -0.9023686051368713, 7.100205898284912, -2.3710317611694336, -1.6040979623794556, -2.3460209369659424, 1.118408203125, -0.4013671875, 0.056396484375
556, 1682912151, -6.803755283355713, -0.8995075821876526, 7.134337902069092, -2.4085419178009033, -1.6811280250549316, -2.33630108833313, 1.119384765625, -0.40234375, 0.05419921875
557, 1682928818, -6.809287071228027, -0.913152813911438, 7.117890357971191, -2.4896955490112305, -1.388515830039978, -2.4261631965637207, 1.118408203125, -0.40087890625, 0.055419921875
558, 1682945485, -6.817310810089111, -0.890214741230011, 7.132793426513672, -2.7169315814971924, -1.1937313079833984, -2.5566859245300293, 1.119384765625, -0.40087890625, 0.056396484375
559, 1682962152, -6.804879665374756, -0.8968977928161621, 7.12266731262207, -2.8598241806030273, -1.0984902381896973, -2.8243377208709717, 1.119140625, -0.3984375, 0.05517578125
560, 1682978819, -6.813554286956787, -0.9012669920921326, 7.10690975189209, -2.9353561401367188, -0.9736283421516418, -2.8054616451263428, 1.118408203125, -0.4013671875, 0.056884765625
561, 1682995486, -6.8021931648254395, -0.918720006942749, 7.082535743713379, -2.761049270629883, -1.1345146894454956, -2.62668514251709, 1.1181640625, -0.40087890625, 0.055908203125
562, 1683012153, -6.797977447509766, -0.9396556615829468, 7.084787368774414, -2.455918312072754, -1.261298656463623, -2.3824398517608643, 1.118896484375, -0.39990234375, 0.055419921875
563, 1683028820, -6.80723237991333, -0.9118186831474304, 7.109773635864258, -2.3112003803253174, -1.4569910764694214, -2.0746796131134033, 1.11865234375, -0.39990234375, 0.056396484375
564, 1683045487, -6.816359043121338, -0.9130764603614807, 7.102273941040039, -2.256965398788452, -1.6058777570724487, -2.0669193267822266, 1.11767578125, -0.39892578125, 0.0537109375
565, 1683062154, -6.810601711273193, -0.8983154296875, 7.116057395935059, -2.1513516902923584, -1.599820613861084, -2.0211238861083984, 1.118408203125, -0.40283203125, 0.056884765625
566, 1683078821, -6.813035488128662, -0.8967393636703491, 7.10720157623291, -2.0985255241394043, -1.5868476629257202, -1.8189500570297241, 1.118896484375, -0.39990234375, 0.057373046875
567, 1683095488, -6.799556255340576, -0.9208009243011475, 7.090091228485107, -1.9559139013290405, -1.179490327835083, -1.7031675577163696, 1.11865234375, -0.39892578125, 0.055908203125
568, 1683112155, -6.818307876586914, -0.8995026350021362, 7.1192803382873535, -1.9850353002548218, -1.1372421979904175, -1.671971321105957, 1.1181640625, -0.3994140625, 0.058837890625
569, 1683128822, -6.805066108703613, -0.9058363437652588, 7.12410831451416, -1.9463988542556763, -1.172062873840332, -1.7157692909240723, 1.118896484375, -0.4013671875, 0.055908203125
570, 1683145489, -6.8187103271484375, -0.9116249680519104, 7.111081123352051, -1.9717680215835571, -1.3007537126541138, -1.6763254404067993, 1.121337890625, -0.40185546875, 0.054931640625
571, 1683162156, -6.806785583496094, -0.8861505389213562, 7.124518394470215, -1.9167007207870483, -1.4168431758880615, -1.5942367315292358, 1.119384765625, -0.40234375, 0.055908203125
572, 1683178823, -6.814289569854736, -0.8922999501228333, 7.106826305389404, -1.9480252265930176, -1.5044516324996948, -1.5562915802001953, 1.1181640625, -0.40185546875, 0.055419921875
573, 1683195490, -6.814756393432617, -0.8974713683128357, 7.102232933044434, -1.9557346105575562, -1.7922101020812988, -1.4480268955230713, 1.117919921875, -0.404052734375, 0.057373046875
574, 1683212157, -6.804750442504883, -0.8971840739250183, 7.102938175201416, -1.776816964149475, -1.9732022285461426, -1.4191228151321411, 1.119384765625, -0.39892578125, 0.055908203125
575, 1683228824, -6.816496849060059, -0.894866943359375, 7.100978374481201, -1.7457488775253296, -2.072746515274048, -1.424501657485962, 1.1171875, -0.4013671875, 0.055419921875
576, 1683245491, -6.792659282684326, -0.874370813369751, 7.125462055206299, -1.756698489189148, -2.109936237335205, -1.3707278966903687, 1.118896484375, -0.404541015625, 0.056396484375
577, 1683262158, -6.816779613494873, -0.8727877736091614, 7.095105171203613, -1.7497445344924927, -2.100062370300293, -1.3590739965438843, 1.117919921875, -0.403564453125, 0.055419921875
578, 1683278825, -6.812685012817383, -0.8610928654670715, 7.105917453765869, -1.7379882335662842, -2.093569040298462, -1.4722309112548828, 1.118408203125, -0.40234375, 0.054931640625
579, 1683295492, -6.796119689941406, -0.8720366358757019, 7.118628978729248, -1.7593106031417847, -1.9378055334091187, -1.5076916217803955, 1.118896484375, -0.406005859375, 0.056396484375
580, 1683312159, -6.800609588623047, -0.8763272166252136, 7.11654806137085, -1.7760611772537231, -1.9171487092971802, -1.3969550132751465, 1.118408203125, -0.403076171875, 0.054931640625
581, 1683328826, -6.8136820793151855, -0.8708319664001465, 7.111952304840088, -1.6518205404281616, -1.8960633277893066, -1.4166446924209595, 1.118896484375, -0.403076171875, 0.054443359375
582, 1683345493, -6.79508638381958, -0.8623215556144714, 7.102095603942871, -1.6897209882736206, -1.8015587329864502, -1.4041392803192139, 1.118896484375, -0.403076171875, 0.055419921875
583, 1683362160, -6.805071830749512, -0.8411567211151123, 7.135519504547119, -1.7382441759109497, -1.7143733501434326, -1.5536023378372192, 1.120361328125, -0.406005859375, 0.053955078125
584, 1683378827, -6.809495449066162, -0.8410309553146362, 7.1237030029296875, -1.9940129518508911, -1.5609533786773682, -1.6683601140975952, 1.11669921875, -0.405517578125, 0.057373046875
585, 1683395494, -6.804793834686279, -0.8581496477127075, 7.1232171058654785, -2.0260350704193115, -1.4370837211608887, -1.6417677402496338, 1.118408203125, -0.406982421875, 0.054931640625
586, 1683412161, -6.80660343170166, -0.8433955907821655, 7.128989219665527, -1.998161792755127, -1.2907519340515137, -1.632899284362793, 1.118408203125, -0.405029296875, 0.054443359375
587, 1683428828, -6.816295623779297, -0.8335161209106445, 7.102621555328369, -1.9623810052871704, -1.3674620389938354, -1.639904260635376, 1.119384765625, -0.404541015625, 0.055419921875
588, 1683445495, -6.810452461242676, -0.8609994053840637, 7.108281135559082, -1.793734073638916, -1.617275357246399, -1.5984501838684082, 1.119873046875, -0.406005859375, 0.05322265625
589, 1683462162, -6.8187713623046875, -0.8223010897636414, 7.129486083984375, -1.8355598449707031, -1.7899434566497803, -1.5174756050109863, 1.118896484375, -0.405517578125, 0.055419921875
590, 1683478829, -6.7983784675598145, -0.8467065691947937, 7.129027843475342, -1.8902426958084106, -1.608989953994751, -1.6323744058609009, 1.117919921875, -0.407470703125, 0.056884765625
591, 1683495496, -6.809648036956787, -0.8324370980262756, 7.1230549812316895, -2.0187673568725586, -1.4477962255477905, -1.7803258895874023, 1.117919921875, -0.406494140625, 0.055908203125
592, 1683512163, -6.8042097091674805, -0.8301487565040588, 7.115079879760742, -2.1893093585968018, -1.2954902648925781, -1.9624704122543335, 1.119873046875, -0.407958984375, 0.054931640625
593, 1683528830, -6.817901134490967, -0.8314953446388245, 7.123231410980225, -2.264188051223755, -1.362851619720459, -2.1350104808807373, 1.119384765625, -0.405029296875, 0.05322265625
594, 1683545497, -6.805988788604736, -0.8604708909988403, 7.122035980224609, -2.297484874725342, -1.5284252166748047, -2.084310293197632, 1.119384765625, -0.407958984375, 0.055419921875
595, 1683562164, -6.809240818023682, -0.8420331478118896, 7.138940811157227, -2.2691829204559326, -1.2656772136688232, -1.9371525049209595, 1.117919921875, -0.407958984375, 0.055419921875
596, 1683578831, -6.796386241912842, -0.8169771432876587, 7.119591236114502, -2.407555341720581, -1.1025370359420776, -2.16569447517395, 1.118896484375, -0.405517578125, 0.057373046875
597, 1683595498, -6.795541763305664, -0.8283748626708984, 7.093137264251709, -2.422666311264038, -1.1013203859329224, -2.231250047683716, 1.118896484375, -0.407958984375, 0.055908203125
598, 1683612165, -6.823235511779785, -0.8779946565628052, 7.113542079925537, -2.415132761001587, -1.2619389295578003, -2.188525438308716, 1.117919921875, -0.407470703125, 0.054931640625
599, 1683628832, -6.828187465667725, -0.8405535817146301, 7.098010063171387, -2.254122257232666, -1.491043210029602, -2.1041343212127686, 1.120361328125, -0.404052734375, 0.055419921875
600, 1683645499, -6.812953948974609, -0.8396397233009338, 7.125261306762695, -2.332253932952881, -1.4950772523880005, -2.1098079681396484, 1.119873046875, -0.406494140625, 0.05322265625
601, 1683662166, -6.802944183349609, -0.8280192017555237, 7.140997409820557, -2.3307430744171143, -1.6141892671585083, -2.1696648597717285, 1.117431640625, -0.406982421875, 0.055908203125
602, 1683678833, -6.81097936630249, -0.8211407661437988, 7.111112594604492, -2.380636215209961, -1.5803803205490112, -2.2328765392303467, 1.118896484375, -0.408203125, 0.056884765625
603, 1683695500, -6.810746669769287, -0.8461470603942871, 7.117860317230225, -2.4404680728912354, -1.5630918741226196, -2.441389799118042, 1.118896484375, -0.406005859375, 0.057373046875
604, 1683712167, -6.817134380340576, -0.8543518781661987, 7.105741024017334, -2.49969744682312, -1.5980279445648193, -2.451852798461914, 1.119873046875, -0.407470703125, 0.053466796875
605, 1683728834, -6.820269584655762, -0.8458566069602966, 7.117114543914795, -2.533134698867798, -1.5579309463500977, -2.477055549621582, 1.119873046875, -0.406982421875, 0.053955078125
606, 1683745501, -6.815005302429199, -0.8545660376548767, 7.123806476593018, -2.5443532466888428, -1.5884615182876587, -2.400486707687378, 1.121826171875, -0.406005859375, 0.055419921875
607, 1683762168, -6.802770614624023, -0.8403546810150146, 7.106444835662842, -2.4394690990448, -1.5654611587524414, -2.378779411315918, 1.119873046875, -0.406494140625, 0.056396484375
608, 1683778835, -6.802407264709473, -0.8471108078956604, 7.1323957443237305, -2.4007680416107178, -1.6097583770751953, -2.3606200218200684, 1.118896484375, -0.40966796875, 0.056396484375
609, 1683795502, -6.8061442375183105, -0.8464159369468689, 7.125277996063232, -2.4334628582000732, -1.5766794681549072, -2.351719856262207, 1.117919921875, -0.408203125, 0.057373046875
610, 1683812169, -6.804222583770752, -0.827796995639801, 7.123110771179199, -2.421450138092041, -1.5996410846710205, -2.433065414428711, 1.117919921875, -0.406982421875, 0.057373046875
611, 1683828836, -6.806848526000977, -0.8471283912658691, 7.121086120605469, -2.4550414085388184, -1.5268115997314453, -2.3812639713287354, 1.119873046875, -0.406982421875, 0.053955078125
612, 1683845503, -6.805904388427734, -0.8511664867401123, 7.107858180999756, -2.390087366104126, -1.5365058183670044, -2.291414499282837, 1.119873046875, -0.406494140625, 0.053955078125
613, 1683862170, -6.814388275146484, -0.8324105143547058, 7.1176276206970215, -2.539614200592041, -1.5282840728759766, -2.296255111694336, 1.118896484375, -0.407470703125, 0.056884765625
614, 1683878837, -6.812152862548828, -0.8268873691558838, 7.113023281097412, -2.561347246170044, -1.479338526725769, -2.505268096923828, 1.118896484375, -0.405517578125, 0.055908203125
615, 1683895504, -6.808232307434082, -0.8413949608802795, 7.128973484039307, -2.7204532623291016, -1.3322832584381104, -2.6595847606658936, 1.118408203125, -0.406982421875, 0.054931640625
616, 1683912171, -6.808014869689941, -0.8447428345680237, 7.1177568435668945, -2.650902032852173, -1.4533416032791138, -2.6426162719726562, 1.117431640625, -0.405029296875, 0.0546875
617, 1683928838, -6.8116302490234375, -0.8353884220123291, 7.132240295410156, -2.6894617080688477, -1.4186748266220093, -2.700437068939209, 1.116943359375, -0.406005859375, 0.055419921875
618, 1683945505, -6.8236284255981445, -0.8423871397972107, 7.114243030548096, -2.809828042984009, -1.3098077774047852, -2.760613441467285, 1.119873046875, -0.404541015625, 0.05322265625
619, 1683962172, -6.818408012390137, -0.8512147068977356, 7.1303863525390625, -2.7046756744384766, -1.3758119344711304, -2.679511308670044, 1.118896484375, -0.404052734375, 0.055908203125
620, 1683978839, -6.802623271942139, -0.8662432432174683, 7.113509654998779, -2.563882827758789, -1.5141462087631226, -2.5370922088623047, 1.115966796875, -0.407470703125, 0.0546875
621, 1683995506, -6.806169033050537, -0.8616062998771667, 7.141916751861572, -2.392584800720215, -1.5478650331497192, -2.4065566062927246, 1.119384765625, -0.404541015625, 0.054931640625
622, 1684012173, -6.805759429931641, -0.8526760339736938, 7.124292850494385, -2.352372646331787, -1.4537510871887207, -2.277186632156372, 1.118896484375, -0.404052734375, 0.054931640625
623, 1684028840, -6.794256687164307, -0.8530223369598389, 7.112938404083252, -2.4505465030670166, -1.4333380460739136, -2.328962802886963, 1.119384765625, -0.406494140625, 0.053955078125
624, 1684045507, -6.7972636222839355, -0.8473308682441711, 7.127588748931885, -2.4896953105926514, -1.281198501586914, -2.3741180896759033, 1.118408203125, -0.406005859375, 0.055908203125
625, 1684062174, -6.809163570404053, -0.8640745878219604, 7.117799282073975, -2.448906898498535, -1.4140897989273071, -2.3042335510253906, 1.117919921875, -0.407470703125, 0.054931640625
626, 1684078841, -6.817203998565674, -0.8607205152511597, 7.131504058837891, -2.4314522743225098, -1.5027868747711182, -2.2426095008850098, 1.117431640625, -0.406005859375, 0.055419921875
627, 1684095508, -6.796740531921387, -0.8627556562423706, 7.125800132751465, -2.4232561588287354, -1.624754548072815, -2.2535462379455566, 1.119384765625, -0.407958984375, 0.055419921875
628, 1684112175, -6.811437606811523, -0.8382464647293091, 7.1301398277282715, -2.4379830360412598, -1.4885845184326172, -2.349273681640625, 1.119873046875, -0.404541015625, 0.055419921875
629, 1684128842, -6.8066511154174805, -0.8381354212760925, 7.144320011138916, -2.488978385925293, -1.2789702415466309, -2.4319005012512207, 1.119873046875, -0.406494140625, 0.0537109375
630, 1684145509, -6.830109596252441, -0.8648408651351929, 7.114346504211426, -2.454669952392578, -1.294722080230713, -2.37534761428833, 1.120361328125, -0.405517578125, 0.055419921875
631, 1684162176, -6.816603660583496, -0.8604455590248108, 7.110456943511963, -2.3727352619171143, -1.4846144914627075, -2.3119561672210693, 1.120849609375, -0.407470703125, 0.054931640625
632, 1684178843, -6.8255205154418945, -0.8530289530754089, 7.118242263793945, -2.3380939960479736, -1.5798425674438477, -2.207648515701294, 1.118408203125, -0.406005859375, 0.055908203125
633, 1684195510, -6.815397262573242, -0.8597903251647949, 7.084749221801758, -2.2916452884674072, -1.7140403985977173, -2.2425711154937744, 1.119384765625, -0.406982421875, 0.056396484375
634, 1684212177, -6.8167901039123535, -0.8589250445365906, 7.106145858764648, -2.3430886268615723, -1.6369503736495972, -2.253500461578369, 1.118896484375, -0.406005859375, 0.055908203125
635, 1684228844, -6.810558319091797, -0.8305417895317078, 7.111212253570557, -2.3613502979278564, -1.572427749633789, -2.25732421875, 1.119873046875, -0.406005859375, 0.054931640625
636, 1684245511, -6.802151679992676, -0.8499132990837097, 7.128082752227783, -2.3877055644989014, -1.5259791612625122, -2.3052453994750977, 1.119873046875, -0.406982421875, 0.054443359375
637, 1684262178, -6.805501461029053, -0.8417305946350098, 7.143167972564697, -2.4005374908447266, -1.501979947090149, -2.1729562282562256, 1.117431640625, -0.405517578125, 0.0546875
638, 1684278845, -6.813418865203857, -0.8430366516113281, 7.111450672149658, -2.3825831413269043, -1.4384347200393677, -2.1806395053863525, 1.118408203125, -0.40283203125, 0.055908203125
639, 1684295512, -6.824763774871826, -0.8541424870491028, 7.1032023429870605, -2.393545150756836, -1.3000880479812622, -2.2174837589263916, 1.119384765625, -0.404541015625, 0.054443359375
640, 1684312179, -6.806071758270264, -0.8560057282447815, 7.098491668701172, -2.356137752532959, -1.3867355585098267, -2.2268192768096924, 1.120361328125, -0.405029296875, 0.055419921875
641, 1684328846, -6.814371585845947, -0.8511193990707397, 7.12336540222168, -2.349299192428589, -1.5366469621658325, -2.224616765975952, 1.119873046875, -0.405029296875, 0.0537109375
642, 1684345513, -6.817470073699951, -0.8455915451049805, 7.130376815795898, -2.3654866218566895, -1.3500326871871948, -2.226947546005249, 1.120361328125, -0.406005859375, 0.055908203125
643, 1684362180, -6.810141086578369, -0.8415920734405518, 7.130217552185059, -2.4901180267333984, -1.2785605192184448, -2.269106149673462, 1.118896484375, -0.407470703125, 0.055419921875
644, 1684378847, -6.805563449859619, -0.8620538115501404, 7.119376182556152, -2.4551055431365967, -1.4037295579910278, -2.2401506900787354, 1.118408203125, -0.404541015625, 0.057373046875
645, 1684395514, -6.81053352355957, -0.8506661653518677, 7.1230950355529785, -2.3186278343200684, -1.4612172842025757, -2.347198724746704, 1.117919921875, -0.406005859375, 0.055419921875
646, 1684412181, -6.814728260040283, -0.8545787930488586, 7.1242899894714355, -2.4236655235290527, -1.328927755355835, -2.1659252643585205, 1.120849609375, -0.404541015625, 0.055908203125
647, 1684428848, -6.811185359954834, -0.8441151976585388, 7.113106727600098, -2.3868606090545654, -1.3893994092941284, -2.1871068477630615, 1.119873046875, -0.404541015625, 0.055908203125
648, 1684445515, -6.817966938018799, -0.849952757358551, 7.1126885414123535, -2.3883841037750244, -1.5202546119689941, -2.346737861633301, 1.119873046875, -0.406494140625, 0.054931640625
649, 1684462182, -6.813512325286865, -0.8582576513290405, 7.11780309677124, -2.3787219524383545, -1.5946786403656006, -2.3145363330841064, 1.117919921875, -0.406494140625, 0.056884765625
650, 1684478849, -6.813021183013916, -0.8490587472915649, 7.1316070556640625, -2.3937501907348633, -1.5200114250183105, -2.2521374225616455, 1.119873046875, -0.406494140625, 0.057373046875
651, 1684495516, -6.819286346435547, -0.8544479012489319, 7.139504909515381, -2.543827772140503, -1.545239806175232, -2.2992522716522217, 1.117431640625, -0.405517578125, 0.054931640625
652, 1684512183, -6.812160015106201, -0.8573226928710938, 7.121253967285156, -2.460740327835083, -1.5746815204620361, -2.3456881046295166, 1.117919921875, -0.406494140625, 0.05224609375
653, 1684528850, -6.80456018447876, -0.8729652166366577, 7.127431392669678, -2.4251129627227783, -1.7036927938461304, -2.356496572494507, 1.12158203125, -0.407470703125, 0.056396484375
