sep=,
DeviceTag:,B,,,,,,,,,,,,,,,,,
FirmwareVersion:,2.2.1,,,,,,,,,,,,,,,,,
AppVersion:,2023.6.1,,,,,,,,,,,,,,,,,
SyncStatus:,Synced,,,,,,,,,,,,,,,,,
OutputRate:,60Hz,,,,,,,,,,,,,,,,,
FilterProfile:,General,,,,,,,,,,,,,,,,,
Measurement Mode:,Inertial Mode - Rate quantities (with mag),,,,,,,,,,,,,,,,,
StartTime:,2023-12-07 12:53:54.983 +0200,,,,,,,,,,,,,,,,,
 2023,,,,,,,,,,,,,,,,,,,

PacketCounter,SampleTimeFine,Acc_X,Acc_Y,Acc_Z,Gyr_X,Gyr_Y,Gyr_Z,Mag_X,Mag_Y,Mag_Z
1, 1673678633, -6.345794677734375, 1.7932738065719604, 7.073448181152344, -0.1148601546883583, -0.8502904772758484, -1.196561336517334, 0.603759765625, 0.186279296875, -0.700439453125
2, 1673695300, -6.3567657470703125, 1.7903412580490112, 7.051212787628174, -0.26770392060279846, -0.9477723240852356, -1.2286155223846436, 0.606201171875, 0.18798828125, -0.701416015625
3, 1673711967, -6.343363285064697, 1.7998263835906982, 7.074000835418701, -0.22467459738254547, -1.059443712234497, -1.2872815132141113, 0.60107421875, 0.187255859375, -0.700927734375
4, 1673728634, -6.333426475524902, 1.7984411716461182, 7.077300071716309, -0.17670200765132904, -1.0773597955703735, -1.1882628202438354, 0.6044921875, 0.187744140625, -0.700927734375
5, 1673745301, -6.345990180969238, 1.7893731594085693, 7.0602946281433105, -0.1553538292646408, -1.0340359210968018, -1.1389583349227905, 0.6005859375, 0.186767578125, -0.700927734375
6, 1673761968, -6.345701694488525, 1.7729586362838745, 7.08815860748291, -0.07930973172187805, -1.0265185832977295, -1.0768731832504272, 0.599609375, 0.187744140625, -0.700439453125
7, 1673778635, -6.341222763061523, 1.800074577331543, 7.071661949157715, -0.0707935020327568, -1.1218746900558472, -1.0251611471176147, 0.6025390625, 0.185791015625, -0.700927734375
8, 1673795302, -6.333409786224365, 1.778132677078247, 7.0725417137146, -0.14628693461418152, -1.093828797340393, -0.9696713089942932, 0.6005859375, 0.184814453125, -0.701416015625
9, 1673811969, -6.349815368652344, 1.7807637453079224, 7.065702438354492, -0.14665831625461578, -1.1461683511734009, -1.0127516984939575, 0.60205078125, 0.186767578125, -0.700439453125
10, 1673828636, -6.348426342010498, 1.7990361452102661, 7.081075668334961, -0.18185016512870789, -1.1731641292572021, -1.0401700735092163, 0.6005859375, 0.186767578125, -0.700439453125
11, 1673845303, -6.348191261291504, 1.8054916858673096, 7.058802604675293, -0.16397249698638916, -1.1944738626480103, -1.041271448135376, 0.60107421875, 0.187744140625, -0.699462890625
12, 1673861970, -6.331319332122803, 1.7918037176132202, 7.085147380828857, -0.11519312858581543, -1.165339469909668, -0.9903407096862793, 0.60107421875, 0.186767578125, -0.701416015625
13, 1673878637, -6.331948280334473, 1.789000153541565, 7.10250997543335, -0.11315689235925674, -1.1414554119110107, -1.0222667455673218, 0.6015625, 0.187255859375, -0.703125
14, 1673895304, -6.328033447265625, 1.7946759462356567, 7.07757043838501, -0.12404230982065201, -1.0523362159729004, -1.025635004043579, 0.60205078125, 0.184814453125, -0.700439453125
15, 1673911971, -6.333370208740234, 1.8035157918930054, 7.079654216766357, -0.1000560075044632, -1.1583470106124878, -1.1059179306030273, 0.6005859375, 0.185791015625, -0.703125
16, 1673928638, -6.330931663513184, 1.8133432865142822, 7.0798845291137695, -0.16251258552074432, -1.0474313497543335, -1.086260199546814, 0.6005859375, 0.187255859375, -0.70263671875
17, 1673945305, -6.332437038421631, 1.8093270063400269, 7.076354026794434, 0.01916470192372799, -0.8681167960166931, -1.1219643354415894, 0.6005859375, 0.187255859375, -0.700927734375
18, 1673961972, -6.337143421173096, 1.7977961301803589, 7.086140155792236, -0.028430094942450523, -0.7818276286125183, -0.9953734874725342, 0.599609375, 0.186279296875, -0.701171875
19, 1673978639, -6.32785177230835, 1.814714789390564, 7.075048923492432, -0.03572971373796463, -0.7376841902732849, -1.0841727256774902, 0.6005859375, 0.18408203125, -0.7021484375
20, 1673995306, -6.318065166473389, 1.8059709072113037, 7.084081172943115, 0.030434289947152138, -0.7852468490600586, -1.0667816400527954, 0.6015625, 0.185791015625, -0.70166015625
21, 1674011973, -6.328915119171143, 1.8107184171676636, 7.077253818511963, -0.003931549843400717, -0.8470760583877563, -1.090704083442688, 0.60205078125, 0.184814453125, -0.70263671875
22, 1674028640, -6.327311038970947, 1.8271738290786743, 7.062164783477783, 0.017602328211069107, -0.7590580582618713, -1.161907434463501, 0.60107421875, 0.185302734375, -0.700927734375
23, 1674045307, -6.326188564300537, 1.8027679920196533, 7.091888427734375, 0.11279193311929703, -0.6794537305831909, -1.1171234846115112, 0.60009765625, 0.18310546875, -0.700439453125
24, 1674061974, -6.3271989822387695, 1.818800449371338, 7.064028739929199, -0.002535657025873661, -0.6904158592224121, -1.180450677871704, 0.6015625, 0.185302734375, -0.701416015625
25, 1674078641, -6.3222784996032715, 1.8028478622436523, 7.087026119232178, -0.14143332839012146, -0.8660933971405029, -1.2203810214996338, 0.60205078125, 0.187255859375, -0.70166015625
26, 1674095308, -6.334595680236816, 1.8162295818328857, 7.094777584075928, -0.18690867722034454, -0.8936911225318909, -1.3119210004806519, 0.6025390625, 0.18359375, -0.701416015625
27, 1674111975, -6.33085298538208, 1.797601342201233, 7.090789794921875, -0.09325584024190903, -0.6784548163414001, -1.2053335905075073, 0.6025390625, 0.186279296875, -0.70166015625
28, 1674128642, -6.332617282867432, 1.8063538074493408, 7.08493185043335, 0.020061146467924118, -0.7219579219818115, -1.1497156620025635, 0.60205078125, 0.184814453125, -0.698974609375
29, 1674145309, -6.327733039855957, 1.8363231420516968, 7.085529804229736, 0.030511125922203064, -0.5646063089370728, -1.0765529870986938, 0.6025390625, 0.185302734375, -0.701416015625
30, 1674161976, -6.336977958679199, 1.8064525127410889, 7.066361904144287, 0.028013890609145164, -0.5375721454620361, -1.1257805824279785, 0.60302734375, 0.184814453125, -0.700927734375
31, 1674178643, -6.321539402008057, 1.8273634910583496, 7.078392028808594, -0.008272902108728886, -0.6992010474205017, -1.1906574964523315, 0.60205078125, 0.186279296875, -0.703125
32, 1674195310, -6.3238444328308105, 1.8042361736297607, 7.074287414550781, -0.08432982116937637, -0.7029789090156555, -1.3102688789367676, 0.6015625, 0.184814453125, -0.70166015625
33, 1674211977, -6.321491241455078, 1.8201104402542114, 7.0782694816589355, -0.1031167209148407, -0.8069793581962585, -1.3051974773406982, 0.6025390625, 0.184326171875, -0.701416015625
34, 1674228644, -6.343638896942139, 1.8143765926361084, 7.097597122192383, -0.07709422707557678, -0.7044004797935486, -1.3014837503433228, 0.6025390625, 0.184326171875, -0.701416015625
35, 1674245311, -6.328829765319824, 1.8216956853866577, 7.063042163848877, -0.10000479221343994, -0.7132112383842468, -1.284912347793579, 0.6015625, 0.18359375, -0.700927734375
36, 1674261978, -6.332296371459961, 1.8021762371063232, 7.075475215911865, -0.06802733242511749, -0.7690213322639465, -1.2544331550598145, 0.60107421875, 0.181640625, -0.7021484375
37, 1674278645, -6.332751750946045, 1.8154733180999756, 7.069248676300049, -0.0716003030538559, -0.7048102021217346, -1.212018609046936, 0.60107421875, 0.184814453125, -0.70166015625
38, 1674295312, -6.334527492523193, 1.8190785646438599, 7.089488983154297, -0.019004622474312782, -0.6250138878822327, -1.1865724325180054, 0.60205078125, 0.186279296875, -0.701416015625
39, 1674311979, -6.334280014038086, 1.8140140771865845, 7.075656414031982, -0.006864204071462154, -0.5846611261367798, -1.232944130897522, 0.603515625, 0.186279296875, -0.70263671875
40, 1674328646, -6.334174156188965, 1.8220515251159668, 7.0780110359191895, -0.046333372592926025, -0.6854726672172546, -1.3215640783309937, 0.60302734375, 0.185791015625, -0.698974609375
41, 1674345313, -6.330502510070801, 1.8169971704483032, 7.073397159576416, -0.14898906648159027, -0.7936350703239441, -1.1938846111297607, 0.60302734375, 0.18359375, -0.7021484375
42, 1674361980, -6.339437961578369, 1.8028125762939453, 7.073782920837402, -0.06527397036552429, -0.686586856842041, -1.2485038042068481, 0.60107421875, 0.186279296875, -0.703125
43, 1674378647, -6.3335089683532715, 1.814942479133606, 7.075663089752197, -0.027175074443221092, -0.6441850066184998, -1.1950501203536987, 0.60107421875, 0.184326171875, -0.700439453125
44, 1674395314, -6.337002277374268, 1.826678991317749, 7.075407981872559, -0.07979635894298553, -0.6597318649291992, -1.299421787261963, 0.60205078125, 0.185302734375, -0.70263671875
45, 1674411981, -6.330766201019287, 1.81720769405365, 7.087284564971924, -0.1617698222398758, -0.7161439061164856, -1.2108147144317627, 0.6025390625, 0.184326171875, -0.7021484375
46, 1674428648, -6.341372013092041, 1.8252451419830322, 7.100557804107666, -0.22626258432865143, -0.7192429900169373, -1.3460497856140137, 0.603271484375, 0.183837890625, -0.701416015625
47, 1674445315, -6.323248386383057, 1.8034162521362305, 7.070462703704834, -0.17876383662223816, -0.7937759757041931, -1.4302003383636475, 0.60009765625, 0.18408203125, -0.7021484375
48, 1674461982, -6.336506366729736, 1.8123637437820435, 7.05715799331665, -0.2234707921743393, -0.7760776281356812, -1.3633768558502197, 0.6025390625, 0.186767578125, -0.699951171875
49, 1674478649, -6.336172580718994, 1.8147456645965576, 7.083744525909424, -0.2174646258354187, -0.764308512210846, -1.3329616785049438, 0.6005859375, 0.184326171875, -0.7021484375
50, 1674495316, -6.3313984870910645, 1.81538987159729, 7.081582546234131, -0.11224765330553055, -0.8392640352249146, -1.2860134840011597, 0.60302734375, 0.185302734375, -0.701904296875
51, 1674511983, -6.34316873550415, 1.8202918767929077, 7.061415195465088, -0.18361744284629822, -0.8451550006866455, -1.312010645866394, 0.603515625, 0.184326171875, -0.7021484375
52, 1674528650, -6.326477527618408, 1.8268181085586548, 7.087555885314941, -0.11405333876609802, -0.7730425000190735, -1.2870253324508667, 0.60205078125, 0.185302734375, -0.699462890625
53, 1674545317, -6.3243303298950195, 1.8255423307418823, 7.082952499389648, -0.17282168567180634, -0.7522962093353271, -1.2790982723236084, 0.599609375, 0.185791015625, -0.701416015625
54, 1674561984, -6.335242748260498, 1.8171347379684448, 7.0827226638793945, -0.10589569807052612, -0.8490096926689148, -1.3191052675247192, 0.60009765625, 0.1845703125, -0.699951171875
55, 1674578651, -6.33146333694458, 1.822922945022583, 7.075272083282471, -0.19463090598583221, -0.7722100615501404, -1.3051079511642456, 0.6015625, 0.18359375, -0.700927734375
56, 1674595318, -6.334665775299072, 1.8096145391464233, 7.0624213218688965, -0.19326061010360718, -0.8086568713188171, -1.334754467010498, 0.603271484375, 0.184326171875, -0.698974609375
57, 1674611985, -6.3231000900268555, 1.8107577562332153, 7.074026584625244, -0.20963993668556213, -0.7412315011024475, -1.2817233800888062, 0.603515625, 0.183837890625, -0.703125
58, 1674628652, -6.327792167663574, 1.8167471885681152, 7.070666790008545, -0.16623921692371368, -0.8529284596443176, -1.2070752382278442, 0.603515625, 0.185791015625, -0.7021484375
59, 1674645319, -6.320308685302734, 1.8261266946792603, 7.071326732635498, -0.21159930527210236, -0.7802397608757019, -1.2641403675079346, 0.6005859375, 0.185302734375, -0.699951171875
60, 1674661986, -6.331735610961914, 1.824436068534851, 7.0876994132995605, -0.29116517305374146, -0.675342857837677, -1.343078851699829, 0.60107421875, 0.187255859375, -0.701171875
61, 1674678653, -6.321786403656006, 1.8175480365753174, 7.0698370933532715, -0.2960827946662903, -0.7556770443916321, -1.2504503726959229, 0.6015625, 0.185791015625, -0.70263671875
62, 1674695320, -6.330667018890381, 1.8224201202392578, 7.069613456726074, -0.19291484355926514, -0.7245960831642151, -1.341529130935669, 0.6005859375, 0.184326171875, -0.699951171875
63, 1674711987, -6.334628582000732, 1.824984073638916, 7.087114334106445, -0.31205230951309204, -0.792892336845398, -1.3928442001342773, 0.6025390625, 0.185791015625, -0.700927734375
64, 1674728654, -6.336945056915283, 1.798654556274414, 7.081674098968506, -0.30667364597320557, -0.7860921621322632, -1.3425536155700684, 0.6015625, 0.18408203125, -0.700439453125
65, 1674745321, -6.332907676696777, 1.820460557937622, 7.069099426269531, -0.21578700840473175, -0.7763977646827698, -1.3543355464935303, 0.60107421875, 0.185302734375, -0.699462890625
66, 1674761988, -6.334814071655273, 1.826156735420227, 7.0650129318237305, -0.24944205582141876, -0.7863994836807251, -1.3674620389938354, 0.6005859375, 0.184326171875, -0.699462890625
67, 1674778655, -6.332322597503662, 1.8248322010040283, 7.070479869842529, -0.3425186276435852, -0.770391583442688, -1.3811520338058472, 0.60107421875, 0.184326171875, -0.7021484375
68, 1674795322, -6.3302412033081055, 1.827815294265747, 7.061633110046387, -0.3853815197944641, -0.8009220361709595, -1.4356815814971924, 0.6005859375, 0.18408203125, -0.7021484375
69, 1674811989, -6.3368964195251465, 1.8015376329421997, 7.090385913848877, -0.32259196043014526, -0.6902367472648621, -1.3846609592437744, 0.60205078125, 0.184814453125, -0.701416015625
70, 1674828656, -6.338076591491699, 1.8267881870269775, 7.071962356567383, -0.30093643069267273, -0.84596186876297, -1.3547710180282593, 0.60009765625, 0.18408203125, -0.701416015625
71, 1674845323, -6.342092037200928, 1.8300349712371826, 7.084360122680664, -0.2565367817878723, -0.79610675573349, -1.348508596420288, 0.60009765625, 0.18359375, -0.701904296875
72, 1674861990, -6.3309431076049805, 1.8278559446334839, 7.061375617980957, -0.24585631489753723, -0.8244984149932861, -1.3626853227615356, 0.60107421875, 0.184814453125, -0.700439453125
73, 1674878657, -6.330594539642334, 1.8076412677764893, 7.062187194824219, -0.2356240302324295, -0.8142405152320862, -1.333755612373352, 0.60009765625, 0.1845703125, -0.703125
74, 1674895324, -6.33372163772583, 1.813604712486267, 7.043373107910156, -0.19824229180812836, -0.7876802086830139, -1.3305926322937012, 0.6015625, 0.18408203125, -0.701904296875
75, 1674911991, -6.334319591522217, 1.8096024990081787, 7.087176322937012, -0.124131940305233, -0.7827496528625488, -1.3482396602630615, 0.6015625, 0.18359375, -0.700439453125
76, 1674928658, -6.3409037590026855, 1.8188719749450684, 7.067271709442139, -0.21672187745571136, -0.6673261523246765, -1.3396722078323364, 0.6015625, 0.186767578125, -0.701416015625
77, 1674945325, -6.331772804260254, 1.8262749910354614, 7.057570457458496, -0.15060266852378845, -0.7802524566650391, -1.3473433256149292, 0.60009765625, 0.185302734375, -0.700927734375
78, 1674961992, -6.336582183837891, 1.8185688257217407, 7.077198505401611, -0.223573237657547, -0.7119433879852295, -1.3704843521118164, 0.6025390625, 0.184814453125, -0.701904296875
79, 1674978659, -6.338191032409668, 1.810333013534546, 7.070392608642578, -0.17749600112438202, -0.8086057305335999, -1.3358559608459473, 0.60107421875, 0.185791015625, -0.70166015625
80, 1674995326, -6.342504501342773, 1.8134980201721191, 7.0682573318481445, -0.14948850870132446, -0.7667161226272583, -1.3549885749816895, 0.60302734375, 0.184814453125, -0.70361328125
81, 1675011993, -6.340892314910889, 1.8150863647460938, 7.059728622436523, -0.21098457276821136, -0.8254587054252625, -1.3498531579971313, 0.6025390625, 0.184814453125, -0.70263671875
82, 1675028660, -6.34168815612793, 1.8071160316467285, 7.070547103881836, -0.17741915583610535, -0.8044052124023438, -1.3451277017593384, 0.60107421875, 0.184814453125, -0.701416015625
83, 1675045327, -6.333406925201416, 1.8169429302215576, 7.0972747802734375, -0.2719428241252899, -0.8213993310928345, -1.3856725692749023, 0.6025390625, 0.184326171875, -0.701904296875
84, 1675061994, -6.3341898918151855, 1.8078818321228027, 7.071103572845459, -0.228465273976326, -0.8004480600357056, -1.3008562326431274, 0.60205078125, 0.18408203125, -0.700927734375
85, 1675078661, -6.353456974029541, 1.8095663785934448, 7.063198566436768, -0.20056024193763733, -0.925386905670166, -1.281326413154602, 0.60205078125, 0.184814453125, -0.7021484375
86, 1675095328, -6.347456932067871, 1.8178443908691406, 7.092690467834473, -0.17307783663272858, -0.7484031319618225, -1.241396427154541, 0.60107421875, 0.18359375, -0.699951171875
87, 1675111995, -6.334624767303467, 1.8193042278289795, 7.0972208976745605, -0.11948324739933014, -0.7435879111289978, -1.2554192543029785, 0.603271484375, 0.183837890625, -0.700439453125
88, 1675128662, -6.329892158508301, 1.8253480195999146, 7.052928447723389, -0.1962316930294037, -0.7446252107620239, -1.370330572128296, 0.6015625, 0.186279296875, -0.70166015625
89, 1675145329, -6.3468756675720215, 1.8162504434585571, 7.074691295623779, -0.2680753171443939, -0.782288670539856, -1.3678334951400757, 0.60107421875, 0.186279296875, -0.699951171875
90, 1675161996, -6.335336685180664, 1.8231862783432007, 7.0641770362854, -0.27871739864349365, -0.8060188889503479, -1.3126636743545532, 0.6005859375, 0.18408203125, -0.700439453125
91, 1675178663, -6.342384338378906, 1.8197864294052124, 7.056520462036133, -0.22404709458351135, -0.8319389820098877, -1.410107135772705, 0.60107421875, 0.18408203125, -0.699951171875
92, 1675195330, -6.339350700378418, 1.8313599824905396, 7.082779407501221, -0.25708749890327454, -0.7861945629119873, -1.3323215246200562, 0.60302734375, 0.185302734375, -0.700927734375
93, 1675211997, -6.331070423126221, 1.814889907836914, 7.085216522216797, -0.2250203788280487, -0.7313962578773499, -1.4040497541427612, 0.6015625, 0.184326171875, -0.701416015625
94, 1675228664, -6.335659503936768, 1.8127113580703735, 7.085497856140137, -0.14225293695926666, -0.6673516631126404, -1.4027179479599, 0.60302734375, 0.184326171875, -0.701416015625
95, 1675245331, -6.333125114440918, 1.8288174867630005, 7.084189414978027, -0.24932679533958435, -0.7122891545295715, -1.4344648122787476, 0.60107421875, 0.185791015625, -0.699951171875
96, 1675261998, -6.329405784606934, 1.820845603942871, 7.080338954925537, -0.1812610775232315, -0.7164255976676941, -1.3712397813796997, 0.60009765625, 0.184814453125, -0.700439453125
97, 1675278665, -6.343069076538086, 1.8023074865341187, 7.045815467834473, -0.2535913288593292, -0.7716081738471985, -1.388067364692688, 0.60107421875, 0.185302734375, -0.700927734375
98, 1675295332, -6.324281215667725, 1.8189719915390015, 7.085134983062744, -0.28147074580192566, -0.8158029317855835, -1.4347209930419922, 0.603515625, 0.184814453125, -0.703125
99, 1675311999, -6.321703910827637, 1.821793556213379, 7.065960884094238, -0.28850147128105164, -0.8030733466148376, -1.4223885536193848, 0.60205078125, 0.18408203125, -0.70263671875
100, 1675328666, -6.338397979736328, 1.8079336881637573, 7.0794219970703125, -0.33726805448532104, -0.8323742747306824, -1.3548349142074585, 0.60205078125, 0.185302734375, -0.70166015625
101, 1675345333, -6.330451011657715, 1.8166401386260986, 7.066352844238281, -0.303011029958725, -0.8778752684593201, -1.3533622026443481, 0.60205078125, 0.185791015625, -0.699951171875
102, 1675362000, -6.324713230133057, 1.8055411577224731, 7.067144393920898, -0.23211508989334106, -0.833565354347229, -1.2870126962661743, 0.60205078125, 0.18359375, -0.699951171875
103, 1675378667, -6.335822105407715, 1.802229404449463, 7.072145938873291, -0.16680268943309784, -0.8004480004310608, -1.2314584255218506, 0.6015625, 0.18359375, -0.699951171875
104, 1675395334, -6.331480026245117, 1.8052170276641846, 7.0705742835998535, -0.10421807318925858, -0.6433653831481934, -1.2866923809051514, 0.60107421875, 0.18359375, -0.70263671875
105, 1675412001, -6.328917980194092, 1.8218722343444824, 7.076494216918945, -0.20016324520111084, -0.7873984575271606, -1.2897148132324219, 0.6025390625, 0.185302734375, -0.703125
106, 1675428668, -6.3494086265563965, 1.8145806789398193, 7.0657172203063965, -0.18977731466293335, -0.8278152346611023, -1.2455968856811523, 0.60009765625, 0.186279296875, -0.700927734375
107, 1675445335, -6.328163146972656, 1.825979471206665, 7.089820861816406, -0.1795194149017334, -0.8143301010131836, -1.29697585105896, 0.60205078125, 0.184814453125, -0.701904296875
108, 1675462002, -6.340579032897949, 1.8154053688049316, 7.065282344818115, -0.1996126025915146, -0.7973489761352539, -1.2751795053482056, 0.6015625, 0.184814453125, -0.701416015625
109, 1675478669, -6.334261417388916, 1.8216538429260254, 7.072178363800049, -0.1771886646747589, -0.825676679611206, -1.3209494352340698, 0.60205078125, 0.184814453125, -0.700927734375
110, 1675495336, -6.322364807128906, 1.813435673713684, 7.079898357391357, -0.21280311048030853, -0.8646719455718994, -1.2740141153335571, 0.599609375, 0.184814453125, -0.70361328125
111, 1675512003, -6.343247413635254, 1.8045812845230103, 7.0904998779296875, -0.14772124588489532, -0.7335221171379089, -1.1979444026947021, 0.60009765625, 0.1826171875, -0.701904296875
112, 1675528670, -6.330681800842285, 1.8295300006866455, 7.087753772735596, -0.11258061975240707, -0.7586737871170044, -1.2201378345489502, 0.603515625, 0.184814453125, -0.701904296875
113, 1675545337, -6.315342426300049, 1.8301185369491577, 7.070107460021973, -0.12218537926673889, -0.7875648140907288, -1.1636232137680054, 0.6015625, 0.185302734375, -0.701416015625
114, 1675562004, -6.323036193847656, 1.8171947002410889, 7.073922157287598, -0.20520895719528198, -0.8166865110397339, -1.3281465768814087, 0.60107421875, 0.184814453125, -0.700439453125
115, 1675578671, -6.311489582061768, 1.804794430732727, 7.080635070800781, -0.23661011457443237, -0.7109573483467102, -1.3274039030075073, 0.6005859375, 0.185791015625, -0.70166015625
116, 1675595338, -6.3296589851379395, 1.8121100664138794, 7.086718559265137, -0.12990760803222656, -0.7318828701972961, -1.3433988094329834, 0.60302734375, 0.184326171875, -0.701904296875
117, 1675612005, -6.333706855773926, 1.819595217704773, 7.0970139503479, -0.2325761318206787, -0.6864715218544006, -1.3153016567230225, 0.6025390625, 0.185302734375, -0.699951171875
118, 1675628672, -6.3451313972473145, 1.8028377294540405, 7.0859527587890625, -0.15210101008415222, -0.8385853171348572, -1.244802713394165, 0.6005859375, 0.184814453125, -0.701416015625
119, 1675645339, -6.325217247009277, 1.8157987594604492, 7.047357559204102, -0.21660661697387695, -0.7642701864242554, -1.2421263456344604, 0.60009765625, 0.185302734375, -0.703125
120, 1675662006, -6.338856220245361, 1.8228245973587036, 7.0807204246521, -0.18963640928268433, -0.8949589133262634, -1.2841566801071167, 0.60302734375, 0.185302734375, -0.701416015625
121, 1675678673, -6.322220802307129, 1.8265578746795654, 7.095323085784912, -0.1560581624507904, -0.719742476940155, -1.3634151220321655, 0.60205078125, 0.184326171875, -0.701416015625
122, 1675695340, -6.3407416343688965, 1.8140062093734741, 7.089526653289795, -0.18273380398750305, -0.7393105030059814, -1.3595348596572876, 0.6015625, 0.184814453125, -0.701416015625
123, 1675712007, -6.343343257904053, 1.8054171800613403, 7.059675693511963, -0.22341959178447723, -0.7284507751464844, -1.3207060098648071, 0.6005859375, 0.18408203125, -0.701416015625
124, 1675728674, -6.328333854675293, 1.8204907178878784, 7.075857162475586, -0.22799141705036163, -0.7970030903816223, -1.3833290338516235, 0.6025390625, 0.185791015625, -0.700927734375
125, 1675745341, -6.349732398986816, 1.8046441078186035, 7.073811054229736, -0.27596402168273926, -0.8262656927108765, -1.3227678537368774, 0.60009765625, 0.1845703125, -0.700927734375
126, 1675762008, -6.330480098724365, 1.8337589502334595, 7.0622076988220215, -0.24882739782333374, -0.9279353022575378, -1.3211671113967896, 0.60009765625, 0.1845703125, -0.700927734375
127, 1675778675, -6.343510150909424, 1.8164836168289185, 7.090590000152588, -0.31891652941703796, -0.8762873411178589, -1.3426048755645752, 0.59912109375, 0.18408203125, -0.700927734375
128, 1675795342, -6.330045223236084, 1.7989217042922974, 7.07968807220459, -0.3694119453430176, -0.8080422282218933, -1.3529140949249268, 0.604736328125, 0.183349609375, -0.700439453125
129, 1675812009, -6.318431854248047, 1.8128515481948853, 7.063345909118652, -0.32826516032218933, -0.8007810711860657, -1.3571529388427734, 0.6015625, 0.184326171875, -0.701904296875
130, 1675828676, -6.336443901062012, 1.8093690872192383, 7.077261924743652, -0.22937451303005219, -0.8058523535728455, -1.3858007192611694, 0.6015625, 0.185791015625, -0.700927734375
131, 1675845343, -6.33344841003418, 1.807796597480774, 7.073037624359131, -0.2736460864543915, -0.8213481307029724, -1.383034586906433, 0.6015625, 0.185302734375, -0.700927734375
132, 1675862010, -6.331584930419922, 1.8028528690338135, 7.092704772949219, -0.2810993790626526, -0.747545063495636, -1.351082682609558, 0.60009765625, 0.184326171875, -0.698486328125
133, 1675878677, -6.32066011428833, 1.817054271697998, 7.080647945404053, -0.3199538588523865, -0.7308967709541321, -1.3137906789779663, 0.6015625, 0.186279296875, -0.703125
134, 1675895344, -6.322411060333252, 1.8209575414657593, 7.0975565910339355, -0.26771673560142517, -0.8230000138282776, -1.3588049411773682, 0.603759765625, 0.184326171875, -0.701416015625
135, 1675912011, -6.322569370269775, 1.8240810632705688, 7.097192287445068, -0.3055979013442993, -0.8624947667121887, -1.3674747943878174, 0.60107421875, 0.185302734375, -0.70166015625
136, 1675928678, -6.331935882568359, 1.8124263286590576, 7.093683242797852, -0.2604299485683441, -0.773401141166687, -1.4167026281356812, 0.60107421875, 0.184814453125, -0.70166015625
137, 1675945345, -6.315220355987549, 1.7977945804595947, 7.060548305511475, -0.2148009091615677, -0.8372535109519958, -1.3168898820877075, 0.6005859375, 0.185302734375, -0.699951171875
138, 1675962012, -6.320596694946289, 1.8044567108154297, 7.084361553192139, -0.2739406228065491, -0.7854006290435791, -1.3280184268951416, 0.60107421875, 0.184326171875, -0.698486328125
139, 1675978679, -6.326019763946533, 1.8121052980422974, 7.069274425506592, -0.1587218940258026, -0.7730937600135803, -1.268865942955017, 0.603759765625, 0.183349609375, -0.700927734375
140, 1675995346, -6.326245307922363, 1.819281816482544, 7.074709415435791, -0.17740635573863983, -0.7412827610969543, -1.31558358669281, 0.6005859375, 0.18359375, -0.700927734375
141, 1676012013, -6.3421502113342285, 1.8107601404190063, 7.085015296936035, -0.2384798526763916, -0.7388495802879333, -1.3406071662902832, 0.6005859375, 0.184326171875, -0.701416015625
142, 1676028680, -6.331015110015869, 1.8213114738464355, 7.084597587585449, -0.2264418751001358, -0.6378713846206665, -1.413987398147583, 0.603515625, 0.185302734375, -0.701416015625
143, 1676045347, -6.315361022949219, 1.8036659955978394, 7.092379093170166, -0.2776544392108917, -0.6572474241256714, -1.4270498752593994, 0.6015625, 0.186279296875, -0.700439453125
144, 1676062014, -6.336610794067383, 1.822373867034912, 7.074401378631592, -0.257138729095459, -0.6750483512878418, -1.3752740621566772, 0.6005859375, 0.18359375, -0.701904296875
145, 1676078681, -6.327559947967529, 1.8022937774658203, 7.105646133422852, -0.2326657772064209, -0.7640652656555176, -1.3623778820037842, 0.6015625, 0.185791015625, -0.700439453125
146, 1676095348, -6.3368048667907715, 1.8050798177719116, 7.07874870300293, -0.20428690314292908, -0.8067488670349121, -1.3633768558502197, 0.6005859375, 0.187255859375, -0.701171875
147, 1676112015, -6.3280229568481445, 1.8006069660186768, 7.098462104797363, -0.20132865011692047, -0.8127678036689758, -1.3151226043701172, 0.60009765625, 0.18408203125, -0.70166015625
148, 1676128682, -6.333962440490723, 1.7974853515625, 7.0645976066589355, -0.19662868976593018, -0.7355710864067078, -1.3655025959014893, 0.6025390625, 0.184326171875, -0.703125
149, 1676145349, -6.332235813140869, 1.8141472339630127, 7.082489967346191, -0.3184811472892761, -0.7841840386390686, -1.2953623533248901, 0.6015625, 0.186767578125, -0.700927734375
150, 1676162016, -6.340150356292725, 1.8092297315597534, 7.068045139312744, -0.2752084732055664, -0.7888455390930176, -1.4040881395339966, 0.6015625, 0.185791015625, -0.701416015625
151, 1676178683, -6.333180904388428, 1.805408239364624, 7.087233543395996, -0.187689870595932, -0.7610557079315186, -1.338097095489502, 0.60205078125, 0.185791015625, -0.70263671875
152, 1676195350, -6.341037273406982, 1.8134937286376953, 7.059333801269531, -0.22943851351737976, -0.7760647535324097, -1.3712270259857178, 0.6005859375, 0.185791015625, -0.701416015625
153, 1676212017, -6.318050384521484, 1.8086771965026855, 7.0732221603393555, -0.22713340818881989, -0.8876721262931824, -1.362992525100708, 0.6025390625, 0.186279296875, -0.701416015625
154, 1676228684, -6.341031074523926, 1.7974330186843872, 7.0695929527282715, -0.17936573922634125, -0.8106034398078918, -1.340325117111206, 0.6005859375, 0.186279296875, -0.700927734375
155, 1676245351, -6.342780113220215, 1.8105194568634033, 7.071138381958008, -0.21892453730106354, -0.7652305960655212, -1.2696855068206787, 0.6015625, 0.186279296875, -0.699951171875
156, 1676262018, -6.347353458404541, 1.810221552848816, 7.091171741485596, -0.25635749101638794, -0.8505082130432129, -1.208304762840271, 0.60302734375, 0.187255859375, -0.700439453125
157, 1676278685, -6.331484794616699, 1.8084222078323364, 7.076362609863281, -0.16579100489616394, -0.9130287766456604, -1.2934412956237793, 0.599609375, 0.184814453125, -0.699951171875
158, 1676295352, -6.329359531402588, 1.809554100036621, 7.066686630249023, -0.12890870869159698, -0.8734058141708374, -1.2621554136276245, 0.60107421875, 0.18359375, -0.70263671875
159, 1676312019, -6.331286907196045, 1.8027863502502441, 7.072297096252441, -0.14083142578601837, -0.8110132813453674, -1.3018550872802734, 0.5986328125, 0.18505859375, -0.703125
160, 1676328686, -6.325965404510498, 1.8161226511001587, 7.049238204956055, -0.15559715032577515, -0.8060828447341919, -1.3087321519851685, 0.60205078125, 0.185302734375, -0.700439453125
161, 1676345353, -6.335906028747559, 1.8197896480560303, 7.071411609649658, -0.23882561922073364, -0.807209849357605, -1.3021752834320068, 0.60205078125, 0.185302734375, -0.699462890625
162, 1676362020, -6.328312397003174, 1.808219313621521, 7.084958076477051, -0.13920503854751587, -0.7754886150360107, -1.2986921072006226, 0.603271484375, 0.184814453125, -0.701416015625
163, 1676378687, -6.331691741943359, 1.812874674797058, 7.087066650390625, -0.14414826035499573, -0.6820917725563049, -1.2700952291488647, 0.599609375, 0.184814453125, -0.699951171875
164, 1676395354, -6.329240798950195, 1.8058682680130005, 7.07206916809082, -0.19830632209777832, -0.8032782673835754, -1.2570456266403198, 0.60205078125, 0.184326171875, -0.70458984375
165, 1676412021, -6.339790344238281, 1.8174625635147095, 7.094921588897705, -0.286106675863266, -0.775181233882904, -1.306721568107605, 0.60205078125, 0.187744140625, -0.70166015625
166, 1676428688, -6.333107948303223, 1.8110071420669556, 7.070173263549805, -0.15682655572891235, -0.7571370601654053, -1.3773229122161865, 0.60302734375, 0.184814453125, -0.701904296875
167, 1676445355, -6.330913066864014, 1.7998446226119995, 7.065919876098633, -0.18501333892345428, -0.7243271470069885, -1.3383020162582397, 0.599609375, 0.184814453125, -0.699951171875
168, 1676462022, -6.3252129554748535, 1.8177767992019653, 7.063595294952393, -0.16763512790203094, -0.702351450920105, -1.3406199216842651, 0.60009765625, 0.185302734375, -0.700439453125
169, 1676478689, -6.333119869232178, 1.8025137186050415, 7.086770534515381, -0.13853910565376282, -0.7167970538139343, -1.2888438701629639, 0.60009765625, 0.1845703125, -0.700439453125
170, 1676495356, -6.332348346710205, 1.8035171031951904, 7.083624362945557, -0.12007232755422592, -0.681348979473114, -1.283247470855713, 0.6005859375, 0.185302734375, -0.70166015625
171, 1676512023, -6.3379926681518555, 1.8228209018707275, 7.073207378387451, -0.26320892572402954, -0.8370742201805115, -1.3070160150527954, 0.60302734375, 0.185302734375, -0.701416015625
172, 1676528690, -6.333557605743408, 1.8145211935043335, 7.077151775360107, -0.21754147112369537, -0.8109749555587769, -1.2397699356079102, 0.6015625, 0.184814453125, -0.700927734375
173, 1676545357, -6.330634117126465, 1.8122577667236328, 7.072620868682861, -0.12100721150636673, -0.7752067446708679, -1.2576220035552979, 0.6025390625, 0.187255859375, -0.698974609375
174, 1676562024, -6.327857971191406, 1.8203767538070679, 7.086578369140625, -0.1226079910993576, -0.7398741245269775, -1.2335845232009888, 0.6015625, 0.185302734375, -0.700439453125
175, 1676578691, -6.324995994567871, 1.8140006065368652, 7.062525749206543, -0.17690691351890564, -0.7482494115829468, -1.3011893033981323, 0.6015625, 0.185302734375, -0.701416015625
176, 1676595358, -6.318178176879883, 1.8106592893600464, 7.062107563018799, -0.2690742015838623, -0.7339702844619751, -1.2680718898773193, 0.60205078125, 0.18359375, -0.70263671875
177, 1676612025, -6.321438789367676, 1.8195812702178955, 7.078752517700195, -0.17008112370967865, -0.8003328442573547, -1.2775743007659912, 0.60205078125, 0.184814453125, -0.701416015625
178, 1676628692, -6.326703071594238, 1.8344674110412598, 7.059591770172119, -0.17638187110424042, -0.8464357256889343, -1.309295654296875, 0.60107421875, 0.185791015625, -0.700439453125
179, 1676645359, -6.335219860076904, 1.8212298154830933, 7.10322380065918, -0.2528741955757141, -0.7722485065460205, -1.3970065116882324, 0.60107421875, 0.18408203125, -0.700439453125
180, 1676662026, -6.326828956604004, 1.8124315738677979, 7.083847999572754, -0.1907505840063095, -0.6798380017280579, -1.3119850158691406, 0.603271484375, 0.183837890625, -0.698974609375
181, 1676678693, -6.336160182952881, 1.80137300491333, 7.077627658843994, -0.22686447203159332, -0.7608380317687988, -1.3905391693115234, 0.60107421875, 0.184326171875, -0.700927734375
182, 1676695360, -6.326806545257568, 1.8157612085342407, 7.076949596405029, -0.3177511692047119, -0.7485439777374268, -1.409415602684021, 0.6015625, 0.18408203125, -0.701904296875
183, 1676712027, -6.3407063484191895, 1.8140217065811157, 7.089321613311768, -0.3059180676937103, -0.7432292699813843, -1.4207875728607178, 0.60107421875, 0.185791015625, -0.703125
184, 1676728694, -6.33425760269165, 1.8049124479293823, 7.0698041915893555, -0.26342663168907166, -0.7554978132247925, -1.395969033241272, 0.6015625, 0.187255859375, -0.700927734375
185, 1676745361, -6.326740264892578, 1.804190754890442, 7.074899673461914, -0.21788722276687622, -0.7751427292823792, -1.3639659881591797, 0.6005859375, 0.185302734375, -0.701416015625
186, 1676762028, -6.329944133758545, 1.803256630897522, 7.075216293334961, -0.271609902381897, -0.7362370491027832, -1.2557265758514404, 0.59912109375, 0.184814453125, -0.700439453125
187, 1676778695, -6.324914932250977, 1.8143738508224487, 7.063608646392822, -0.2409130185842514, -0.7988344430923462, -1.3250985145568848, 0.60009765625, 0.186279296875, -0.700927734375
188, 1676795362, -6.342433929443359, 1.803459882736206, 7.087780952453613, -0.25615260004997253, -0.7202290892601013, -1.402807593345642, 0.6005859375, 0.18408203125, -0.700927734375
189, 1676812029, -6.333686828613281, 1.803595781326294, 7.085714817047119, -0.3254093527793884, -0.748684823513031, -1.4478347301483154, 0.6005859375, 0.186279296875, -0.699951171875
190, 1676828696, -6.323334693908691, 1.7992725372314453, 7.093813896179199, -0.2923433482646942, -0.7205365300178528, -1.3932796716690063, 0.60107421875, 0.187255859375, -0.699951171875
191, 1676845363, -6.337779521942139, 1.7986217737197876, 7.082766056060791, -0.2777312994003296, -0.7861818075180054, -1.450357437133789, 0.6025390625, 0.185791015625, -0.700927734375
192, 1676862030, -6.340855121612549, 1.8171398639678955, 7.080166339874268, -0.2669227719306946, -0.8225519061088562, -1.474753737449646, 0.60107421875, 0.186279296875, -0.699462890625
193, 1676878697, -6.336320877075195, 1.8109321594238281, 7.078981399536133, -0.23822374641895294, -0.7328178286552429, -1.4393569231033325, 0.599609375, 0.185791015625, -0.70166015625
194, 1676895364, -6.333572864532471, 1.8143924474716187, 7.050992965698242, -0.2792680859565735, -0.7646415829658508, -1.338071584701538, 0.60107421875, 0.185791015625, -0.699951171875
195, 1676912031, -6.330076694488525, 1.8045743703842163, 7.083205699920654, -0.20955030620098114, -0.744676411151886, -1.3868252038955688, 0.603759765625, 0.184326171875, -0.701416015625
196, 1676928698, -6.344844341278076, 1.7969045639038086, 7.0883307456970215, -0.31351223587989807, -0.768739640712738, -1.4712320566177368, 0.60205078125, 0.184814453125, -0.701416015625
197, 1676945365, -6.3300580978393555, 1.7998369932174683, 7.076543807983398, -0.25588366389274597, -0.7373383641242981, -1.4001309871673584, 0.6025390625, 0.184326171875, -0.701904296875
198, 1676962032, -6.322521209716797, 1.8065259456634521, 7.088520050048828, -0.20958873629570007, -0.8264194130897522, -1.2974880933761597, 0.602783203125, 0.184814453125, -0.699951171875
199, 1676978699, -6.341342449188232, 1.8026400804519653, 7.083942413330078, -0.2373656928539276, -0.8206949234008789, -1.333077073097229, 0.60107421875, 0.185302734375, -0.700927734375
200, 1676995366, -6.317537307739258, 1.7887424230575562, 7.070955276489258, -0.2579454779624939, -0.749824583530426, -1.3316043615341187, 0.60009765625, 0.1845703125, -0.703125
201, 1677012033, -6.330384254455566, 1.800408959388733, 7.087264537811279, -0.18469318747520447, -0.7925466299057007, -1.362173080444336, 0.60302734375, 0.185302734375, -0.700927734375
202, 1677028700, -6.3260016441345215, 1.814414143562317, 7.0534892082214355, -0.14083142578601837, -0.7952870726585388, -1.35308039188385, 0.60205078125, 0.185302734375, -0.70263671875
203, 1677045367, -6.3360419273376465, 1.8072770833969116, 7.073091983795166, -0.20692501962184906, -0.7255053520202637, -1.3767850399017334, 0.60107421875, 0.186279296875, -0.700439453125
204, 1677062034, -6.335651874542236, 1.7929414510726929, 7.058995723724365, -0.25433412194252014, -0.7248522043228149, -1.3038272857666016, 0.6025390625, 0.185791015625, -0.698974609375
205, 1677078701, -6.32882833480835, 1.8133372068405151, 7.101000785827637, -0.21085655689239502, -0.7486976981163025, -1.3767082691192627, 0.6025390625, 0.187744140625, -0.701416015625
206, 1677095368, -6.340353012084961, 1.812172293663025, 7.1049909591674805, -0.25446218252182007, -0.9088922142982483, -1.4643163681030273, 0.60205078125, 0.186279296875, -0.7021484375
207, 1677112035, -6.328896522521973, 1.8100262880325317, 7.062628269195557, -0.31930071115493774, -0.8101809024810791, -1.4596163034439087, 0.59912109375, 0.185791015625, -0.699951171875
208, 1677128702, -6.332400321960449, 1.8128533363342285, 7.089527130126953, -0.3313130736351013, -0.7425249814987183, -1.3995932340621948, 0.603515625, 0.186767578125, -0.70166015625
209, 1677145369, -6.33104133605957, 1.8153293132781982, 7.07457971572876, -0.26861318945884705, -0.7043620347976685, -1.411439061164856, 0.6015625, 0.186279296875, -0.700927734375
210, 1677162036, -6.34067440032959, 1.8166252374649048, 7.086001873016357, -0.292868435382843, -0.7532951235771179, -1.3942657709121704, 0.60107421875, 0.187255859375, -0.700439453125
211, 1677178703, -6.3369669914245605, 1.7986171245574951, 7.074273109436035, -0.26688429713249207, -0.7725815176963806, -1.360124111175537, 0.60107421875, 0.184326171875, -0.700927734375
212, 1677195370, -6.328823566436768, 1.8039041757583618, 7.081097602844238, -0.2757975459098816, -0.7752707600593567, -1.3960586786270142, 0.60205078125, 0.185302734375, -0.701416015625
213, 1677212037, -6.340811252593994, 1.8050068616867065, 7.074352741241455, -0.22768406569957733, -0.8307222723960876, -1.376055121421814, 0.60205078125, 0.184326171875, -0.70361328125
214, 1677228704, -6.325780391693115, 1.8010153770446777, 7.072614669799805, -0.23508617281913757, -0.8834460973739624, -1.3629029989242554, 0.60107421875, 0.186279296875, -0.698974609375
215, 1677245371, -6.33699893951416, 1.8160516023635864, 7.082029342651367, -0.27268561720848083, -0.8348972201347351, -1.3066831827163696, 0.60302734375, 0.186767578125, -0.698974609375
216, 1677262038, -6.329169273376465, 1.793363094329834, 7.0736613273620605, -0.17515245079994202, -0.6988553404808044, -1.2619506120681763, 0.6015625, 0.185302734375, -0.700927734375
217, 1677278705, -6.326414585113525, 1.8064883947372437, 7.073138236999512, -0.13928185403347015, -0.6970752477645874, -1.3663862943649292, 0.6015625, 0.187744140625, -0.700927734375
218, 1677295372, -6.330212593078613, 1.8189399242401123, 7.0786566734313965, -0.19071216881275177, -0.6806958913803101, -1.3263665437698364, 0.599609375, 0.186767578125, -0.70263671875
219, 1677312039, -6.340003490447998, 1.8006139993667603, 7.058744430541992, -0.2741583287715912, -0.6987016797065735, -1.4685297012329102, 0.60107421875, 0.186767578125, -0.701416015625
220, 1677328706, -6.343440532684326, 1.8078700304031372, 7.075979709625244, -0.31392204761505127, -0.7247625589370728, -1.4465155601501465, 0.60107421875, 0.185791015625, -0.699462890625
221, 1677345373, -6.326479911804199, 1.8067692518234253, 7.097769260406494, -0.2663592994213104, -0.798539936542511, -1.4325311183929443, 0.6015625, 0.186767578125, -0.70166015625
222, 1677362040, -6.343780994415283, 1.7932957410812378, 7.088700294494629, -0.4110710024833679, -0.776039183139801, -1.4029996395111084, 0.6005859375, 0.185302734375, -0.700927734375
223, 1677378707, -6.333301067352295, 1.7997711896896362, 7.077856540679932, -0.26514267921447754, -0.8325536251068115, -1.4641499519348145, 0.60302734375, 0.186279296875, -0.703125
224, 1677395374, -6.342513561248779, 1.8041423559188843, 7.080402851104736, -0.32452574372291565, -0.8129728436470032, -1.4402790069580078, 0.59912109375, 0.185302734375, -0.701416015625
225, 1677412041, -6.333792686462402, 1.8057262897491455, 7.065104007720947, -0.34449082612991333, -0.8233458995819092, -1.412015438079834, 0.60302734375, 0.185302734375, -0.7021484375
226, 1677428708, -6.331150054931641, 1.8087348937988281, 7.080112934112549, -0.36601826548576355, -0.7795993089675903, -1.4036527872085571, 0.599609375, 0.187255859375, -0.700927734375
227, 1677445375, -6.324856758117676, 1.798550009727478, 7.085394382476807, -0.3088635206222534, -0.6970239877700806, -1.4702842235565186, 0.5986328125, 0.185791015625, -0.698974609375
228, 1677462042, -6.336000442504883, 1.8056994676589966, 7.0606889724731445, -0.27911439538002014, -0.8916422724723816, -1.398671269416809, 0.60205078125, 0.185791015625, -0.701416015625
229, 1677478709, -6.345384120941162, 1.8051210641860962, 7.080501079559326, -0.39233529567718506, -0.8577052354812622, -1.5065644979476929, 0.6005859375, 0.184326171875, -0.700927734375
230, 1677495376, -6.326288223266602, 1.812883973121643, 7.075789928436279, -0.5083222985267639, -1.0347145795822144, -1.5711979866027832, 0.60205078125, 0.186767578125, -0.7021484375
231, 1677512043, -6.336798191070557, 1.7885392904281616, 7.071667194366455, -0.4452126920223236, -0.9131438136100769, -1.6292107105255127, 0.60107421875, 0.187744140625, -0.70263671875
232, 1677528710, -6.331303596496582, 1.775786280632019, 7.111372947692871, -0.37327954173088074, -0.8955736756324768, -1.5222524404525757, 0.60009765625, 0.186279296875, -0.701416015625
233, 1677545377, -6.33240270614624, 1.7853974103927612, 7.099006652832031, -0.38212865591049194, -0.7737084031105042, -1.3908591270446777, 0.60107421875, 0.187255859375, -0.70361328125
234, 1677562044, -6.316166400909424, 1.8164849281311035, 7.089766979217529, -0.36125436425209045, -0.8683217763900757, -1.4433525800704956, 0.60205078125, 0.188720703125, -0.701171875
235, 1677578711, -6.329890251159668, 1.791184902191162, 7.1066741943359375, -0.44762036204338074, -0.9251947999000549, -1.4716675281524658, 0.6025390625, 0.188232421875, -0.70458984375
236, 1677595378, -6.330478191375732, 1.7975022792816162, 7.079766273498535, -0.4494132101535797, -0.9874463081359863, -1.4874062538146973, 0.6025390625, 0.185791015625, -0.70263671875
237, 1677612045, -6.328981399536133, 1.7695084810256958, 7.081166744232178, -0.3049832284450531, -0.9297794699668884, -1.4131296873092651, 0.60107421875, 0.188232421875, -0.700439453125
238, 1677628712, -6.345529079437256, 1.7834051847457886, 7.107294082641602, -0.2154156118631363, -0.8932300806045532, -1.338519811630249, 0.6025390625, 0.187744140625, -0.701416015625
239, 1677645379, -6.335715293884277, 1.7968322038650513, 7.102719306945801, -0.1335061937570572, -0.8388159275054932, -1.2131967544555664, 0.6005859375, 0.186767578125, -0.7021484375
240, 1677662046, -6.328349590301514, 1.7893551588058472, 7.090744495391846, -0.17858454585075378, -0.8774526119232178, -1.260554552078247, 0.60107421875, 0.187744140625, -0.701171875
241, 1677678713, -6.326804161071777, 1.797542929649353, 7.076836585998535, -0.14450685679912567, -0.8314266800880432, -1.3033534288406372, 0.60205078125, 0.186279296875, -0.699951171875
242, 1677695380, -6.3140716552734375, 1.785331130027771, 7.0680999755859375, -0.1580047458410263, -0.8870317935943604, -1.254279375076294, 0.6005859375, 0.186767578125, -0.7021484375
243, 1677712047, -6.31790018081665, 1.791107416152954, 7.088737487792969, -0.177470400929451, -0.9040259122848511, -1.296233057975769, 0.6025390625, 0.187744140625, -0.70361328125
244, 1677728714, -6.334415435791016, 1.7949647903442383, 7.069935321807861, -0.22210052609443665, -0.8275847434997559, -1.4133343696594238, 0.6015625, 0.186279296875, -0.701416015625
245, 1677745381, -6.326768398284912, 1.7906819581985474, 7.0730743408203125, -0.2692022919654846, -0.9086360931396484, -1.3201682567596436, 0.60205078125, 0.186279296875, -0.7021484375
246, 1677762048, -6.3349103927612305, 1.7929205894470215, 7.08067512512207, -0.10533224046230316, -0.8951383233070374, -1.2434581518173218, 0.6005859375, 0.188232421875, -0.70166015625
247, 1677778715, -6.329476833343506, 1.7851159572601318, 7.109625339508057, -0.0925130695104599, -0.8702170252799988, -1.343065857887268, 0.6025390625, 0.186279296875, -0.70166015625
248, 1677795382, -6.319110870361328, 1.787920355796814, 7.082910537719727, -0.13610588014125824, -0.8364850878715515, -1.2269251346588135, 0.60205078125, 0.186767578125, -0.703125
249, 1677812049, -6.317923545837402, 1.7810155153274536, 7.085938930511475, -0.10712511837482452, -0.8098095655441284, -1.208752989768982, 0.60205078125, 0.187255859375, -0.705078125
250, 1677828716, -6.336865425109863, 1.8022069931030273, 7.081740379333496, -0.20559312403202057, -0.8602536916732788, -1.266304612159729, 0.6005859375, 0.187255859375, -0.70166015625
251, 1677845383, -6.336779594421387, 1.797561526298523, 7.07155179977417, -0.19995833933353424, -0.860496997833252, -1.3471125364303589, 0.6005859375, 0.186767578125, -0.699951171875
252, 1677862050, -6.327898025512695, 1.791852593421936, 7.08742094039917, -0.24289804697036743, -0.8239734172821045, -1.274513602256775, 0.60009765625, 0.187744140625, -0.701171875
253, 1677878717, -6.340150356292725, 1.7934246063232422, 7.082334995269775, -0.23055271804332733, -0.7672284245491028, -1.3406966924667358, 0.6005859375, 0.187744140625, -0.700439453125
254, 1677895384, -6.331208229064941, 1.7903119325637817, 7.109569072723389, -0.2507099211215973, -0.6816692352294922, -1.335919976234436, 0.6015625, 0.188720703125, -0.70166015625
255, 1677912051, -6.33560848236084, 1.7909733057022095, 7.0897345542907715, -0.20720675587654114, -0.7063982486724854, -1.3875296115875244, 0.60400390625, 0.186279296875, -0.7021484375
256, 1677928718, -6.327230930328369, 1.8084511756896973, 7.098432540893555, -0.21760550141334534, -0.7336117625236511, -1.4219914674758911, 0.60009765625, 0.186279296875, -0.699462890625
257, 1677945385, -6.31646203994751, 1.7778226137161255, 7.082174301147461, -0.2907809615135193, -0.6697719693183899, -1.3972752094268799, 0.60009765625, 0.185302734375, -0.701416015625
258, 1677962052, -6.319163799285889, 1.7853052616119385, 7.093388557434082, -0.2391842156648636, -0.7658581733703613, -1.425039529800415, 0.60107421875, 0.188720703125, -0.698974609375
259, 1677978719, -6.341909885406494, 1.7921428680419922, 7.098625659942627, -0.2505178153514862, -0.6881235837936401, -1.3268914222717285, 0.60009765625, 0.187255859375, -0.70166015625
260, 1677995386, -6.322521209716797, 1.794535517692566, 7.090183258056641, -0.17659957706928253, -0.6664808988571167, -1.3600599765777588, 0.6025390625, 0.185302734375, -0.7021484375
261, 1678012053, -6.317652225494385, 1.803812026977539, 7.074287414550781, -0.2269284725189209, -0.7343288064002991, -1.4083269834518433, 0.6005859375, 0.186767578125, -0.701171875
262, 1678028720, -6.337299823760986, 1.7864018678665161, 7.094023704528809, -0.31257742643356323, -0.7195248603820801, -1.4178423881530762, 0.60009765625, 0.188720703125, -0.70361328125
263, 1678045387, -6.3341288566589355, 1.7965716123580933, 7.103003025054932, -0.1117994412779808, -0.7278873324394226, -1.4164848327636719, 0.6015625, 0.188720703125, -0.700439453125
264, 1678062054, -6.327064514160156, 1.7895647287368774, 7.07633638381958, -0.2544749677181244, -0.7181159853935242, -1.3530676364898682, 0.6005859375, 0.186279296875, -0.698974609375
265, 1678078721, -6.334161758422852, 1.80517578125, 7.069183349609375, -0.25680574774742126, -0.7375945448875427, -1.4698745012283325, 0.6015625, 0.187255859375, -0.701416015625
266, 1678095388, -6.341748237609863, 1.7846554517745972, 7.068430423736572, -0.3267284035682678, -0.8046613931655884, -1.4051384925842285, 0.599609375, 0.187744140625, -0.70166015625
267, 1678112055, -6.323973655700684, 1.810145378112793, 7.077776908874512, -0.3815780282020569, -0.9042820334434509, -1.4287917613983154, 0.6025390625, 0.188232421875, -0.703125
268, 1678128722, -6.327921390533447, 1.7690176963806152, 7.083545684814453, -0.25891876220703125, -0.8290318846702576, -1.3977234363555908, 0.60302734375, 0.187744140625, -0.70166015625
269, 1678145389, -6.330148696899414, 1.792682409286499, 7.078880310058594, -0.2482639104127884, -0.6925033330917358, -1.4555952548980713, 0.60107421875, 0.187744140625, -0.701171875
270, 1678162056, -6.333735942840576, 1.7939413785934448, 7.0750732421875, -0.1861402988433838, -0.7495940327644348, -1.3404022455215454, 0.60009765625, 0.186767578125, -0.700927734375
271, 1678178723, -6.327146530151367, 1.7947144508361816, 7.061673164367676, -0.22002588212490082, -0.7316778898239136, -1.3642091751098633, 0.6015625, 0.184814453125, -0.700439453125
272, 1678195390, -6.343196392059326, 1.7861162424087524, 7.096759796142578, -0.12706461548805237, -0.6500118970870972, -1.369728684425354, 0.6025390625, 0.186279296875, -0.70263671875
273, 1678212057, -6.319139003753662, 1.7804875373840332, 7.094235897064209, -0.10055546462535858, -0.735007643699646, -1.2662534713745117, 0.60205078125, 0.185302734375, -0.70263671875
274, 1678228724, -6.330947399139404, 1.7836570739746094, 7.081522464752197, -0.026598788797855377, -0.6385630369186401, -1.1824871301651, 0.60400390625, 0.185791015625, -0.7021484375
275, 1678245391, -6.331658363342285, 1.792620301246643, 7.069721698760986, -0.0501880869269371, -0.678851842880249, -1.2203043699264526, 0.60205078125, 0.186767578125, -0.699462890625
276, 1678262058, -6.343331813812256, 1.7970268726348877, 7.085974216461182, -0.08080806583166122, -0.6429170966148376, -1.209879994392395, 0.60205078125, 0.186767578125, -0.700927734375
277, 1678278725, -6.324766159057617, 1.800246000289917, 7.090351581573486, 0.010994250886142254, -0.7716209888458252, -1.1539802551269531, 0.60107421875, 0.188232421875, -0.699462890625
278, 1678295392, -6.3448286056518555, 1.7890040874481201, 7.099316120147705, -0.04320862144231796, -0.7509771585464478, -1.1458353996276855, 0.60302734375, 0.186279296875, -0.700439453125
279, 1678312059, -6.330511569976807, 1.7863738536834717, 7.083898544311523, -0.052006591111421585, -0.8003328442573547, -1.2043604850769043, 0.6005859375, 0.188232421875, -0.701171875
280, 1678328726, -6.335423469543457, 1.802781343460083, 7.083885192871094, -0.0342697948217392, -0.8359088897705078, -1.09557044506073, 0.6015625, 0.187255859375, -0.701416015625
281, 1678345393, -6.3371477127075195, 1.7971460819244385, 7.076841831207275, -0.12785860896110535, -0.7551648020744324, -1.153557538986206, 0.60205078125, 0.187744140625, -0.699951171875
282, 1678362060, -6.336182117462158, 1.794942021369934, 7.086393356323242, -0.21468564867973328, -0.8804365396499634, -1.3609306812286377, 0.6005859375, 0.186279296875, -0.699462890625
283, 1678378727, -6.345337390899658, 1.7961409091949463, 7.087985992431641, -0.28013888001441956, -0.9312264919281006, -1.3023416996002197, 0.6015625, 0.185791015625, -0.70361328125
284, 1678395394, -6.339480876922607, 1.7974698543548584, 7.08677864074707, -0.3555555045604706, -0.9257325530052185, -1.301675796508789, 0.60302734375, 0.187255859375, -0.7021484375
285, 1678412061, -6.337043285369873, 1.7906547784805298, 7.091933727264404, -0.3345530927181244, -0.9345689415931702, -1.3165953159332275, 0.6015625, 0.187255859375, -0.70166015625
286, 1678428728, -6.333284854888916, 1.7783677577972412, 7.086762428283691, -0.22043569386005402, -0.9248489141464233, -1.3603160381317139, 0.6015625, 0.185302734375, -0.698486328125
287, 1678445395, -6.316151142120361, 1.8014566898345947, 7.0890278816223145, -0.32512763142585754, -0.9964237809181213, -1.2074339389801025, 0.6005859375, 0.187255859375, -0.70361328125
288, 1678462062, -6.330132007598877, 1.7886947393417358, 7.085904598236084, -0.24106672406196594, -1.0527971982955933, -1.317594051361084, 0.60009765625, 0.186279296875, -0.701416015625
289, 1678478729, -6.3304948806762695, 1.783875584602356, 7.095460414886475, -0.1897132694721222, -0.9151674509048462, -1.3445130586624146, 0.6025390625, 0.187255859375, -0.699951171875
290, 1678495396, -6.326303005218506, 1.7795801162719727, 7.0985188484191895, -0.1418943703174591, -0.8919239044189453, -1.2518079280853271, 0.6005859375, 0.186279296875, -0.70361328125
291, 1678512063, -6.3209710121154785, 1.8002139329910278, 7.086645126342773, -0.1660599410533905, -0.8508154153823853, -1.2668553590774536, 0.6015625, 0.185791015625, -0.7021484375
292, 1678528730, -6.330120086669922, 1.8018600940704346, 7.061440944671631, -0.30545705556869507, -0.914783239364624, -1.230229377746582, 0.6005859375, 0.186767578125, -0.70458984375
293, 1678545397, -6.315383434295654, 1.7943233251571655, 7.0727338790893555, -0.23004046082496643, -0.910224199295044, -1.3158525228500366, 0.60205078125, 0.185791015625, -0.70263671875
294, 1678562064, -6.324778079986572, 1.7939568758010864, 7.086747646331787, -0.21332819759845734, -0.8971617817878723, -1.4087882041931152, 0.60107421875, 0.187744140625, -0.701171875
295, 1678578731, -6.337749004364014, 1.7999211549758911, 7.106439590454102, -0.30827444791793823, -0.840096652507782, -1.3013299703598022, 0.6015625, 0.185791015625, -0.7021484375
296, 1678595398, -6.32674503326416, 1.8039238452911377, 7.10396146774292, -0.2640541195869446, -0.896598219871521, -1.3354718685150146, 0.6015625, 0.185302734375, -0.703125
297, 1678612065, -6.324212551116943, 1.7871699333190918, 7.070724964141846, -0.23570089042186737, -0.8940497636795044, -1.3599704504013062, 0.60205078125, 0.186279296875, -0.70263671875
298, 1678628732, -6.32235050201416, 1.7815589904785156, 7.09114933013916, -0.28555595874786377, -0.8741486072540283, -1.4117846488952637, 0.60302734375, 0.186767578125, -0.70166015625
299, 1678645399, -6.307432174682617, 1.79296875, 7.093878269195557, -0.21636326611042023, -0.8754547834396362, -1.317299485206604, 0.5986328125, 0.186279296875, -0.698486328125
300, 1678662066, -6.318222522735596, 1.7903722524642944, 7.085391044616699, -0.17315465211868286, -0.8039441704750061, -1.2977954149246216, 0.60009765625, 0.185302734375, -0.700927734375
301, 1678678733, -6.315057277679443, 1.8033918142318726, 7.06967830657959, -0.17137457430362701, -0.8319644927978516, -1.3309638500213623, 0.59912109375, 0.186279296875, -0.703125
302, 1678695400, -6.329839706420898, 1.7887837886810303, 7.0782341957092285, -0.21162495017051697, -0.9388975501060486, -1.273950219154358, 0.6015625, 0.186279296875, -0.70263671875
303, 1678712067, -6.3259711265563965, 1.785628318786621, 7.082484722137451, -0.19153176248073578, -0.9142197370529175, -1.2550222873687744, 0.60400390625, 0.186767578125, -0.7021484375
304, 1678728734, -6.320441722869873, 1.7891485691070557, 7.1010637283325195, -0.17661237716674805, -0.8061341643333435, -1.2640635967254639, 0.6005859375, 0.186767578125, -0.699951171875
305, 1678745401, -6.330788612365723, 1.8064548969268799, 7.088606834411621, -0.22098638117313385, -0.7820965647697449, -1.2732330560684204, 0.60205078125, 0.186767578125, -0.701416015625
306, 1678762068, -6.3207902908325195, 1.7985172271728516, 7.080296039581299, -0.3387663662433624, -0.9187788367271423, -1.317875862121582, 0.599609375, 0.185302734375, -0.699951171875
307, 1678778735, -6.310783386230469, 1.7965372800827026, 7.089667320251465, -0.29116517305374146, -0.8881973028182983, -1.339672327041626, 0.60107421875, 0.188232421875, -0.70166015625
308, 1678795402, -6.321096420288086, 1.786247730255127, 7.0765275955200195, -0.29066571593284607, -0.9115687012672424, -1.3574347496032715, 0.6025390625, 0.188232421875, -0.70458984375
309, 1678812069, -6.315746784210205, 1.7914096117019653, 7.0974836349487305, -0.2609933912754059, -0.8852901458740234, -1.464137077331543, 0.6005859375, 0.185791015625, -0.7021484375
310, 1678828736, -6.323572635650635, 1.7858260869979858, 7.101251125335693, -0.3983287513256073, -0.8977764248847961, -1.383367657661438, 0.6025390625, 0.185791015625, -0.70166015625
311, 1678845403, -6.324790954589844, 1.7955907583236694, 7.092495918273926, -0.4816083312034607, -0.8752371668815613, -1.434208631515503, 0.6015625, 0.186279296875, -0.701416015625
312, 1678862070, -6.316553115844727, 1.7889997959136963, 7.095852375030518, -0.365864634513855, -0.8885173797607422, -1.4700666666030884, 0.60009765625, 0.185302734375, -0.700439453125
313, 1678878737, -6.324143886566162, 1.7725378274917603, 7.087359428405762, -0.3229249119758606, -0.7790358662605286, -1.4503448009490967, 0.60107421875, 0.187255859375, -0.7021484375
314, 1678895404, -6.320472240447998, 1.777855396270752, 7.083540916442871, -0.26564210653305054, -0.7860281467437744, -1.3617503643035889, 0.5986328125, 0.187744140625, -0.70361328125
315, 1678912071, -6.320616245269775, 1.7823517322540283, 7.081188678741455, -0.348665714263916, -0.8629559278488159, -1.4381275177001953, 0.60009765625, 0.187255859375, -0.70458984375
316, 1678928738, -6.313445091247559, 1.7893482446670532, 7.076244354248047, -0.4406024217605591, -0.9433669447898865, -1.480721354484558, 0.60107421875, 0.186279296875, -0.701416015625
317, 1678945405, -6.329795837402344, 1.7866227626800537, 7.1178131103515625, -0.49464523792266846, -1.0016999244689941, -1.552833914756775, 0.60107421875, 0.187744140625, -0.70263671875
318, 1678962072, -6.323328495025635, 1.7869831323623657, 7.106545925140381, -0.5060557126998901, -0.9678526520729065, -1.4708861112594604, 0.6005859375, 0.188232421875, -0.700927734375
319, 1678978739, -6.3191375732421875, 1.7825376987457275, 7.1074676513671875, -0.4536648988723755, -0.9475162029266357, -1.5731960535049438, 0.59912109375, 0.186279296875, -0.70166015625
320, 1678995406, -6.32288932800293, 1.7783645391464233, 7.115999221801758, -0.3742784261703491, -0.9286524653434753, -1.4634840488433838, 0.59814453125, 0.186279296875, -0.70263671875
321, 1679012073, -6.324623107910156, 1.7819699048995972, 7.105449199676514, -0.20646396279335022, -0.8938704133033752, -1.424898386001587, 0.6005859375, 0.185791015625, -0.70458984375
322, 1679028740, -6.324735641479492, 1.7900736331939697, 7.100771903991699, -0.2410283088684082, -0.8310809135437012, -1.3735194206237793, 0.6005859375, 0.187744140625, -0.7041015625
323, 1679045407, -6.319254398345947, 1.7698804140090942, 7.099264621734619, -0.20752689242362976, -0.8599335551261902, -1.2232497930526733, 0.6005859375, 0.187255859375, -0.7021484375
324, 1679062074, -6.333807945251465, 1.7908046245574951, 7.072763442993164, -0.1166786402463913, -0.8437078595161438, -1.281774640083313, 0.59912109375, 0.187744140625, -0.701171875
325, 1679078741, -6.329512596130371, 1.7882081270217896, 7.110334873199463, -0.26533472537994385, -0.7974770069122314, -1.308821678161621, 0.60009765625, 0.187255859375, -0.701171875
326, 1679095408, -6.320023059844971, 1.7817916870117188, 7.088174343109131, -0.1389360874891281, -0.7978996634483337, -1.2811728715896606, 0.6005859375, 0.186279296875, -0.70263671875
327, 1679112075, -6.31467342376709, 1.7635447978973389, 7.0970563888549805, -0.10556274652481079, -0.7785108685493469, -1.1744064092636108, 0.6005859375, 0.185791015625, -0.703125
328, 1679128742, -6.329216003417969, 1.7982982397079468, 7.089794158935547, -0.1229153499007225, -0.8085672855377197, -1.1731384992599487, 0.6025390625, 0.187255859375, -0.70703125
329, 1679145409, -6.327459812164307, 1.7897076606750488, 7.122103214263916, -0.1314828097820282, -0.871523380279541, -1.2159757614135742, 0.6005859375, 0.187255859375, -0.703125
330, 1679162076, -6.314752578735352, 1.8033344745635986, 7.08533239364624, -0.3139476478099823, -0.9906351566314697, -1.2971807718276978, 0.60009765625, 0.188720703125, -0.70458984375
331, 1679178743, -6.321988105773926, 1.7832657098770142, 7.098113059997559, -0.5042499899864197, -1.1267154216766357, -1.435450792312622, 0.6005859375, 0.186767578125, -0.70263671875
332, 1679195410, -6.320256233215332, 1.786797046661377, 7.101373195648193, -0.7100736498832703, -1.230626106262207, -1.566395878791809, 0.60009765625, 0.189208984375, -0.7041015625
333, 1679212077, -6.320356369018555, 1.7948654890060425, 7.095730781555176, -0.7670107483863831, -1.204463005065918, -1.6367028951644897, 0.60205078125, 0.187744140625, -0.7060546875
334, 1679228744, -6.309134006500244, 1.8209426403045654, 7.084941864013672, -0.9885606169700623, -1.2460962533950806, -1.7553025484085083, 0.599609375, 0.187255859375, -0.7041015625
335, 1679245411, -6.316298484802246, 1.74714994430542, 7.112354755401611, -0.5055050253868103, -1.0337797403335571, -1.5576491355895996, 0.599853515625, 0.19091796875, -0.703125
336, 1679262078, -6.315067291259766, 1.7741034030914307, 7.113562107086182, -0.4173845946788788, -0.8207718133926392, -1.4691444635391235, 0.599365234375, 0.189208984375, -0.70361328125
337, 1679278745, -6.308683395385742, 1.7881134748458862, 7.101190567016602, -0.30593088269233704, -0.8738413453102112, -1.3335251808166504, 0.60009765625, 0.188720703125, -0.7021484375
338, 1679295412, -6.321562767028809, 1.7859083414077759, 7.095191478729248, -0.3106052279472351, -0.8872495889663696, -1.3276088237762451, 0.5986328125, 0.188232421875, -0.7021484375
339, 1679312079, -6.314905166625977, 1.7794064283370972, 7.117856979370117, -0.2165682017803192, -0.9076116681098938, -1.3835852146148682, 0.599609375, 0.187255859375, -0.7060546875
340, 1679328746, -6.3047661781311035, 1.772788643836975, 7.080562591552734, -0.3071346580982208, -0.7293088436126709, -1.4616528749465942, 0.60205078125, 0.188232421875, -0.70263671875
341, 1679345413, -6.3050713539123535, 1.7795852422714233, 7.091327667236328, -0.21453195810317993, -0.7255053520202637, -1.423143982887268, 0.6005859375, 0.187255859375, -0.703125
342, 1679362080, -6.300023078918457, 1.7657889127731323, 7.091867446899414, -0.09889063239097595, -0.6295472979545593, -1.360405683517456, 0.6005859375, 0.187744140625, -0.7021484375
343, 1679378747, -6.307463645935059, 1.7685095071792603, 7.128355026245117, -0.14344392716884613, -0.6447741389274597, -1.266484022140503, 0.60009765625, 0.189208984375, -0.7041015625
344, 1679395414, -6.306051254272461, 1.7882782220840454, 7.0911865234375, -0.01197393611073494, -0.6690420508384705, -1.259978175163269, 0.599609375, 0.188720703125, -0.7041015625
345, 1679412081, -6.31146240234375, 1.7771778106689453, 7.107858180999756, -0.09147575497627258, -0.6583232283592224, -1.2099823951721191, 0.60009765625, 0.187255859375, -0.70361328125
346, 1679428748, -6.306237697601318, 1.7770720720291138, 7.091607570648193, -0.12292815744876862, -0.7675102353096008, -1.2179350852966309, 0.60205078125, 0.188232421875, -0.703125
347, 1679445415, -6.3217034339904785, 1.76828134059906, 7.102555751800537, -0.12911362946033478, -0.8257662057876587, -1.2333667278289795, 0.60009765625, 0.187744140625, -0.70556640625
348, 1679462082, -6.314080715179443, 1.7613983154296875, 7.1059465408325195, -0.07431525737047195, -0.8485487103462219, -1.0955833196640015, 0.6005859375, 0.189453125, -0.701171875
349, 1679478749, -6.313629627227783, 1.783929705619812, 7.106322765350342, -0.1346459686756134, -0.8374457359313965, -1.153852105140686, 0.599609375, 0.188720703125, -0.70166015625
350, 1679495416, -6.318898677825928, 1.786800503730774, 7.1114888191223145, -0.1988057643175125, -0.935196578502655, -1.287947416305542, 0.60009765625, 0.188232421875, -0.703125
351, 1679512083, -6.31508207321167, 1.7835677862167358, 7.100226879119873, -0.17580558359622955, -1.0526564121246338, -1.3075796365737915, 0.600341796875, 0.189208984375, -0.7060546875
352, 1679528750, -6.31351900100708, 1.7900277376174927, 7.097394943237305, -0.4083304703235626, -1.0965181589126587, -1.3838286399841309, 0.598388671875, 0.187744140625, -0.7060546875
353, 1679545417, -6.324776649475098, 1.7838711738586426, 7.113435745239258, -0.4725286662578583, -1.180527687072754, -1.5413849353790283, 0.60009765625, 0.188720703125, -0.703125
354, 1679562084, -6.305440425872803, 1.772972822189331, 7.128744125366211, -0.37429118156433105, -1.101615071296692, -1.4046003818511963, 0.5986328125, 0.186767578125, -0.7041015625
355, 1679578751, -6.308687686920166, 1.715829610824585, 7.116001605987549, -0.1928764432668686, -0.9219163060188293, -1.2730792760849, 0.6015625, 0.188720703125, -0.70361328125
356, 1679595418, -6.327915191650391, 1.7961517572402954, 7.103224754333496, -0.07300899922847748, -0.9521905183792114, -1.1399059295654297, 0.59912109375, 0.187744140625, -0.70458984375
357, 1679612085, -6.3144025802612305, 1.7760446071624756, 7.110874652862549, -0.15041059255599976, -0.8451807498931885, -1.159141182899475, 0.59912109375, 0.188232421875, -0.7041015625
358, 1679628752, -6.299465179443359, 1.7416731119155884, 7.119655132293701, 0.09739868342876434, -0.5917045474052429, -1.001469373703003, 0.599609375, 0.188232421875, -0.703125
359, 1679645419, -6.306018352508545, 1.8154081106185913, 7.070976734161377, -0.005942146759480238, -0.816520094871521, -0.8934863209724426, 0.60107421875, 0.189453125, -0.70458984375
360, 1679662086, -6.314640522003174, 1.789590835571289, 7.0787200927734375, -0.16781440377235413, -1.1139603853225708, -0.9768043756484985, 0.599609375, 0.187744140625, -0.70556640625
361, 1679678753, -6.315079212188721, 1.7459313869476318, 7.122143268585205, -0.16791684925556183, -1.2285898923873901, -1.0104721784591675, 0.59912109375, 0.186767578125, -0.7021484375
362, 1679695420, -6.297621726989746, 1.7777917385101318, 7.106472969055176, 0.1934335082769394, -0.9324559569358826, -0.7873215675354004, 0.60009765625, 0.187744140625, -0.70361328125
363, 1679712087, -6.311140060424805, 1.805355191230774, 7.099828720092773, 0.11779920756816864, -0.9430980086326599, -0.9017974734306335, 0.60205078125, 0.186767578125, -0.70556640625
364, 1679728754, -6.309062957763672, 1.8110134601593018, 7.095418930053711, -0.288040429353714, -1.0307061672210693, -1.1952550411224365, 0.5986328125, 0.187255859375, -0.703125
365, 1679745421, -6.308945655822754, 1.8081574440002441, 7.095036029815674, -0.5710093975067139, -1.1742138862609863, -1.4177266359329224, 0.597900390625, 0.187744140625, -0.705078125
366, 1679762088, -6.314173698425293, 1.7860627174377441, 7.1012349128723145, -0.6337478160858154, -1.4330817461013794, -1.4868685007095337, 0.596923828125, 0.188232421875, -0.70458984375
367, 1679778755, -6.301915168762207, 1.763082504272461, 7.115338325500488, -0.6915813088417053, -1.6275076866149902, -1.3762215375900269, 0.60009765625, 0.187255859375, -0.70556640625
368, 1679795422, -6.3200812339782715, 1.752599835395813, 7.081884860992432, -0.5118569731712341, -1.597617506980896, -1.0989255905151367, 0.597412109375, 0.185791015625, -0.706787109375
369, 1679812089, -6.317997932434082, 1.6960946321487427, 7.106586456298828, 0.5530229210853577, -1.181962013244629, -0.26063477993011475, 0.6015625, 0.188720703125, -0.707763671875
370, 1679828756, -6.286715507507324, 1.7684303522109985, 7.103933811187744, 1.6854757070541382, -0.801318883895874, 0.5185867547988892, 0.598876953125, 0.187744140625, -0.707763671875
371, 1679845423, -6.27313756942749, 1.813570261001587, 7.094789028167725, 1.939131259918213, -1.0046069622039795, 0.8225967288017273, 0.599609375, 0.184814453125, -0.70361328125
372, 1679862090, -6.290948390960693, 1.7770005464553833, 7.100150108337402, 2.346142530441284, -0.6373720169067383, 1.009261965751648, 0.599609375, 0.186279296875, -0.703125
373, 1679878757, -6.283422470092773, 1.8311481475830078, 7.1141133308410645, 2.5841357707977295, -0.44621166586875916, 1.2892985343933105, 0.599609375, 0.185302734375, -0.7060546875
374, 1679895424, -6.293488502502441, 1.8236372470855713, 7.118772506713867, 2.2998733520507812, -0.3875201642513275, 1.225138783454895, 0.60009765625, 0.18408203125, -0.70703125
375, 1679912091, -6.294682502746582, 1.87997305393219, 7.094352722167969, 2.1349401473999023, -0.1688005030155182, 0.8176022171974182, 0.6005859375, 0.18310546875, -0.705078125
376, 1679928758, -6.250314235687256, 1.8520063161849976, 7.089222431182861, 2.2863240242004395, 0.19424031674861908, 0.8525635004043579, 0.5966796875, 0.180419921875, -0.705078125
377, 1679945425, -6.216798305511475, 1.9531645774841309, 7.091152191162109, 2.0357935428619385, 1.2058907747268677, 0.34903067350387573, 0.59912109375, 0.18017578125, -0.7041015625
378, 1679962092, -6.229864597320557, 1.9338817596435547, 7.082967758178711, 1.673092007637024, 2.497718572616577, -0.23678943514823914, 0.599609375, 0.18017578125, -0.70263671875
379, 1679978759, -6.314373970031738, 1.8573517799377441, 7.101069450378418, 2.0400195121765137, 3.315173625946045, -0.2581504285335541, 0.6005859375, 0.178955078125, -0.70263671875
380, 1679995426, -6.337080955505371, 1.8363702297210693, 7.092398166656494, 2.734994649887085, 3.7486557960510254, -0.2675246596336365, 0.601806640625, 0.177490234375, -0.702392578125
381, 1680012093, -6.313821315765381, 1.9421555995941162, 7.070483207702637, 2.955315113067627, 4.037131309509277, -0.5769004821777344, 0.601806640625, 0.176513671875, -0.701416015625
382, 1680028760, -6.318460941314697, 1.900105595588684, 7.077172756195068, 2.5208981037139893, 4.2872138023376465, -0.8815762400627136, 0.603271484375, 0.177978515625, -0.699462890625
383, 1680045427, -6.343915939331055, 1.9233793020248413, 7.013364315032959, 1.9667032957077026, 4.405800819396973, -1.320770263671875, 0.604736328125, 0.17822265625, -0.697998046875
384, 1680062094, -6.320237636566162, 1.9800710678100586, 6.994568824768066, 1.590721607208252, 5.066556930541992, -1.7464404106140137, 0.60400390625, 0.175537109375, -0.69775390625
385, 1680078761, -6.27178430557251, 2.0030674934387207, 7.063143730163574, 2.46038818359375, 8.128235816955566, -2.418466806411743, 0.60400390625, 0.175048828125, -0.6953125
386, 1680095428, -6.236029148101807, 1.6420366764068604, 7.209506034851074, 4.6606764793396, 14.410619735717773, -2.699453115463257, 0.60888671875, 0.176513671875, -0.69384765625
387, 1680112095, -6.108052730560303, 0.7086187601089478, 7.754436016082764, 7.541325569152832, 25.424720764160156, -0.25339987874031067, 0.613525390625, 0.17578125, -0.6884765625
388, 1680128762, -6.005334854125977, -0.3502853512763977, 8.600022315979004, 14.631306648254395, 48.04197692871094, 10.24488639831543, 0.61328125, 0.171630859375, -0.67724609375
389, 1680145429, -6.645318508148193, -2.0537526607513428, 10.417350769042969, 27.92631721496582, 78.8819580078125, 36.567562103271484, 0.623291015625, 0.16162109375, -0.6591796875
390, 1680162096, -1.4104334115982056, 1.1684075593948364, 15.093469619750977, -34.73801803588867, 109.22374725341797, 107.51699829101562, 0.6337890625, 0.143310546875, -0.632568359375
391, 1680178763, 1.7055689096450806, -18.243450164794922, 30.31831932067871, -135.01234436035156, 90.88809204101562, 125.03348541259766, 0.6435546875, 0.125, -0.61083984375
392, 1680195430, -1.2418159246444702, -28.532106399536133, 37.08633041381836, -53.579872131347656, -33.22771453857422, 17.415264129638672, 0.64111328125, 0.11474609375, -0.61279296875
393, 1680212097, -2.6393682956695557, -25.654600143432617, 38.65438461303711, 18.97328758239746, -200.92831420898438, -137.44703674316406, 0.625, 0.13427734375, -0.65234375
394, 1680228764, -1.9988549947738647, -17.269060134887695, 32.606224060058594, 31.34330177307129, -303.46990966796875, -217.65371704101562, 0.592041015625, 0.17236328125, -0.71728515625
395, 1680245431, -6.45346736907959, -9.155021667480469, 28.47093391418457, -2.8909358978271484, -334.2722473144531, -228.31991577148438, 0.54833984375, 0.213623046875, -0.7919921875
396, 1680262098, -9.273685455322266, -4.336544036865234, 24.540908813476562, -48.23072052001953, -325.3125915527344, -201.14401245117188, 0.495849609375, 0.26025390625, -0.8623046875
397, 1680278765, -10.947035789489746, -2.4002420902252197, 21.570396423339844, -73.37198638916016, -280.9344482421875, -177.60125732421875, 0.441162109375, 0.302001953125, -0.92333984375
398, 1680295432, -15.788314819335938, -0.9753378629684448, 21.33669090270996, -61.492767333984375, -242.6946258544922, -165.7050323486328, 0.385498046875, 0.34619140625, -0.971435546875
399, 1680312099, -21.068910598754883, 1.6586322784423828, 21.081151962280273, -36.40034103393555, -252.40234375, -148.41348266601562, 0.330810546875, 0.376220703125, -1.015625
400, 1680328766, -19.164016723632812, 3.824435234069824, 16.182605743408203, -40.06745147705078, -282.4571838378906, -126.9151611328125, 0.262939453125, 0.40380859375, -1.056640625
401, 1680345433, -16.251014709472656, 5.321238040924072, 11.07209300994873, -63.1948356628418, -275.8321838378906, -124.98908996582031, 0.1865234375, 0.4326171875, -1.086181640625
402, 1680362100, -16.906414031982422, 7.836866855621338, 6.476468086242676, -63.270843505859375, -255.8986358642578, -133.05694580078125, 0.111328125, 0.460205078125, -1.113525390625
403, 1680378767, -19.726613998413086, 12.08958911895752, -0.36339515447616577, -48.620174407958984, -221.57907104492188, -145.96011352539062, 0.038818359375, 0.48583984375, -1.12841796875
404, 1680395434, -26.254199981689453, 11.76582145690918, -8.002764701843262, 2.1901557445526123, -175.58714294433594, -157.68284606933594, -0.0263671875, 0.499755859375, -1.1357421875
405, 1680412101, -29.09707260131836, 11.206125259399414, -15.099422454833984, 123.09085845947266, -165.82586669921875, -132.1114044189453, -0.082275390625, 0.48046875, -1.15087890625
406, 1680428768, -25.45843505859375, 15.460647583007812, -23.463756561279297, 140.4014892578125, -123.22042846679688, -106.6441879272461, -0.12841796875, 0.44384765625, -1.166748046875
407, 1680445435, -25.54571533203125, 13.411158561706543, -27.980724334716797, 64.40777587890625, -33.57677459716797, -78.02594757080078, -0.149658203125, 0.419677734375, -1.171630859375
408, 1680462102, -24.29656982421875, 10.285795211791992, -27.582704544067383, 18.604223251342773, 68.0118179321289, -29.35621452331543, -0.142333984375, 0.41259765625, -1.169921875
409, 1680478769, -23.84074592590332, 8.881864547729492, -22.11566734313965, -10.330148696899414, 158.05735778808594, 11.391294479370117, -0.10498046875, 0.4130859375, -1.17041015625
410, 1680495436, -25.444326400756836, 9.514305114746094, -14.693336486816406, -41.25751495361328, 215.86410522460938, 37.95549011230469, -0.0458984375, 0.4208984375, -1.16064453125
411, 1680512103, -25.745655059814453, 10.43470287322998, -7.983516693115234, -58.92151641845703, 249.68161010742188, 51.35987854003906, 0.02294921875, 0.435791015625, -1.14453125
412, 1680528770, -23.917903900146484, 10.564608573913574, -1.6987733840942383, -44.4055290222168, 277.7475280761719, 65.42216491699219, 0.097900390625, 0.44091796875, -1.118896484375
413, 1680545437, -22.177045822143555, 10.28156566619873, 5.508543968200684, -19.37197494506836, 305.6865539550781, 91.7425765991211, 0.179443359375, 0.4384765625, -1.085205078125
414, 1680562104, -21.26998519897461, 8.321085929870605, 11.80640697479248, -5.524816513061523, 319.8155517578125, 119.41692352294922, 0.26513671875, 0.426025390625, -1.037353515625
415, 1680578771, -21.157669067382812, 4.6916117668151855, 17.92315673828125, 17.101919174194336, 314.45062255859375, 126.96788024902344, 0.34423828125, 0.40673828125, -0.990234375
416, 1680595438, -16.87967872619629, 1.477360486984253, 21.81772804260254, 45.819889068603516, 305.0859069824219, 118.05826568603516, 0.414306640625, 0.3759765625, -0.933837890625
417, 1680612105, -10.133429527282715, 0.4887632727622986, 26.998552322387695, 57.954742431640625, 303.84808349609375, 105.13447570800781, 0.474609375, 0.3486328125, -0.8759765625
418, 1680628772, -2.9383363723754883, 0.612383246421814, 32.221046447753906, 53.945701599121094, 280.5289306640625, 124.75111389160156, 0.526123046875, 0.314208984375, -0.817626953125
419, 1680645439, 0.3157302141189575, -2.8151984214782715, 33.18790054321289, 26.751482009887695, 215.39657592773438, 154.91339111328125, 0.56298828125, 0.279296875, -0.759765625
420, 1680662106, 0.16678118705749512, -8.632107734680176, 30.988285064697266, 24.561573028564453, 156.69680786132812, 166.32203674316406, 0.586181640625, 0.242431640625, -0.721435546875
421, 1680678773, -2.375676393508911, -11.022480964660645, 27.63585662841797, 19.960596084594727, 101.72175598144531, 146.4809112548828, 0.602294921875, 0.209228515625, -0.693603515625
422, 1680695440, -1.4993643760681152, -11.33266544342041, 25.547882080078125, 22.06349754333496, 66.91294860839844, 110.62635803222656, 0.609130859375, 0.18017578125, -0.679443359375
423, 1680712107, -1.0813813209533691, -7.65050745010376, 23.68170738220215, 5.6838274002075195, 20.25629997253418, 74.60768127441406, 0.614013671875, 0.163818359375, -0.672119140625
424, 1680728774, 0.8792665004730225, -6.867421627044678, 20.918594360351562, 0.11311288177967072, -12.882881164550781, 42.7868537902832, 0.61328125, 0.15673828125, -0.670654296875
425, 1680745441, 1.061481237411499, -6.508376121520996, 16.92685890197754, 28.34726905822754, -30.672374725341797, 17.777061462402344, 0.61181640625, 0.150146484375, -0.68017578125
426, 1680762108, 0.002318374812602997, -4.899339199066162, 13.359820365905762, 46.88566970825195, -15.212207794189453, -23.898218154907227, 0.609130859375, 0.150146484375, -0.686767578125
427, 1680778775, -3.623248338699341, -1.6442102193832397, 13.886735916137695, -111.73161315917969, 14.392834663391113, -138.66432189941406, 0.611572265625, 0.181884765625, -0.68701171875
428, 1680795442, -13.654522895812988, -12.813492774963379, 15.478208541870117, -84.35039520263672, 21.05141258239746, -102.49552917480469, 0.61865234375, 0.22998046875, -0.680908203125
429, 1680812109, -8.38191032409668, -0.03575611859560013, 6.079723358154297, 22.180938720703125, -0.08701995015144348, -46.331600189208984, 0.617919921875, 0.241943359375, -0.680908203125
430, 1680828776, -7.026116371154785, -2.1167991161346436, 6.216771602630615, -1.8959931135177612, 0.4243832528591156, 3.2237746715545654, 0.616943359375, 0.242919921875, -0.68310546875
431, 1680845443, -6.524740695953369, 0.7564756274223328, 6.688627243041992, 10.01640510559082, -0.8653775453567505, 18.215736389160156, 0.615478515625, 0.2373046875, -0.679931640625
432, 1680862110, -7.285455703735352, 2.364060401916504, 6.5051045417785645, 11.26589298248291, -4.7075605392456055, 22.192167282104492, 0.615234375, 0.23095703125, -0.680908203125
433, 1680878777, -6.6346540451049805, 5.109967231750488, 6.826045036315918, 3.4152567386627197, -6.694075584411621, 10.901751518249512, 0.61669921875, 0.226318359375, -0.684814453125
434, 1680895444, -6.631283283233643, 3.5487682819366455, 6.609752655029297, -7.55655574798584, -4.041250705718994, -6.406519889831543, 0.615234375, 0.226318359375, -0.68798828125
435, 1680912111, -6.851658821105957, 2.016832113265991, 6.628599643707275, -11.489550590515137, -8.448333740234375, -12.342108726501465, 0.613525390625, 0.23193359375, -0.68701171875
436, 1680928778, -6.744496822357178, 1.2781319618225098, 6.703503131866455, -11.286395072937012, -14.525946617126465, -11.006370544433594, 0.61279296875, 0.234130859375, -0.690673828125
437, 1680945445, -6.763542175292969, 0.720696210861206, 6.907960414886475, -9.32666301727295, -18.94779396057129, -5.257745265960693, 0.61083984375, 0.238525390625, -0.69384765625
438, 1680962112, -6.616212844848633, 1.1532118320465088, 7.069244861602783, -5.340190410614014, -18.308427810668945, 0.6274670362472534, 0.606689453125, 0.239501953125, -0.69580078125
439, 1680978779, -6.469863414764404, 1.4827545881271362, 7.07920503616333, -1.3056080341339111, -12.296689987182617, 3.588052988052368, 0.605712890625, 0.238037109375, -0.699951171875
440, 1680995446, -6.475561141967773, 1.7352664470672607, 7.00001859664917, 0.48374074697494507, -6.762240886688232, 4.083042621612549, 0.6025390625, 0.23583984375, -0.70458984375
441, 1681012113, -6.4532551765441895, 1.9007476568222046, 6.938028812408447, 0.5070866942405701, -4.370871543884277, 3.187225580215454, 0.604736328125, 0.2353515625, -0.704345703125
442, 1681028780, -6.547979354858398, 2.0101237297058105, 6.866125583648682, -0.331915020942688, -4.233292579650879, 1.4586368799209595, 0.60302734375, 0.23486328125, -0.70556640625
443, 1681045447, -6.575749397277832, 1.8892289400100708, 6.869247913360596, -1.640224575996399, -5.954824924468994, -0.25465425848960876, 0.60302734375, 0.236083984375, -0.70556640625
444, 1681062114, -6.491084575653076, 1.7841269969940186, 6.945105075836182, -2.0330848693847656, -6.845442771911621, -0.6750099062919617, 0.60302734375, 0.23583984375, -0.7060546875
445, 1681078781, -6.517139434814453, 1.693049430847168, 6.969153881072998, -1.6737390756607056, -5.949178218841553, -0.7332788705825806, 0.60205078125, 0.23388671875, -0.70654296875
446, 1681095448, -6.472252368927002, 1.7455402612686157, 7.000115394592285, -1.160447597503662, -4.966520309448242, -0.8639292120933533, 0.6015625, 0.23291015625, -0.7080078125
447, 1681112115, -6.450918674468994, 1.648989200592041, 7.008135795593262, -0.8518657684326172, -3.6918022632598877, -1.005887746810913, 0.598388671875, 0.23583984375, -0.7080078125
448, 1681128782, -6.4666314125061035, 1.6249430179595947, 7.0073113441467285, -0.45913320779800415, -2.929823875427246, -0.5588434934616089, 0.5986328125, 0.2333984375, -0.711181640625
449, 1681145449, -6.477727890014648, 1.664717674255371, 6.975620269775391, 0.22692212462425232, -2.444796323776245, 0.11423903703689575, 0.59912109375, 0.23486328125, -0.709228515625
450, 1681162116, -6.472488880157471, 1.7656573057174683, 6.992370128631592, 0.4009348452091217, -2.325530767440796, 0.16832026839256287, 0.596923828125, 0.23486328125, -0.711181640625
451, 1681178783, -6.461435317993164, 1.8174690008163452, 6.973737716674805, 0.0731818899512291, -2.202282428741455, -0.3606780767440796, 0.6015625, 0.234375, -0.710693359375
452, 1681195450, -6.451663970947266, 1.7827869653701782, 6.990787506103516, -0.2864396870136261, -2.127518892288208, -0.8966109752655029, 0.60009765625, 0.23291015625, -0.712158203125
453, 1681212117, -6.446988105773926, 1.756516933441162, 6.963117599487305, -0.4741295278072357, -2.512388229370117, -1.1145237684249878, 0.598876953125, 0.23486328125, -0.713134765625
454, 1681228784, -6.449374675750732, 1.7271050214767456, 6.987832069396973, -0.6488593220710754, -2.780796766281128, -1.1300451755523682, 0.598876953125, 0.2333984375, -0.713623046875
455, 1681245451, -6.448106288909912, 1.734545350074768, 6.997939586639404, -0.5120619535446167, -2.8168463706970215, -1.0767580270767212, 0.599365234375, 0.234375, -0.713623046875
456, 1681262118, -6.4365010261535645, 1.722391963005066, 6.961910724639893, -0.20405635237693787, -3.0913243293762207, -0.7776911854743958, 0.598388671875, 0.2353515625, -0.712158203125
457, 1681278785, -6.4167070388793945, 1.747082233428955, 7.002442836761475, 0.5995869040489197, -2.9189000129699707, -0.18405283987522125, 0.596435546875, 0.232177734375, -0.713134765625
458, 1681295452, -6.434051513671875, 1.7148092985153198, 7.010410308837891, 1.355327844619751, -2.4386746883392334, 0.0878707617521286, 0.597900390625, 0.232421875, -0.713623046875
459, 1681312119, -6.445761680603027, 1.7175452709197998, 7.041088104248047, 1.8994824886322021, -2.0309207439422607, 0.5233635306358337, 0.598876953125, 0.2333984375, -0.71533203125
460, 1681328786, -6.436243057250977, 1.7346760034561157, 7.006213665008545, 2.0091559886932373, -2.359992504119873, 0.727419912815094, 0.594482421875, 0.230712890625, -0.7158203125
461, 1681345453, -6.3884196281433105, 1.796640157699585, 7.025323867797852, 1.736688256263733, -2.431183099746704, 0.4413772225379944, 0.597412109375, 0.231201171875, -0.7158203125
462, 1681362120, -6.409633159637451, 1.8013672828674316, 7.039351940155029, 1.677676796913147, -1.6906304359436035, -0.053761061280965805, 0.599609375, 0.230712890625, -0.714599609375
463, 1681378787, -6.392582416534424, 1.7828540802001953, 7.017349720001221, 1.2240244150161743, -1.493540644645691, -0.3062126040458679, 0.596923828125, 0.228759765625, -0.7177734375
464, 1681395454, -6.420324325561523, 1.7510063648223877, 6.9806647300720215, 0.634945273399353, -1.6258302927017212, -0.40000641345977783, 0.596435546875, 0.230712890625, -0.71728515625
465, 1681412121, -6.415888786315918, 1.7545806169509888, 7.045041561126709, 0.6980550289154053, -2.0674829483032227, -0.2371479868888855, 0.594970703125, 0.228759765625, -0.7177734375
466, 1681428788, -6.41487979888916, 1.7977256774902344, 7.022319316864014, 1.1168863773345947, -1.7232863903045654, -0.21181701123714447, 0.596435546875, 0.229736328125, -0.7197265625
467, 1681445455, -6.42723274230957, 1.8058630228042603, 6.998806476593018, 1.1577258110046387, -1.6310551166534424, -0.19701287150382996, 0.593994140625, 0.229736328125, -0.7158203125
468, 1681462122, -6.393582344055176, 1.8600579500198364, 6.994091510772705, 0.9763497114181519, -1.8476746082305908, -0.414131760597229, 0.595458984375, 0.228759765625, -0.716796875
469, 1681478789, -6.3937811851501465, 1.8331173658370972, 7.0190582275390625, 0.36689549684524536, -1.901857852935791, -0.6368981003761292, 0.598388671875, 0.229248046875, -0.71826171875
470, 1681495456, -6.387698650360107, 1.804177165031433, 7.0168986320495605, 0.12065501511096954, -1.8443318605422974, -0.8660549521446228, 0.593994140625, 0.22802734375, -0.7177734375
471, 1681512123, -6.380858898162842, 1.812326192855835, 7.004870891571045, -0.27851250767707825, -1.9164191484451294, -0.9931452870368958, 0.594970703125, 0.22802734375, -0.716796875
472, 1681528790, -6.368707180023193, 1.83932626247406, 7.024279594421387, -0.3571819067001343, -2.0987303256988525, -1.1813985109329224, 0.592041015625, 0.22705078125, -0.720703125
473, 1681545457, -6.369091987609863, 1.7937911748886108, 7.025453567504883, -0.27953702211380005, -1.9673370122909546, -1.2606443166732788, 0.592529296875, 0.22705078125, -0.7197265625
474, 1681562124, -6.375735282897949, 1.783445954322815, 7.047075271606445, 0.20840412378311157, -1.6421196460723877, -0.933096170425415, 0.594970703125, 0.228271484375, -0.71728515625
475, 1681578791, -6.3894734382629395, 1.8082411289215088, 7.006358623504639, 0.37392619252204895, -1.6525697708129883, -0.7358143925666809, 0.592529296875, 0.22705078125, -0.71923828125
476, 1681595458, -6.386038303375244, 1.808115839958191, 7.03016471862793, 0.15639756619930267, -1.6457953453063965, -0.7246729731559753, 0.593505859375, 0.2255859375, -0.7197265625
477, 1681612125, -6.385814666748047, 1.799631953239441, 7.032529354095459, 0.4067617356777191, -1.57574462890625, -0.5758119821548462, 0.595947265625, 0.22607421875, -0.72021484375
478, 1681628792, -6.387889862060547, 1.797065019607544, 7.041866779327393, 0.9296320676803589, -0.9449548721313477, -0.33185097575187683, 0.593505859375, 0.22412109375, -0.71875
479, 1681645459, -6.3878374099731445, 1.8240071535110474, 7.047815799713135, 1.0946547985076904, -0.7595574259757996, -0.23086006939411163, 0.592529296875, 0.2255859375, -0.71923828125
480, 1681662126, -6.379632472991943, 1.8287677764892578, 7.041795253753662, 1.6000702381134033, -0.43550556898117065, -0.02497238479554653, 0.592041015625, 0.2275390625, -0.7177734375
481, 1681678793, -6.384548187255859, 1.7907930612564087, 7.049429893493652, 2.194899559020996, 0.12247353792190552, 0.3124813139438629, 0.593017578125, 0.2255859375, -0.71826171875
482, 1681695460, -6.383039474487305, 1.8248364925384521, 7.0284247398376465, 2.1303813457489014, 0.07556386291980743, 0.4611758291721344, 0.593994140625, 0.224609375, -0.720703125
483, 1681712127, -6.377836227416992, 1.8646190166473389, 7.019831657409668, 1.8445175886154175, -0.27574628591537476, 0.4251515865325928, 0.594482421875, 0.224609375, -0.71923828125
484, 1681728794, -6.3985700607299805, 1.8470635414123535, 7.02413272857666, 2.1824262142181396, 0.09054730087518692, 0.593478262424469, 0.595458984375, 0.222412109375, -0.72021484375
485, 1681745461, -6.387814998626709, 1.883420467376709, 7.030850410461426, 2.555180549621582, 0.22538533806800842, 0.7102978229522705, 0.595703125, 0.22265625, -0.71875
486, 1681762128, -6.363479137420654, 1.8895809650421143, 7.02263069152832, 2.460784912109375, 0.26038509607315063, 0.527922511100769, 0.59619140625, 0.222412109375, -0.716796875
487, 1681778795, -6.370889663696289, 1.8844664096832275, 7.007783889770508, 2.2828407287597656, 0.1742624044418335, 0.5534328818321228, 0.593505859375, 0.220947265625, -0.7177734375
488, 1681795462, -6.399450302124023, 1.895035743713379, 7.025346279144287, 2.265859365463257, 0.1190798431634903, 0.5191373825073242, 0.59619140625, 0.218017578125, -0.71728515625
489, 1681812129, -6.370139122009277, 1.9231572151184082, 6.986472129821777, 2.027097702026367, -0.05552833154797554, 0.5208918452262878, 0.5947265625, 0.218994140625, -0.71875
490, 1681828796, -6.373789310455322, 1.9516572952270508, 6.987124443054199, 1.4882580041885376, -0.4075748920440674, 0.17838604748249054, 0.5966796875, 0.217529296875, -0.71875
491, 1681845463, -6.36038064956665, 1.9435863494873047, 7.015202522277832, 0.9165696501731873, -0.6675438284873962, -0.18811248242855072, 0.59619140625, 0.217529296875, -0.71728515625
492, 1681862130, -6.383326053619385, 1.9136450290679932, 6.999590873718262, 0.928466796875, -0.511114239692688, -0.2922408878803253, 0.5947265625, 0.216796875, -0.716552734375
493, 1681878797, -6.378636837005615, 1.9409711360931396, 7.015721321105957, 0.7444778680801392, -0.45872339606285095, -0.3055466413497925, 0.59521484375, 0.21728515625, -0.715087890625
494, 1681895464, -6.382676124572754, 1.9489983320236206, 6.969362258911133, 0.41543155908584595, -0.6689140200614929, -0.6346314549446106, 0.59619140625, 0.216796875, -0.71826171875
495, 1681912131, -6.359587669372559, 1.909636378288269, 6.9904303550720215, 0.24838554859161377, -0.5957001447677612, -0.6651105284690857, 0.59765625, 0.21435546875, -0.71923828125
496, 1681928798, -6.402464389801025, 1.9164860248565674, 7.009850978851318, 1.1327152252197266, 0.06371799111366272, -0.2554226517677307, 0.595703125, 0.21435546875, -0.716064453125
497, 1681945465, -6.378067493438721, 1.9288862943649292, 6.991427898406982, 1.4524643421173096, 0.0043733688071370125, -0.11259342730045319, 0.5966796875, 0.21728515625, -0.7177734375
498, 1681962132, -6.373504161834717, 1.9620281457901, 7.005838394165039, 0.7683618068695068, -0.29819586873054504, -0.4545486271381378, 0.59521484375, 0.21484375, -0.716064453125
499, 1681978799, -6.3766889572143555, 1.9655157327651978, 6.9682936668396, 0.5300356149673462, -0.2163248509168625, -0.5737884640693665, 0.59423828125, 0.2138671875, -0.7177734375
500, 1681995466, -6.396747589111328, 1.921970248222351, 6.99449348449707, 0.8090988993644714, -0.06784804910421371, -0.3387663960456848, 0.597900390625, 0.21484375, -0.717041015625
501, 1682012133, -6.390102863311768, 1.9310840368270874, 7.009080410003662, 0.6482125520706177, -0.07747840881347656, -0.31612470746040344, 0.598388671875, 0.21142578125, -0.716552734375
502, 1682028800, -6.408102035522461, 1.9597402811050415, 6.988335132598877, 0.661723256111145, 0.05103970319032669, -0.3193519413471222, 0.595703125, 0.21240234375, -0.715576171875
503, 1682045467, -6.410136699676514, 1.9392149448394775, 6.992569446563721, 1.3687362670898438, 0.126648411154747, 0.15016086399555206, 0.598388671875, 0.212890625, -0.716064453125
504, 1682062134, -6.392778396606445, 2.0173583030700684, 6.982720375061035, 1.2548238039016724, -0.030107730999588966, 0.07373256236314774, 0.595947265625, 0.210205078125, -0.713623046875
505, 1682078801, -6.403503894805908, 1.997849941253662, 6.958495616912842, 0.5586962103843689, -0.47881653904914856, -0.48908722400665283, 0.597900390625, 0.211669921875, -0.712890625
506, 1682095468, -6.393782615661621, 2.0106208324432373, 6.96305513381958, -0.039571624249219894, -0.9261680841445923, -0.8215145468711853, 0.595458984375, 0.211669921875, -0.714599609375
507, 1682112135, -6.407786846160889, 1.976403832435608, 6.987933158874512, -0.2114456444978714, -1.224940299987793, -1.117904782295227, 0.595947265625, 0.210693359375, -0.715576171875
508, 1682128802, -6.407537937164307, 1.9798822402954102, 6.996241569519043, -0.29453322291374207, -1.2811853885650635, -1.3587406873703003, 0.597412109375, 0.2119140625, -0.716064453125
509, 1682145469, -6.389571189880371, 1.986271858215332, 6.987909317016602, -0.5696008801460266, -1.3999773263931274, -1.5320106744766235, 0.596923828125, 0.211181640625, -0.712890625
510, 1682162136, -6.36861515045166, 1.9998571872711182, 6.955554008483887, -0.8336294293403625, -1.306567907333374, -1.693652629852295, 0.59619140625, 0.21435546875, -0.717041015625
511, 1682178803, -6.377129554748535, 1.9723570346832275, 6.994042873382568, -0.811717689037323, -1.2129406929016113, -1.7461587190628052, 0.59423828125, 0.212646484375, -0.715087890625
512, 1682195470, -6.387039661407471, 1.9819495677947998, 6.955526828765869, -0.863071084022522, -1.189825177192688, -1.8041458129882812, 0.59521484375, 0.2138671875, -0.71826171875
513, 1682212137, -6.375280857086182, 1.989526629447937, 6.96558141708374, -1.2119672298431396, -1.3670393228530884, -1.9380104541778564, 0.596923828125, 0.2119140625, -0.716552734375
514, 1682228804, -6.392071723937988, 1.995345115661621, 6.966629505157471, -1.5313191413879395, -1.53573739528656, -2.301095962524414, 0.59423828125, 0.212646484375, -0.717529296875
515, 1682245471, -6.379508972167969, 1.9546706676483154, 6.948696136474609, -2.09246826171875, -1.779416799545288, -2.615837812423706, 0.59521484375, 0.21435546875, -0.715576171875
516, 1682262138, -6.380724906921387, 1.9445048570632935, 7.009735107421875, -2.1593430042266846, -1.7970385551452637, -2.649839162826538, 0.595703125, 0.2138671875, -0.715087890625
517, 1682278805, -6.383401870727539, 1.9287760257720947, 7.02147912979126, -2.0132992267608643, -1.6765944957733154, -2.509263515472412, 0.59375, 0.21337890625, -0.71826171875
518, 1682295472, -6.372439384460449, 1.9227687120437622, 7.0242085456848145, -1.8680108785629272, -1.6177490949630737, -2.402381181716919, 0.59375, 0.21337890625, -0.717041015625
519, 1682312139, -6.373985290527344, 1.9338003396987915, 7.012331008911133, -1.902472972869873, -1.6696022748947144, -2.47747802734375, 0.59521484375, 0.21484375, -0.717529296875
520, 1682328806, -6.373525142669678, 1.938164234161377, 6.994420528411865, -1.8197566270828247, -1.524595856666565, -2.5142321586608887, 0.5966796875, 0.21728515625, -0.71875
521, 1682345473, -6.372307777404785, 1.9093048572540283, 7.007143020629883, -1.455710530281067, -1.3096541166305542, -2.2633557319641113, 0.5947265625, 0.21630859375, -0.71875
522, 1682362140, -6.374488830566406, 1.9072833061218262, 7.011851787567139, -1.36978018283844, -1.233648657798767, -2.114827871322632, 0.592529296875, 0.21826171875, -0.72021484375
523, 1682378807, -6.3745198249816895, 1.9224927425384521, 7.001491546630859, -1.330169916152954, -1.3718674182891846, -2.1372902393341064, 0.5947265625, 0.21630859375, -0.72119140625
524, 1682395474, -6.3690385818481445, 1.8884574174880981, 7.022302150726318, -1.6083368062973022, -1.436065673828125, -2.2048308849334717, 0.5927734375, 0.2177734375, -0.71826171875
525, 1682412141, -6.365411758422852, 1.9105075597763062, 7.0322794914245605, -1.622308373451233, -1.4142051935195923, -2.1971726417541504, 0.59521484375, 0.21728515625, -0.7197265625
526, 1682428808, -6.362613201141357, 1.899481177330017, 7.035586357116699, -1.4966909885406494, -1.399234652519226, -2.1244709491729736, 0.59619140625, 0.21533203125, -0.71875
527, 1682445475, -6.373816013336182, 1.902937412261963, 7.018853664398193, -1.5111876726150513, -1.3274550437927246, -2.0458145141601562, 0.59375, 0.2177734375, -0.72021484375
528, 1682462142, -6.368059158325195, 1.8889158964157104, 7.003625392913818, -1.4782880544662476, -1.4079172611236572, -2.0691475868225098, 0.59326171875, 0.218505859375, -0.71826171875
529, 1682478809, -6.367987632751465, 1.8934870958328247, 7.031314849853516, -1.3985815048217773, -1.286372184753418, -2.0941455364227295, 0.59375, 0.218994140625, -0.716552734375
530, 1682495476, -6.373788356781006, 1.877136468887329, 7.027371883392334, -1.257161021232605, -1.1168034076690674, -1.9371142387390137, 0.594482421875, 0.221923828125, -0.72021484375
531, 1682512143, -6.375706195831299, 1.8815441131591797, 7.012283802032471, -1.105290412902832, -1.0264161825180054, -1.8640155792236328, 0.594482421875, 0.222412109375, -0.7197265625
532, 1682528810, -6.374373912811279, 1.8705875873565674, 7.026124477386475, -1.0470086336135864, -0.9748066663742065, -1.785742998123169, 0.593017578125, 0.219482421875, -0.720703125
533, 1682545477, -6.3746867179870605, 1.869665265083313, 7.044389247894287, -0.7557666897773743, -0.7805598378181458, -1.785909652709961, 0.59521484375, 0.219482421875, -0.72021484375
534, 1682562144, -6.362172603607178, 1.867552399635315, 7.037638187408447, -0.602717936038971, -0.6695926785469055, -1.7473492622375488, 0.593017578125, 0.219970703125, -0.720703125
535, 1682578811, -6.368257522583008, 1.8587653636932373, 7.0329437255859375, -0.6368341445922852, -0.6989064812660217, -1.6706010103225708, 0.5947265625, 0.219970703125, -0.7197265625
536, 1682595478, -6.3736748695373535, 1.8618272542953491, 7.034677505493164, -0.575645387172699, -0.6582335829734802, -1.6527234315872192, 0.59521484375, 0.220947265625, -0.720703125
537, 1682612145, -6.35861349105835, 1.867750883102417, 7.04013729095459, -0.5015735030174255, -0.30821043252944946, -1.6749426126480103, 0.59521484375, 0.219970703125, -0.71923828125
538, 1682628812, -6.383044242858887, 1.8483275175094604, 7.029599189758301, -0.43996211886405945, -0.11488574743270874, -1.6197983026504517, 0.59521484375, 0.220458984375, -0.72119140625
539, 1682645479, -6.391100883483887, 1.8668321371078491, 7.017412185668945, -0.46741893887519836, -0.33533424139022827, -1.5967211723327637, 0.593505859375, 0.222412109375, -0.7177734375
540, 1682662146, -6.38401985168457, 1.8774256706237793, 7.005875587463379, -0.6572473645210266, -0.7285147905349731, -1.5861302614212036, 0.592041015625, 0.221923828125, -0.7197265625
541, 1682678813, -6.364195823669434, 1.892032265663147, 7.02347469329834, -1.0000991821289062, -1.1662102937698364, -1.7971792221069336, 0.594482421875, 0.222412109375, -0.7177734375
542, 1682695480, -6.380559921264648, 1.8685587644577026, 7.026331424713135, -1.080381989479065, -1.3068879842758179, -1.8699959516525269, 0.59619140625, 0.221435546875, -0.7197265625
543, 1682712147, -6.375310897827148, 1.8538620471954346, 7.000761985778809, -0.9704908132553101, -1.2304598093032837, -1.6981861591339111, 0.593017578125, 0.222412109375, -0.72119140625
544, 1682728814, -6.3673810958862305, 1.8429571390151978, 7.0416579246521, -0.6226831078529358, -1.2568278312683105, -1.461409330368042, 0.594482421875, 0.2236328125, -0.721923828125
545, 1682745481, -6.376004219055176, 1.8520640134811401, 7.033106803894043, -0.4006466865539551, -1.1094526052474976, -1.272656798362732, 0.593017578125, 0.221435546875, -0.72021484375
546, 1682762148, -6.37129545211792, 1.8588756322860718, 7.0203142166137695, -0.4213801324367523, -1.0471622943878174, -1.323907494544983, 0.592041015625, 0.223388671875, -0.721923828125
547, 1682778815, -6.367943286895752, 1.858643651008606, 7.040249824523926, -0.33785712718963623, -0.8774526119232178, -1.3785395622253418, 0.595458984375, 0.22314453125, -0.7197265625
548, 1682795482, -6.363471508026123, 1.8575626611709595, 7.037855625152588, -0.4298579692840576, -0.96427983045578, -1.4436471462249756, 0.594482421875, 0.222900390625, -0.72119140625
549, 1682812149, -6.370163917541504, 1.84844172000885, 7.017818927764893, -0.4056539535522461, -0.9964749813079834, -1.3970832824707031, 0.595703125, 0.220458984375, -0.72021484375
550, 1682828816, -6.363739013671875, 1.8430273532867432, 7.036445617675781, -0.560662031173706, -1.1294560432434082, -1.396967887878418, 0.595458984375, 0.2236328125, -0.72021484375
551, 1682845483, -6.359948635101318, 1.8613393306732178, 7.040371417999268, -0.4040147364139557, -1.1333235502243042, -1.2749361991882324, 0.593505859375, 0.221923828125, -0.72021484375
552, 1682862150, -6.358556270599365, 1.846265435218811, 7.030409812927246, -0.26227402687072754, -0.9536376595497131, -1.3447434902191162, 0.593017578125, 0.223388671875, -0.721435546875
553, 1682878817, -6.367682456970215, 1.8603076934814453, 7.021093845367432, -0.24629171192646027, -0.8140355944633484, -1.2350187301635742, 0.593505859375, 0.222900390625, -0.72119140625
554, 1682895484, -6.355485916137695, 1.8603265285491943, 7.0339155197143555, -0.2946613132953644, -0.8898107409477234, -1.3408503532409668, 0.592041015625, 0.222412109375, -0.72021484375
555, 1682912151, -6.361082077026367, 1.86173677444458, 7.021021366119385, -0.2415277659893036, -0.8747249841690063, -1.4063935279846191, 0.593017578125, 0.222412109375, -0.720703125
556, 1682928818, -6.358614921569824, 1.860418677330017, 7.019104480743408, -0.3026396632194519, -0.7667161822319031, -1.4123740196228027, 0.594970703125, 0.2236328125, -0.721923828125
557, 1682945485, -6.359138011932373, 1.844049334526062, 7.0284199714660645, -0.38635480403900146, -0.8833436369895935, -1.4601800441741943, 0.594482421875, 0.222900390625, -0.7216796875
558, 1682962152, -6.370542526245117, 1.8436698913574219, 7.055141925811768, -0.4694935381412506, -0.8248825669288635, -1.5366467237472534, 0.593017578125, 0.223388671875, -0.71826171875
559, 1682978819, -6.356226921081543, 1.8546385765075684, 7.04361629486084, -0.566027820110321, -0.9017718434333801, -1.5989621877670288, 0.594970703125, 0.222412109375, -0.7197265625
560, 1682995486, -6.373523712158203, 1.8735474348068237, 7.028597831726074, -0.7725175023078918, -1.0697400569915771, -1.7885092496871948, 0.593505859375, 0.222900390625, -0.71875
561, 1683012153, -6.36414098739624, 1.8502823114395142, 7.042316436767578, -0.9348507523536682, -1.2479403018951416, -1.8180536031723022, 0.594970703125, 0.2236328125, -0.7197265625
562, 1683028820, -6.3547797203063965, 1.8408770561218262, 7.035311698913574, -0.8336677551269531, -1.2605546712875366, -1.7398322820663452, 0.591552734375, 0.223876953125, -0.720703125
563, 1683045487, -6.348324298858643, 1.841021180152893, 7.044929504394531, -0.5805758833885193, -1.0929195880889893, -1.7342231273651123, 0.592041015625, 0.2255859375, -0.7197265625
564, 1683062154, -6.370193004608154, 1.8307545185089111, 7.025187015533447, -0.3485632538795471, -0.8503032922744751, -1.4785828590393066, 0.593994140625, 0.222412109375, -0.720703125
565, 1683078821, -6.364057540893555, 1.8405741453170776, 7.023752689361572, -0.2881813049316406, -0.8766971826553345, -1.3769900798797607, 0.592529296875, 0.223388671875, -0.721923828125
566, 1683095488, -6.350618839263916, 1.846482515335083, 7.044251918792725, -0.30443254113197327, -0.9492450952529907, -1.3832778930664062, 0.592041015625, 0.22509765625, -0.721435546875
567, 1683112155, -6.366641044616699, 1.8232914209365845, 7.04428768157959, -0.2701883912086487, -0.9824135303497314, -1.3635817766189575, 0.594482421875, 0.2255859375, -0.722412109375
568, 1683128822, -6.369406700134277, 1.8337552547454834, 7.040520191192627, -0.08084648102521896, -0.9901100993156433, -1.2704153060913086, 0.593994140625, 0.223388671875, -0.72021484375
569, 1683145489, -6.362122058868408, 1.8463901281356812, 7.0508713722229, -0.17745757102966309, -0.9425986409187317, -1.288677453994751, 0.593994140625, 0.224609375, -0.721435546875
570, 1683162156, -6.359303951263428, 1.8393584489822388, 7.067573547363281, -0.13313481211662292, -0.9773421287536621, -1.2771899700164795, 0.593017578125, 0.22412109375, -0.72021484375
571, 1683178823, -6.344313621520996, 1.8503443002700806, 7.05316686630249, -0.12131454050540924, -0.8659653067588806, -1.1883395910263062, 0.593994140625, 0.222900390625, -0.7197265625
572, 1683195490, -6.352050304412842, 1.833922266960144, 7.041660785675049, -0.023589296266436577, -0.7613630890846252, -1.2656514644622803, 0.592529296875, 0.22607421875, -0.722900390625
573, 1683212157, -6.35961389541626, 1.8383331298828125, 7.045936107635498, 0.02552945725619793, -0.7830955386161804, -1.1742911338806152, 0.593994140625, 0.2255859375, -0.721435546875
574, 1683228824, -6.360604763031006, 1.8324854373931885, 7.033019542694092, 0.014618448913097382, -0.6901726722717285, -1.1497541666030884, 0.593017578125, 0.223388671875, -0.72119140625
575, 1683245491, -6.35953426361084, 1.8329520225524902, 7.071422576904297, 0.3318573236465454, -0.5231265425682068, -0.9423808455467224, 0.593505859375, 0.223388671875, -0.7197265625
576, 1683262158, -6.379308700561523, 1.8049882650375366, 7.06167459487915, 0.6603786945343018, -0.11574380099773407, -0.7354943752288818, 0.591552734375, 0.221923828125, -0.720703125
577, 1683278825, -6.362565994262695, 1.8412039279937744, 7.047857761383057, 0.7458481788635254, -0.14070333540439606, -0.6393442153930664, 0.593994140625, 0.22412109375, -0.72021484375
578, 1683295492, -6.354804515838623, 1.8427246809005737, 7.055991172790527, 0.8909057378768921, -0.2186940312385559, -0.47095349431037903, 0.594482421875, 0.22314453125, -0.7216796875
579, 1683312159, -6.366950988769531, 1.8435524702072144, 7.039484024047852, 1.1075763702392578, 0.15297824144363403, -0.3099392354488373, 0.5966796875, 0.220458984375, -0.72021484375
580, 1683328826, -6.372359275817871, 1.869652509689331, 7.019863605499268, 1.0370774269104004, 0.010904607363045216, -0.341583788394928, 0.595458984375, 0.222900390625, -0.72119140625
581, 1683345493, -6.375999927520752, 1.8633952140808105, 7.0155487060546875, 0.8404231071472168, -0.3051624894142151, -0.4492851495742798, 0.593994140625, 0.219970703125, -0.72119140625
582, 1683362160, -6.361841201782227, 1.8766589164733887, 7.04964017868042, 0.6995276212692261, -0.49558013677597046, -0.5875169038772583, 0.5947265625, 0.219970703125, -0.7216796875
583, 1683378827, -6.366987705230713, 1.8444225788116455, 7.039765357971191, 0.6907553672790527, -0.34983107447624207, -0.4965662360191345, 0.59423828125, 0.219482421875, -0.720703125
584, 1683395494, -6.370588302612305, 1.8568776845932007, 7.016174793243408, 0.8606827259063721, -0.26352906227111816, -0.34815338253974915, 0.59375, 0.219970703125, -0.71728515625
585, 1683412161, -6.3655829429626465, 1.9103364944458008, 7.018896579742432, 0.7605882883071899, -0.5772077441215515, -0.35806551575660706, 0.594970703125, 0.222412109375, -0.720703125
586, 1683428828, -6.38553524017334, 1.8778330087661743, 7.033352851867676, 0.7776464223861694, -0.6102482080459595, -0.400480180978775, 0.594970703125, 0.221435546875, -0.720703125
587, 1683445495, -6.368913173675537, 1.8873786926269531, 7.032318115234375, 0.8216489553451538, -0.7392336130142212, -0.3455536961555481, 0.59619140625, 0.218017578125, -0.72021484375
588, 1683462162, -6.380808353424072, 1.902001976966858, 7.01393461227417, 0.5647408366203308, -0.9604890942573547, -0.5367525815963745, 0.59423828125, 0.218994140625, -0.71923828125
589, 1683478829, -6.37246561050415, 1.8818587064743042, 7.011191368103027, 0.1997598558664322, -1.3112678527832031, -0.6290607452392578, 0.593505859375, 0.218505859375, -0.720703125
590, 1683495496, -6.376058101654053, 1.9032894372940063, 7.024776458740234, 0.21818816661834717, -1.5371075868606567, -0.527813732624054, 0.5947265625, 0.216796875, -0.71875
591, 1683512163, -6.372882843017578, 1.9185901880264282, 7.007336139678955, 0.2865612804889679, -1.6238322257995605, -0.44106346368789673, 0.59326171875, 0.2177734375, -0.7177734375
592, 1683528830, -6.347696781158447, 1.9434213638305664, 7.008965969085693, 0.24258428812026978, -1.5769869089126587, -0.6330051422119141, 0.59423828125, 0.218994140625, -0.7216796875
593, 1683545497, -6.340734481811523, 1.8990240097045898, 7.02346134185791, 0.17527413368225098, -1.5643854141235352, -0.7440873980522156, 0.593017578125, 0.21728515625, -0.72216796875
594, 1683562164, -6.355720043182373, 1.8827627897262573, 7.034130573272705, 0.12874862551689148, -1.4281128644943237, -0.8528900742530823, 0.59326171875, 0.21728515625, -0.7197265625
595, 1683578831, -6.346005916595459, 1.8992732763290405, 7.042322158813477, 0.12787781655788422, -1.3358688354492188, -0.8495989441871643, 0.59228515625, 0.216796875, -0.7197265625
596, 1683595498, -6.3525543212890625, 1.9209970235824585, 7.016839981079102, 0.0502329058945179, -1.1813857555389404, -0.8476139307022095, 0.593017578125, 0.2177734375, -0.72119140625
597, 1683612165, -6.352025985717773, 1.9364718198776245, 7.034243106842041, -0.018223436549305916, -1.0761305093765259, -1.0537705421447754, 0.59423828125, 0.216796875, -0.72216796875
598, 1683628832, -6.351236820220947, 1.923714518547058, 7.03164005279541, -0.0884278416633606, -1.0893465280532837, -1.1785171031951904, 0.59375, 0.2177734375, -0.72021484375
599, 1683645499, -6.350579261779785, 1.8920247554779053, 7.036054611206055, -0.15153755247592926, -1.1531094312667847, -1.2126846313476562, 0.59423828125, 0.218505859375, -0.7197265625
600, 1683662166, -6.3420281410217285, 1.9144991636276245, 7.016246795654297, -0.2200259119272232, -1.1460403203964233, -1.2285643815994263, 0.59521484375, 0.21630859375, -0.72119140625
601, 1683678833, -6.360559940338135, 1.9182144403457642, 7.039738655090332, -0.22281767427921295, -1.098400592803955, -1.3101279735565186, 0.589599609375, 0.2177734375, -0.72119140625
602, 1683695500, -6.345174789428711, 1.915328860282898, 7.025523662567139, -0.36594143509864807, -1.2063196897506714, -1.3439240455627441, 0.591064453125, 0.216796875, -0.722412109375
603, 1683712167, -6.349632740020752, 1.916471004486084, 7.03232479095459, -0.46791839599609375, -1.3006898164749146, -1.543485164642334, 0.59326171875, 0.216796875, -0.72021484375
604, 1683728834, -6.341547966003418, 1.9021587371826172, 7.03655481338501, -0.4795081615447998, -1.0850179195404053, -1.5123401880264282, 0.5966796875, 0.21728515625, -0.72216796875
605, 1683745501, -6.349095344543457, 1.8935052156448364, 7.039490699768066, -0.29198479652404785, -0.9695944786071777, -1.433619737625122, 0.593505859375, 0.218505859375, -0.720703125
606, 1683762168, -6.340521812438965, 1.8859988451004028, 7.046792030334473, -0.1924922615289688, -0.9241446852684021, -1.3148791790008545, 0.59375, 0.21728515625, -0.72119140625
607, 1683778835, -6.341461658477783, 1.9300636053085327, 7.043794631958008, -0.20194333791732788, -0.816878616809845, -1.2274630069732666, 0.59423828125, 0.21728515625, -0.72216796875
608, 1683795502, -6.343929767608643, 1.9103983640670776, 7.034267902374268, -0.2044021636247635, -0.6477323770523071, -1.305735468864441, 0.591552734375, 0.21728515625, -0.722412109375
609, 1683812169, -6.353970050811768, 1.9012155532836914, 7.031365871429443, -0.20559315383434296, -0.6863946914672852, -1.3373671770095825, 0.593505859375, 0.216796875, -0.724365234375
610, 1683828836, -6.350029468536377, 1.914940595626831, 7.038624286651611, -0.23873592913150787, -0.7364162802696228, -1.422285795211792, 0.591552734375, 0.220947265625, -0.722412109375
611, 1683845503, -6.35541296005249, 1.9109212160110474, 7.0261006355285645, -0.29031994938850403, -0.7462900280952454, -1.4498964548110962, 0.59423828125, 0.218017578125, -0.7216796875
612, 1683862170, -6.346142292022705, 1.9196630716323853, 7.031082630157471, -0.3979701101779938, -0.7922391295433044, -1.5338292121887207, 0.59375, 0.216796875, -0.722900390625
613, 1683878837, -6.350197792053223, 1.913382887840271, 7.0323028564453125, -0.5754788517951965, -0.7784082293510437, -1.6998505592346191, 0.591064453125, 0.21875, -0.7216796875
614, 1683895504, -6.344195365905762, 1.8987174034118652, 7.044577121734619, -0.549994170665741, -0.7229055166244507, -1.7646634578704834, 0.593017578125, 0.218505859375, -0.722900390625
615, 1683912171, -6.341352462768555, 1.9158931970596313, 7.0352888107299805, -0.7281690835952759, -0.8579998016357422, -1.9191850423812866, 0.593017578125, 0.21728515625, -0.7216796875
616, 1683928838, -6.346891403198242, 1.8970168828964233, 7.072793483734131, -0.6804269552230835, -0.8172884583473206, -1.906314730644226, 0.59521484375, 0.2177734375, -0.72216796875
617, 1683945505, -6.365922451019287, 1.8805036544799805, 7.042776107788086, -0.5887974500656128, -0.6862409710884094, -1.7610008716583252, 0.593017578125, 0.219482421875, -0.72216796875
618, 1683962172, -6.344484329223633, 1.875025749206543, 7.040475368499756, -0.3300708830356598, -0.7464694380760193, -1.5216889381408691, 0.593505859375, 0.220947265625, -0.721923828125
619, 1683978839, -6.34521484375, 1.914933443069458, 7.037752151489258, -0.3643791079521179, -0.6724358797073364, -1.520305871963501, 0.592529296875, 0.21826171875, -0.72216796875
620, 1683995506, -6.33336877822876, 1.9006043672561646, 7.039430141448975, -0.41702601313591003, -0.703081488609314, -1.5457905530929565, 0.591552734375, 0.2177734375, -0.723388671875
621, 1684012173, -6.344338893890381, 1.8931771516799927, 7.0446014404296875, -0.3303525745868683, -0.6793000102043152, -1.5580717325210571, 0.593994140625, 0.21826171875, -0.72216796875
622, 1684028840, -6.349053859710693, 1.8932983875274658, 7.05018424987793, -0.10205379873514175, -0.5353567004203796, -1.3858519792556763, 0.593017578125, 0.218505859375, -0.723388671875
623, 1684045507, -6.347936630249023, 1.917201042175293, 7.043239593505859, -0.21363553404808044, -0.6141669750213623, -1.3505064249038696, 0.592529296875, 0.218994140625, -0.7216796875
624, 1684062174, -6.354559898376465, 1.8964896202087402, 7.0197529792785645, -0.20999851822853088, -0.6193021535873413, -1.5099198818206787, 0.592041015625, 0.219482421875, -0.720703125
625, 1684078841, -6.343184947967529, 1.8940811157226562, 7.051393032073975, -0.24353834986686707, -0.6379355192184448, -1.4649567604064941, 0.590576171875, 0.21826171875, -0.720703125
626, 1684095508, -6.343813419342041, 1.9130644798278809, 7.038278102874756, -0.32958418130874634, -0.5263281464576721, -1.4964348077774048, 0.592041015625, 0.218994140625, -0.72119140625
627, 1684112175, -6.355361461639404, 1.8886611461639404, 7.0645036697387695, -0.27873021364212036, -0.5534904599189758, -1.516835331916809, 0.5947265625, 0.2177734375, -0.723876953125
628, 1684128842, -6.346776962280273, 1.898903727531433, 7.054405689239502, -0.39213040471076965, -0.499165803194046, -1.6390460729599, 0.592041015625, 0.219482421875, -0.7216796875
629, 1684145509, -6.359018802642822, 1.9073654413223267, 7.051120758056641, -0.4391937255859375, -0.6450942754745483, -1.5943008661270142, 0.593505859375, 0.218505859375, -0.722900390625
630, 1684162176, -6.360750675201416, 1.8788485527038574, 7.061427116394043, -0.3424161970615387, -0.5979796648025513, -1.501979947090149, 0.592041015625, 0.221435546875, -0.72119140625
631, 1684178843, -6.346218109130859, 1.8832385540008545, 7.032079219818115, -0.27177634835243225, -0.6085320711135864, -1.5088824033737183, 0.593994140625, 0.219482421875, -0.720703125
632, 1684195510, -6.359826564788818, 1.8802152872085571, 7.022148132324219, -0.2363155633211136, -0.6562229990959167, -1.451548457145691, 0.59423828125, 0.220458984375, -0.71923828125
633, 1684212177, -6.3526105880737305, 1.8758891820907593, 7.021655559539795, -0.2594054043292999, -0.8021000623703003, -1.408851981163025, 0.593017578125, 0.219970703125, -0.72021484375
634, 1684228844, -6.33799409866333, 1.866645097732544, 7.045541763305664, -0.1140277311205864, -0.8033422827720642, -1.3252650499343872, 0.593017578125, 0.218505859375, -0.723388671875
635, 1684245511, -6.357108116149902, 1.8915228843688965, 7.03977108001709, -0.0967007502913475, -0.7742335200309753, -1.2113653421401978, 0.59423828125, 0.219482421875, -0.720703125
636, 1684262178, -6.359003067016602, 1.8821600675582886, 7.054423809051514, -0.08718562126159668, -0.854247510433197, -1.2383739948272705, 0.593017578125, 0.220458984375, -0.720703125
637, 1684278845, -6.34543514251709, 1.887872576713562, 7.034825325012207, -0.0772094875574112, -0.7810593843460083, -1.2484782934188843, 0.59423828125, 0.2177734375, -0.72021484375
638, 1684295512, -6.364741802215576, 1.8864580392837524, 7.036452293395996, 0.05535544455051422, -0.7504136562347412, -1.1134992837905884, 0.593505859375, 0.218994140625, -0.72021484375
639, 1684312179, -6.354766368865967, 1.8796452283859253, 7.032403945922852, 0.017794424667954445, -0.9084824919700623, -1.0866316556930542, 0.593017578125, 0.219482421875, -0.722900390625
640, 1684328846, -6.365547180175781, 1.8837707042694092, 7.020948886871338, 0.007062702439725399, -0.9677246809005737, -0.9937984347343445, 0.593994140625, 0.219970703125, -0.722900390625
641, 1684345513, -6.360628604888916, 1.8517365455627441, 7.034244060516357, 0.13740572333335876, -0.9072017669677734, -0.8899900317192078, 0.59326171875, 0.218505859375, -0.71875
642, 1684362180, -6.351076126098633, 1.877785086631775, 7.0508575439453125, 0.3289887309074402, -0.8472809791564941, -0.6258079409599304, 0.592041015625, 0.21826171875, -0.72021484375
643, 1684378847, -6.352709770202637, 1.9319390058517456, 7.04608678817749, 0.19990073144435883, -0.956416666507721, -0.7263249754905701, 0.591064453125, 0.21630859375, -0.72021484375
644, 1684395514, -6.354167938232422, 1.8936049938201904, 7.027070999145508, 0.14175988733768463, -0.9722708463668823, -0.9641132354736328, 0.5927734375, 0.2158203125, -0.72021484375
645, 1684412181, -6.370916366577148, 1.8862779140472412, 7.053825855255127, 0.10880914330482483, -1.0702908039093018, -1.0228304862976074, 0.593505859375, 0.219482421875, -0.722900390625
646, 1684428848, -6.340121269226074, 1.9008030891418457, 7.0576324462890625, 0.2135394662618637, -0.8179031014442444, -1.0384284257888794, 0.592041015625, 0.218994140625, -0.7216796875
647, 1684445515, -6.347251892089844, 1.916521430015564, 7.035811424255371, 0.5413308143615723, -0.7900621294975281, -0.8793096542358398, 0.59375, 0.21728515625, -0.720703125
648, 1684462182, -6.355263710021973, 1.9067413806915283, 7.045119285583496, 0.4912835657596588, -0.7782546281814575, -0.8499574065208435, 0.592041015625, 0.218505859375, -0.7177734375
649, 1684478849, -6.329026222229004, 1.9175289869308472, 7.018680572509766, 0.4013574421405792, -0.7971696853637695, -0.8878899216651917, 0.591552734375, 0.216796875, -0.7197265625
650, 1684495516, -6.324193477630615, 1.9139779806137085, 7.055890083312988, 0.1242920383810997, -0.9568520784378052, -1.0481613874435425, 0.5927734375, 0.21484375, -0.7216796875
651, 1684512183, -6.341341972351074, 1.9125579595565796, 7.036403656005859, -0.060407549142837524, -1.028375506401062, -1.0417324304580688, 0.59521484375, 0.21533203125, -0.72314453125
652, 1684528850, -6.342663288116455, 1.9345511198043823, 7.041915416717529, -0.22808107733726501, -0.9968975186347961, -1.2376056909561157, 0.591552734375, 0.2177734375, -0.722900390625
