sep=,
DeviceTag:,A,,,,,,,,,,,,,,,,,
FirmwareVersion:,2.2.1,,,,,,,,,,,,,,,,,
AppVersion:,2022.0.1,,,,,,,,,,,,,,,,,
SyncStatus:,Synced,,,,,,,,,,,,,,,,,
OutputRate:,60Hz,,,,,,,,,,,,,,,,,
FilterProfile:,General,,,,,,,,,,,,,,,,,
Measurement Mode:,Inertial Mode - Rate quantities (with mag),,,,,,,,,,,,,,,,,
StartTime:,2022-08-16 14:55:07.823 +0300,,,,,,,,,,,,,,,,,
© Xsens Technologies B. V. 2005-2022,,,,,,,,,,,,,,,,,,,

PacketCounter,SampleTimeFine,Acc_X,Acc_Y,Acc_Z,Gyr_X,Gyr_Y,Gyr_Z,Mag_X,Mag_Y,Mag_Z
1, 3425603973, -5.103081226348877, 1.9755032062530518, 8.164399147033691, -2.4097068309783936, -1.5098813772201538, -2.1971595287323, 0.740966796875, -0.1669921875, -0.614990234375
2, 3425620640, -5.078122615814209, 1.9859321117401123, 8.172367095947266, -2.3181540966033936, -1.3722258806228638, -2.1551547050476074, 0.7392578125, -0.1640625, -0.61474609375
3, 3425637307, -5.097327709197998, 2.0045151710510254, 8.201704025268555, -2.3646798133850098, -1.3208084106445312, -2.2056376934051514, 0.739990234375, -0.16552734375, -0.614013671875
4, 3425653974, -5.112351894378662, 1.9832881689071655, 8.186182975769043, -2.337722063064575, -1.2153866291046143, -2.0697238445281982, 0.73828125, -0.166015625, -0.614013671875
5, 3425670641, -5.091024875640869, 2.0000736713409424, 8.184926986694336, -2.2394847869873047, -1.233789324760437, -1.965659260749817, 0.73876953125, -0.166015625, -0.614501953125
6, 3425687308, -5.091109275817871, 2.009654998779297, 8.179519653320312, -2.178206443786621, -1.3840333223342896, -1.9402132034301758, 0.7392578125, -0.1689453125, -0.614501953125
7, 3425703975, -5.116141319274902, 1.9971919059753418, 8.189128875732422, -2.235476016998291, -1.4109009504318237, -1.981526255607605, 0.739990234375, -0.1669921875, -0.613525390625
8, 3425720642, -5.059623718261719, 2.0043821334838867, 8.185966491699219, -2.183354616165161, -1.3062220811843872, -2.085078477859497, 0.740478515625, -0.16796875, -0.615478515625
9, 3425737309, -5.080122470855713, 2.007636308670044, 8.186609268188477, -2.422513008117676, -1.0754259824752808, -2.1307077407836914, 0.739501953125, -0.166015625, -0.614501953125
10, 3425753976, -5.1328630447387695, 2.0026493072509766, 8.164689064025879, -2.2375893592834473, -1.098567008972168, -2.0794694423675537, 0.740966796875, -0.16455078125, -0.612060546875
11, 3425770643, -5.122544288635254, 1.9989352226257324, 8.187297821044922, -2.1336019039154053, -1.1293023824691772, -2.015399217605591, 0.7392578125, -0.1669921875, -0.613037109375
12, 3425787310, -5.093527793884277, 2.011492967605591, 8.187053680419922, -2.1117799282073975, -1.1878530979156494, -2.0032334327697754, 0.73779296875, -0.16552734375, -0.614013671875
13, 3425803977, -5.103416919708252, 2.011586904525757, 8.197729110717773, -2.1329870223999023, -1.168041467666626, -2.1051971912384033, 0.739990234375, -0.166015625, -0.613525390625
14, 3425820644, -5.141902923583984, 1.967645525932312, 8.192008018493652, -1.901486873626709, -1.1106433868408203, -1.890409231185913, 0.740478515625, -0.1689453125, -0.614501953125
15, 3425837311, -5.110147476196289, 2.000340223312378, 8.181626319885254, -1.85921311378479, -1.0622994899749756, -1.7166142463684082, 0.739990234375, -0.16796875, -0.614013671875
16, 3425853978, -5.087176322937012, 2.012009859085083, 8.189957618713379, -1.7263343334197998, -1.0680110454559326, -1.6717920303344727, 0.73828125, -0.16796875, -0.61572265625
17, 3425870645, -5.108132362365723, 2.007026433944702, 8.181537628173828, -1.6280968189239502, -0.8784002661705017, -1.6320284605026245, 0.740966796875, -0.16943359375, -0.614013671875
18, 3425887312, -5.126110553741455, 2.0141236782073975, 8.186676979064941, -1.5228670835494995, -0.8930891752243042, -1.7198415994644165, 0.741455078125, -0.16845703125, -0.6171875
19, 3425903979, -5.145895957946777, 2.0076260566711426, 8.187284469604492, -1.5118664503097534, -0.8863018155097961, -1.6333473920822144, 0.740478515625, -0.16796875, -0.614013671875
20, 3425920646, -5.129777908325195, 2.0047812461853027, 8.173959732055664, -1.3531190156936646, -0.9285756349563599, -1.5351996421813965, 0.73779296875, -0.171142578125, -0.613525390625
21, 3425937313, -5.126307487487793, 2.010348081588745, 8.182153701782227, -1.2402052879333496, -0.9822341203689575, -1.3059276342391968, 0.7392578125, -0.16748046875, -0.613037109375
22, 3425953980, -5.126829624176025, 2.0321953296661377, 8.15957260131836, -1.1507529020309448, -0.947208821773529, -1.220496416091919, 0.739990234375, -0.169677734375, -0.611572265625
23, 3425970647, -5.162839412689209, 2.0033812522888184, 8.174436569213867, -1.2329440116882324, -1.019615888595581, -1.1301219463348389, 0.741455078125, -0.169677734375, -0.611083984375
24, 3425987314, -5.159348964691162, 2.007265090942383, 8.190469741821289, -0.8060317039489746, -1.1029341220855713, -0.7830187082290649, 0.740478515625, -0.169677734375, -0.612548828125
25, 3426003981, -5.042540550231934, 2.099675416946411, 8.176694869995117, -0.7583919763565063, -1.015645980834961, -0.7780113816261292, 0.740966796875, -0.170654296875, -0.6103515625
26, 3426020648, -5.133275508880615, 2.026218891143799, 8.160042762756348, -0.44763314723968506, -0.6158317923545837, -1.0317052602767944, 0.739501953125, -0.175048828125, -0.6103515625
27, 3426037315, -5.187305927276611, 2.046633720397949, 8.175312995910645, -0.1407673954963684, -0.5722517371177673, -0.8317211866378784, 0.7392578125, -0.173583984375, -0.612548828125
28, 3426053982, -5.191795349121094, 2.0880019664764404, 8.156957626342773, -0.18990537524223328, -1.0284011363983154, -0.5633641481399536, 0.73876953125, -0.173095703125, -0.6103515625
29, 3426070649, -5.122849941253662, 2.095337152481079, 8.168797492980957, -0.24814864993095398, -1.4134881496429443, -0.5543613433837891, 0.739990234375, -0.17578125, -0.611572265625
30, 3426087316, -5.106319427490234, 2.1005964279174805, 8.167749404907227, -0.43121543526649475, -1.2425105571746826, -0.47050532698631287, 0.739990234375, -0.175537109375, -0.61083984375
31, 3426103983, -5.111612796783447, 1.9944729804992676, 8.191685676574707, -0.16527874767780304, -1.0467525720596313, -0.08558483421802521, 0.740966796875, -0.17578125, -0.611328125
32, 3426120650, -5.086205005645752, 2.09224534034729, 8.152786254882812, -0.04055770859122276, -1.1326704025268555, 0.02022762969136238, 0.739013671875, -0.177734375, -0.611328125
33, 3426137317, -5.109555721282959, 2.157705307006836, 8.123658180236816, -0.23426657915115356, -0.9819909334182739, -0.11333619803190231, 0.73779296875, -0.175537109375, -0.611572265625
34, 3426153984, -5.123304843902588, 2.1758575439453125, 8.142022132873535, -0.630738377571106, -1.1317355632781982, -0.509820818901062, 0.740478515625, -0.1796875, -0.61181640625
35, 3426170651, -5.121739864349365, 2.1836354732513428, 8.113255500793457, -1.1453102827072144, -1.4653280973434448, -0.9471831917762756, 0.73828125, -0.17822265625, -0.609375
36, 3426187318, -5.079405307769775, 2.1970102787017822, 8.116838455200195, -1.6163280010223389, -1.7730135917663574, -1.3364579677581787, 0.73876953125, -0.1787109375, -0.611328125
37, 3426203985, -5.0283660888671875, 2.1862659454345703, 8.115509033203125, -2.2503957748413086, -1.7742300033569336, -1.925844430923462, 0.740478515625, -0.1806640625, -0.60888671875
38, 3426220652, -5.09393835067749, 2.12933611869812, 8.14390754699707, -2.4334754943847656, -1.4995211362838745, -2.2092361450195312, 0.739013671875, -0.1787109375, -0.611572265625
39, 3426237319, -5.089260101318359, 2.1071150302886963, 8.140739440917969, -2.374783754348755, -1.4140514135360718, -2.196711540222168, 0.739990234375, -0.18017578125, -0.6103515625
40, 3426253986, -5.124067783355713, 2.0859298706054688, 8.149134635925293, -2.2688496112823486, -1.3025977611541748, -2.0966427326202393, 0.739013671875, -0.17919921875, -0.61083984375
41, 3426270653, -5.09141206741333, 2.1498396396636963, 8.142868995666504, -2.2334275245666504, -1.3449996709823608, -2.017422676086426, 0.73828125, -0.1796875, -0.60986328125
42, 3426287320, -5.12423849105835, 2.1541662216186523, 8.141450881958008, -2.2998666763305664, -1.2322524785995483, -2.240445137023926, 0.73779296875, -0.1796875, -0.60888671875
43, 3426303987, -5.120434761047363, 2.114738702774048, 8.114014625549316, -2.320164918899536, -1.4154986143112183, -2.1982738971710205, 0.739013671875, -0.1806640625, -0.61083984375
44, 3426320654, -5.097620010375977, 2.1424317359924316, 8.132009506225586, -2.3618369102478027, -1.5875264406204224, -2.198312520980835, 0.738525390625, -0.1806640625, -0.60888671875
45, 3426337321, -5.063361644744873, 2.167365074157715, 8.139140129089355, -2.4596900939941406, -1.2563542127609253, -2.388679027557373, 0.739990234375, -0.1806640625, -0.6103515625
46, 3426353988, -5.1173787117004395, 2.132230520248413, 8.156486511230469, -2.686452627182007, -1.1251788139343262, -2.497533082962036, 0.73828125, -0.177734375, -0.60888671875
47, 3426370655, -5.1306233406066895, 2.123319625854492, 8.17214298248291, -2.604132890701294, -1.1204276084899902, -2.3596725463867188, 0.739990234375, -0.177734375, -0.609375
48, 3426387322, -5.1282548904418945, 2.1485471725463867, 8.13204574584961, -2.632178783416748, -1.3083608150482178, -2.365422487258911, 0.739990234375, -0.1767578125, -0.61083984375
49, 3426403989, -5.088386058807373, 2.159055709838867, 8.139275550842285, -2.755619525909424, -1.2284621000289917, -2.5521137714385986, 0.739501953125, -0.17919921875, -0.6083984375
50, 3426420656, -5.14124059677124, 2.139787197113037, 8.12758731842041, -2.8780484199523926, -1.2782403230667114, -2.5621025562286377, 0.739501953125, -0.1796875, -0.609375
51, 3426437323, -5.101400852203369, 2.1576616764068604, 8.146464347839355, -3.0051379203796387, -1.2735785245895386, -2.8197786808013916, 0.739990234375, -0.177734375, -0.60888671875
52, 3426453990, -5.112633228302002, 2.1214683055877686, 8.133792877197266, -2.988067150115967, -1.218485951423645, -2.943398952484131, 0.741455078125, -0.1767578125, -0.612060546875
53, 3426470657, -5.136198997497559, 2.0783941745758057, 8.134035110473633, -2.8276419639587402, -1.2687891721725464, -2.884169578552246, 0.739013671875, -0.1787109375, -0.609375
54, 3426487324, -5.185592174530029, 2.083224296569824, 8.168435096740723, -2.535670280456543, -1.4634714126586914, -2.6225357055664062, 0.740478515625, -0.17822265625, -0.61083984375
55, 3426503991, -5.14933443069458, 2.0862650871276855, 8.158069610595703, -2.5646510124206543, -1.6451551914215088, -2.3903183937072754, 0.740966796875, -0.17724609375, -0.609375
56, 3426520658, -5.095624923706055, 2.127612829208374, 8.144195556640625, -2.5791738033294678, -1.7188173532485962, -2.444348096847534, 0.740966796875, -0.17822265625, -0.6103515625
57, 3426537325, -5.093508720397949, 2.120763063430786, 8.142136573791504, -2.6531431674957275, -1.4234260320663452, -2.539832353591919, 0.743408203125, -0.17822265625, -0.60791015625
58, 3426553992, -5.130290508270264, 2.114492416381836, 8.164908409118652, -2.580979108810425, -1.3403639793395996, -2.541407823562622, 0.739990234375, -0.17822265625, -0.6103515625
59, 3426570659, -5.12567663192749, 2.1215128898620605, 8.156177520751953, -2.434858560562134, -1.4037424325942993, -2.4378297328948975, 0.740478515625, -0.177734375, -0.60986328125
60, 3426587326, -5.147121906280518, 2.0939013957977295, 8.160765647888184, -2.465132236480713, -1.6319770812988281, -2.3271567821502686, 0.740478515625, -0.177734375, -0.6103515625
61, 3426603993, -5.112087726593018, 2.1254730224609375, 8.174187660217285, -2.5316874980926514, -1.7749860286712646, -2.242891550064087, 0.739990234375, -0.17822265625, -0.6083984375
62, 3426620660, -5.146660327911377, 2.111103057861328, 8.16797161102295, -2.614429235458374, -1.6722276210784912, -2.4501240253448486, 0.73828125, -0.17919921875, -0.609375
63, 3426637327, -5.1074371337890625, 2.1076760292053223, 8.135711669921875, -2.476184606552124, -1.7868317365646362, -2.1790003776550293, 0.741455078125, -0.1787109375, -0.612548828125
64, 3426653994, -5.10459041595459, 2.1256637573242188, 8.153092384338379, -2.5911219120025635, -1.5875009298324585, -2.3053736686706543, 0.738525390625, -0.17724609375, -0.60888671875
65, 3426670661, -5.0899810791015625, 2.1241719722747803, 8.142097473144531, -2.551819324493408, -1.6077990531921387, -2.446230888366699, 0.741455078125, -0.17724609375, -0.6103515625
66, 3426687328, -5.115723609924316, 2.1245248317718506, 8.146354675292969, -2.626467227935791, -1.4657766819000244, -2.5814404487609863, 0.739990234375, -0.1767578125, -0.60791015625
67, 3426703995, -5.149022102355957, 2.086055278778076, 8.137063980102539, -2.554534435272217, -1.6225390434265137, -2.4645183086395264, 0.739990234375, -0.1767578125, -0.609375
68, 3426720662, -5.149530410766602, 2.101912498474121, 8.151985168457031, -2.61147141456604, -1.7269750833511353, -2.3025693893432617, 0.742919921875, -0.1767578125, -0.6083984375
69, 3426737329, -5.123355865478516, 2.0841715335845947, 8.168670654296875, -2.51145339012146, -1.7648816108703613, -2.1577420234680176, 0.741455078125, -0.17822265625, -0.60888671875
70, 3426753996, -5.117575645446777, 2.0878992080688477, 8.168914794921875, -2.4709086418151855, -1.7217113971710205, -2.1630184650421143, 0.739990234375, -0.1787109375, -0.6083984375
71, 3426770663, -5.093040466308594, 2.124739408493042, 8.161566734313965, -2.543046712875366, -1.7344664335250854, -2.1952521800994873, 0.739501953125, -0.1767578125, -0.60986328125
72, 3426787330, -5.096449375152588, 2.1238346099853516, 8.15234375, -2.6318461894989014, -1.7256559133529663, -2.377908945083618, 0.740966796875, -0.177734375, -0.6103515625
73, 3426803997, -5.075124740600586, 2.122215986251831, 8.145393371582031, -2.8485162258148193, -1.6216936111450195, -2.5243873596191406, 0.740966796875, -0.17626953125, -0.60986328125
74, 3426820664, -5.103854179382324, 2.09826922416687, 8.172639846801758, -2.858428716659546, -1.4257822036743164, -2.724576473236084, 0.739501953125, -0.17578125, -0.6103515625
75, 3426837331, -5.103169918060303, 2.0907061100006104, 8.164785385131836, -2.9856724739074707, -1.1965739727020264, -2.757091760635376, 0.739990234375, -0.17578125, -0.60986328125
76, 3426853998, -5.14123010635376, 2.0957143306732178, 8.145133018493652, -2.949930191040039, -1.2338918447494507, -2.868110418319702, 0.741455078125, -0.17578125, -0.6103515625
77, 3426870665, -5.144951820373535, 2.1087424755096436, 8.147102355957031, -2.9876444339752197, -1.3579086065292358, -2.930950880050659, 0.742431640625, -0.17626953125, -0.60888671875
78, 3426887332, -5.116627216339111, 2.0868377685546875, 8.179384231567383, -3.054084539413452, -1.473895788192749, -3.001450300216675, 0.741455078125, -0.17578125, -0.6083984375
79, 3426903999, -5.119293212890625, 2.0821752548217773, 8.163257598876953, -3.039510488510132, -1.5858359336853027, -2.919105052947998, 0.742431640625, -0.17626953125, -0.61181640625
80, 3426920666, -5.12851619720459, 2.0894904136657715, 8.14004898071289, -2.975273609161377, -1.4504599571228027, -2.769526720046997, 0.741943359375, -0.173583984375, -0.6103515625
81, 3426937333, -5.118536949157715, 2.0859885215759277, 8.153840065002441, -2.6931753158569336, -1.6305556297302246, -2.7056360244750977, 0.739501953125, -0.17626953125, -0.60986328125
82, 3426954000, -5.122752666473389, 2.0871400833129883, 8.144523620605469, -2.75483775138855, -1.5706731081008911, -2.6507349014282227, 0.741943359375, -0.174560546875, -0.6103515625
83, 3426970667, -5.105567932128906, 2.0973455905914307, 8.135458946228027, -2.881070137023926, -1.5735291242599487, -2.7629828453063965, 0.739501953125, -0.175048828125, -0.61083984375
84, 3426987334, -5.126321315765381, 2.079591989517212, 8.14832592010498, -2.9255082607269287, -1.5388109683990479, -2.8560853004455566, 0.740966796875, -0.17529296875, -0.611572265625
85, 3427004001, -5.135341167449951, 2.0790436267852783, 8.163454055786133, -3.0654430389404297, -1.571428656578064, -2.849438428878784, 0.741943359375, -0.173583984375, -0.6103515625
86, 3427020668, -5.1395416259765625, 2.0612869262695312, 8.154603958129883, -2.989142894744873, -1.6379834413528442, -2.6813807487487793, 0.740478515625, -0.173095703125, -0.6103515625
87, 3427037335, -5.096598148345947, 2.088721990585327, 8.14999008178711, -2.90683650970459, -1.6099119186401367, -2.759486436843872, 0.742919921875, -0.174560546875, -0.609375
88, 3427054002, -5.10915994644165, 2.05407977104187, 8.169255256652832, -2.9519662857055664, -1.4464260339736938, -2.755452871322632, 0.742431640625, -0.17626953125, -0.611328125
89, 3427070669, -5.1339216232299805, 2.0815072059631348, 8.165528297424316, -2.8921988010406494, -1.4952439069747925, -2.8138880729675293, 0.741455078125, -0.174072265625, -0.611572265625
90, 3427087336, -5.153691291809082, 2.064023017883301, 8.153985977172852, -2.911818265914917, -1.473908543586731, -2.7795798778533936, 0.741943359375, -0.172119140625, -0.60986328125
91, 3427104003, -5.124515056610107, 2.0833561420440674, 8.152856826782227, -2.8759987354278564, -1.4275749921798706, -2.662440299987793, 0.742919921875, -0.174072265625, -0.60986328125
92, 3427120670, -5.086726188659668, 2.082439661026001, 8.154984474182129, -2.8800840377807617, -1.43764066696167, -2.76212477684021, 0.740966796875, -0.174072265625, -0.60791015625
93, 3427137337, -5.1185302734375, 2.075742244720459, 8.153227806091309, -3.0380632877349854, -1.3623522520065308, -2.9293758869171143, 0.740966796875, -0.172607421875, -0.6103515625
94, 3427154004, -5.148551940917969, 2.0680501461029053, 8.149791717529297, -3.0053048133850098, -1.4958586692810059, -2.8893303871154785, 0.740966796875, -0.171630859375, -0.611083984375
95, 3427170671, -5.122091293334961, 2.0473177433013916, 8.168272018432617, -2.9134955406188965, -1.6553102731704712, -2.7651212215423584, 0.742919921875, -0.173583984375, -0.612548828125
96, 3427187338, -5.136586666107178, 2.060702085494995, 8.174278259277344, -3.013859272003174, -1.7038720846176147, -2.8174610137939453, 0.740478515625, -0.173583984375, -0.612548828125
97, 3427204005, -5.120778560638428, 2.063910484313965, 8.148930549621582, -2.9697794914245605, -1.6659140586853027, -2.653386116027832, 0.740478515625, -0.170654296875, -0.610595703125
98, 3427220672, -5.1090569496154785, 2.0808045864105225, 8.173773765563965, -3.0173423290252686, -1.4353100061416626, -2.9092822074890137, 0.741943359375, -0.171142578125, -0.61083984375
99, 3427237339, -5.165791988372803, 2.0393991470336914, 8.156152725219727, -2.8976545333862305, -1.5603001117706299, -2.8980772495269775, 0.740966796875, -0.169189453125, -0.611572265625
100, 3427254006, -5.147637844085693, 2.0357511043548584, 8.158354759216309, -2.8897528648376465, -1.5842734575271606, -2.6611337661743164, 0.742431640625, -0.172119140625, -0.611328125
101, 3427270673, -5.159737586975098, 2.0172905921936035, 8.167143821716309, -2.8015172481536865, -1.7309188842773438, -2.4128057956695557, 0.742431640625, -0.168701171875, -0.611572265625
102, 3427287340, -5.143945217132568, 2.0331997871398926, 8.157709121704102, -2.6411690711975098, -1.864246129989624, -2.421757698059082, 0.740478515625, -0.170166015625, -0.6103515625
103, 3427304007, -5.165459156036377, 2.068988561630249, 8.190439224243164, -2.6155049800872803, -1.91627836227417, -2.236923933029175, 0.740966796875, -0.172119140625, -0.61083984375
104, 3427320674, -5.136688709259033, 2.0508780479431152, 8.151273727416992, -2.5605528354644775, -1.9729846715927124, -2.198402166366577, 0.743408203125, -0.170654296875, -0.611572265625
105, 3427337341, -5.117446422576904, 2.044445276260376, 8.15041446685791, -2.6285552978515625, -2.0742063522338867, -2.1593174934387207, 0.741943359375, -0.170166015625, -0.609375
106, 3427354008, -5.120871067047119, 2.0502359867095947, 8.166119575500488, -2.626582384109497, -1.9141267538070679, -2.203153371810913, 0.740478515625, -0.171142578125, -0.611572265625
107, 3427370675, -5.090112209320068, 2.029456853866577, 8.153264999389648, -2.57234787940979, -1.9451439380645752, -2.1995036602020264, 0.741455078125, -0.172119140625, -0.612060546875
108, 3427387342, -5.106110572814941, 2.064422845840454, 8.134963989257812, -2.5167806148529053, -1.6800650358200073, -2.2688241004943848, 0.744384765625, -0.169677734375, -0.60986328125
109, 3427404009, -5.1421027183532715, 2.03682017326355, 8.161649703979492, -2.4180819988250732, -1.6747246980667114, -2.279824733734131, 0.740966796875, -0.169677734375, -0.613037109375
110, 3427420676, -5.128798007965088, 2.048243522644043, 8.156338691711426, -2.3901002407073975, -1.7014390230178833, -2.151902437210083, 0.740478515625, -0.16943359375, -0.614013671875
111, 3427437343, -5.091912746429443, 2.0563414096832275, 8.148965835571289, -2.4062108993530273, -1.6882867813110352, -2.1454989910125732, 0.741455078125, -0.170654296875, -0.611572265625
112, 3427454010, -5.110535621643066, 2.041717767715454, 8.160568237304688, -2.496828556060791, -1.4988808631896973, -2.295435905456543, 0.741943359375, -0.171142578125, -0.611083984375
113, 3427470677, -5.12185001373291, 2.030968189239502, 8.166004180908203, -2.2861766815185547, -1.3597015142440796, -2.2918758392333984, 0.740478515625, -0.169677734375, -0.611083984375
114, 3427487344, -5.118578910827637, 2.0405666828155518, 8.139740943908691, -2.357853651046753, -1.4310582876205444, -2.292234182357788, 0.742431640625, -0.171142578125, -0.611328125
115, 3427504011, -5.1316752433776855, 2.0638198852539062, 8.131243705749512, -2.378126621246338, -1.442545771598816, -2.3216378688812256, 0.741943359375, -0.170166015625, -0.612060546875
116, 3427520678, -5.129093647003174, 2.0547850131988525, 8.161691665649414, -2.4746224880218506, -1.4070465564727783, -2.3099327087402344, 0.740478515625, -0.172607421875, -0.6103515625
117, 3427537345, -5.136688709259033, 2.0383408069610596, 8.157628059387207, -2.540792942047119, -1.4524580240249634, -2.4323997497558594, 0.741943359375, -0.169189453125, -0.612060546875
118, 3427554012, -5.114762306213379, 2.0628254413604736, 8.164530754089355, -2.5449929237365723, -1.3856855630874634, -2.488926887512207, 0.739990234375, -0.16943359375, -0.612060546875
119, 3427570679, -5.129403114318848, 2.056962013244629, 8.161792755126953, -2.5923001766204834, -1.514030933380127, -2.426931619644165, 0.743896484375, -0.169189453125, -0.611328125
120, 3427587346, -5.138317108154297, 2.033247709274292, 8.175760269165039, -2.5959372520446777, -1.489827036857605, -2.394634246826172, 0.739990234375, -0.169677734375, -0.614013671875
121, 3427604013, -5.146063327789307, 2.046842098236084, 8.160379409790039, -2.6073732376098633, -1.551681637763977, -2.3123278617858887, 0.740966796875, -0.171142578125, -0.611572265625
122, 3427620680, -5.122257709503174, 2.0514028072357178, 8.144906044006348, -2.540818214416504, -1.628288984298706, -2.3125579357147217, 0.740966796875, -0.171630859375, -0.613037109375
123, 3427637347, -5.1234307289123535, 2.045799493789673, 8.18362808227539, -2.6033520698547363, -1.654375672340393, -2.279709815979004, 0.742919921875, -0.169189453125, -0.612548828125
124, 3427654014, -5.128081321716309, 2.045691728591919, 8.167892456054688, -2.539639949798584, -1.6430548429489136, -2.282130002975464, 0.739501953125, -0.170654296875, -0.613037109375
125, 3427670681, -5.12186861038208, 2.0556349754333496, 8.175261497497559, -2.605708122253418, -1.6284428834915161, -2.349209785461426, 0.741943359375, -0.16845703125, -0.614501953125
126, 3427687348, -5.1388373374938965, 2.0355284214019775, 8.151564598083496, -2.5215446949005127, -1.6144583225250244, -2.3169376850128174, 0.740478515625, -0.170166015625, -0.613037109375
127, 3427704015, -5.123077392578125, 2.0465173721313477, 8.157846450805664, -2.5089683532714844, -1.6402243375778198, -2.1972620487213135, 0.742431640625, -0.169189453125, -0.613037109375
128, 3427720682, -5.097252368927002, 2.062012195587158, 8.167996406555176, -2.7016024589538574, -1.7216860055923462, -2.198363780975342, 0.741943359375, -0.170166015625, -0.611083984375
129, 3427737349, -5.145084857940674, 2.05473256111145, 8.166287422180176, -2.672698497772217, -1.5780243873596191, -2.4332194328308105, 0.741943359375, -0.170166015625, -0.611572265625
130, 3427754016, -5.125758647918701, 2.012204885482788, 8.166202545166016, -2.641873359680176, -1.6849956512451172, -2.3006865978240967, 0.741455078125, -0.1689453125, -0.611083984375
131, 3427770683, -5.145106792449951, 2.0420167446136475, 8.182068824768066, -2.505408763885498, -1.8391200304031372, -2.108194351196289, 0.741943359375, -0.170166015625, -0.613037109375
132, 3427787350, -5.136499881744385, 2.034031867980957, 8.148807525634766, -2.4567062854766846, -1.9566950798034668, -2.038463830947876, 0.739990234375, -0.16943359375, -0.612548828125
133, 3427804017, -5.137634754180908, 2.0148937702178955, 8.14642333984375, -2.3997690677642822, -2.0574426651000977, -1.8919974565505981, 0.741455078125, -0.169677734375, -0.612060546875
134, 3427820684, -5.059823989868164, 2.080176830291748, 8.135926246643066, -2.418095111846924, -2.071017265319824, -1.9683233499526978, 0.7392578125, -0.16943359375, -0.613037109375
135, 3427837351, -5.104395866394043, 2.064763307571411, 8.168869018554688, -2.700603485107422, -1.8474186658859253, -2.3213562965393066, 0.739990234375, -0.170166015625, -0.614013671875
136, 3427854018, -5.131978511810303, 2.028562545776367, 8.17795467376709, -2.741366147994995, -1.8174006938934326, -2.3608510494232178, 0.739501953125, -0.169677734375, -0.612060546875
137, 3427870685, -5.145119667053223, 2.027914047241211, 8.169074058532715, -2.679293632507324, -1.8609678745269775, -2.1591637134552, 0.741455078125, -0.171630859375, -0.611572265625
138, 3427887352, -5.095006942749023, 2.0539190769195557, 8.168965339660645, -2.553675889968872, -1.8030956983566284, -2.0575320720672607, 0.73779296875, -0.171142578125, -0.612060546875
139, 3427904019, -5.10141658782959, 2.056846857070923, 8.172457695007324, -2.6112148761749268, -1.6923975944519043, -2.2841150760650635, 0.740966796875, -0.171630859375, -0.612548828125
140, 3427920686, -5.097118854522705, 2.0369911193847656, 8.180505752563477, -2.5901999473571777, -1.6875826120376587, -2.329577684402466, 0.741455078125, -0.1689453125, -0.614013671875
141, 3427937353, -5.122081279754639, 2.0329995155334473, 8.173237800598145, -2.6415531635284424, -1.643502950668335, -2.369802236557007, 0.739501953125, -0.169677734375, -0.613525390625
142, 3427954020, -5.120023250579834, 2.026038646697998, 8.181048393249512, -2.588688850402832, -1.7020281553268433, -2.268965721130371, 0.740478515625, -0.170654296875, -0.614501953125
143, 3427970687, -5.110328674316406, 2.0262656211853027, 8.163562774658203, -2.5805439949035645, -1.7485153675079346, -2.2638299465179443, 0.740478515625, -0.1689453125, -0.613525390625
144, 3427987354, -5.080326557159424, 2.043079137802124, 8.163525581359863, -2.5108895301818848, -1.5506824254989624, -2.321957588195801, 0.7392578125, -0.169921875, -0.614501953125
145, 3428004021, -5.107295513153076, 2.047288417816162, 8.165216445922852, -2.5466835498809814, -1.4395874738693237, -2.299994945526123, 0.740478515625, -0.169677734375, -0.612060546875
146, 3428020688, -5.117286205291748, 2.0228989124298096, 8.169990539550781, -2.5430850982666016, -1.3598040342330933, -2.3854901790618896, 0.7392578125, -0.170654296875, -0.614013671875
147, 3428037355, -5.142851829528809, 2.017164945602417, 8.191125869750977, -2.4788100719451904, -1.4772894382476807, -2.3845553398132324, 0.741455078125, -0.170654296875, -0.61962890625
148, 3428054022, -5.116847991943359, 2.0281307697296143, 8.17155647277832, -2.4475369453430176, -1.489519476890564, -2.189962863922119, 0.73681640625, -0.1689453125, -0.613525390625
149, 3428070689, -5.108558177947998, 2.0246498584747314, 8.174247741699219, -2.3269777297973633, -1.5678046941757202, -2.2678894996643066, 0.739990234375, -0.1689453125, -0.613037109375
150, 3428087356, -5.100338459014893, 2.036365270614624, 8.165919303894043, -2.528779983520508, -1.6614958047866821, -2.3032732009887695, 0.741943359375, -0.170166015625, -0.613525390625
151, 3428104023, -5.122375011444092, 2.0400962829589844, 8.188027381896973, -2.5839884281158447, -1.5940192937850952, -2.264188289642334, 0.740966796875, -0.1689453125, -0.611572265625
152, 3428120690, -5.124377250671387, 2.025907039642334, 8.170487403869629, -2.5215187072753906, -1.620387315750122, -2.3283348083496094, 0.7392578125, -0.169921875, -0.615478515625
153, 3428137357, -5.124517917633057, 2.025977611541748, 8.163023948669434, -2.5361571311950684, -1.5653971433639526, -2.2456705570220947, 0.740478515625, -0.16845703125, -0.613525390625
154, 3428154024, -5.110108375549316, 2.01749324798584, 8.14655590057373, -2.5288827419281006, -1.652813196182251, -2.1372644901275635, 0.740478515625, -0.1689453125, -0.613037109375
155, 3428170691, -5.079256057739258, 2.0477874279022217, 8.169360160827637, -2.5409207344055176, -1.7488224506378174, -2.1777710914611816, 0.741943359375, -0.169677734375, -0.612548828125
156, 3428187358, -5.1002655029296875, 2.0541720390319824, 8.202683448791504, -2.702434778213501, -1.6595878601074219, -2.35042667388916, 0.7392578125, -0.16943359375, -0.614501953125
157, 3428204025, -5.107721328735352, 2.0377697944641113, 8.175592422485352, -2.6357901096343994, -1.5413084030151367, -2.398911237716675, 0.740478515625, -0.1689453125, -0.613037109375
158, 3428220692, -5.121189594268799, 2.0154519081115723, 8.187566757202148, -2.537130117416382, -1.4512412548065186, -2.4036495685577393, 0.73876953125, -0.16748046875, -0.613525390625
159, 3428237359, -5.122117042541504, 2.0176889896392822, 8.175718307495117, -2.4691925048828125, -1.4173429012298584, -2.333009719848633, 0.739990234375, -0.170654296875, -0.612548828125
160, 3428254026, -5.100147247314453, 2.0213894844055176, 8.156745910644531, -2.399193048477173, -1.6019974946975708, -2.2701432704925537, 0.740478515625, -0.16796875, -0.613525390625
161, 3428270693, -5.105000019073486, 2.018951177597046, 8.173507690429688, -2.3470327854156494, -1.581302523612976, -2.2258589267730713, 0.739501953125, -0.16845703125, -0.610595703125
162, 3428287360, -5.110896110534668, 2.0437614917755127, 8.176451683044434, -2.3682782649993896, -1.4770333766937256, -2.1829452514648438, 0.73876953125, -0.16845703125, -0.611083984375
163, 3428304027, -5.119452953338623, 2.0250439643859863, 8.166446685791016, -2.3203697204589844, -1.4722564220428467, -2.0891125202178955, 0.741943359375, -0.16796875, -0.611083984375
164, 3428320694, -5.114318370819092, 2.0296061038970947, 8.170297622680664, -2.2462592124938965, -1.542588710784912, -2.030254602432251, 0.740966796875, -0.169677734375, -0.613525390625
165, 3428337361, -5.091858386993408, 2.033202886581421, 8.134114265441895, -2.1502888202667236, -1.498957633972168, -2.046454668045044, 0.740966796875, -0.1689453125, -0.614013671875
166, 3428354028, -5.092993259429932, 2.04508376121521, 8.174369812011719, -2.3115715980529785, -1.4095180034637451, -2.1983635425567627, 0.740966796875, -0.16845703125, -0.612548828125
167, 3428370695, -5.120857238769531, 2.035095691680908, 8.171769142150879, -2.3029017448425293, -1.4828344583511353, -2.214038610458374, 0.739990234375, -0.1689453125, -0.6162109375
168, 3428387362, -5.099251747131348, 2.0347237586975098, 8.185302734375, -2.275355339050293, -1.531882643699646, -2.178206205368042, 0.740478515625, -0.1689453125, -0.612548828125
169, 3428404029, -5.101529598236084, 2.0322751998901367, 8.170675277709961, -2.355881690979004, -1.5666135549545288, -2.1812286376953125, 0.73681640625, -0.170654296875, -0.611572265625
170, 3428420696, -5.1180315017700195, 2.0489604473114014, 8.158514976501465, -2.4263806343078613, -1.5837228298187256, -2.195815086364746, 0.742431640625, -0.171630859375, -0.61865234375
171, 3428437363, -5.098238468170166, 2.0283596515655518, 8.191895484924316, -2.4154186248779297, -1.6055833101272583, -2.2887253761291504, 0.7392578125, -0.16943359375, -0.612548828125
172, 3428454030, -5.101792812347412, 2.0230960845947266, 8.163975715637207, -2.3713133335113525, -1.5546653270721436, -2.1779632568359375, 0.740966796875, -0.169677734375, -0.613037109375
173, 3428470697, -5.104294776916504, 2.0328452587127686, 8.156291007995605, -2.253674030303955, -1.5316904783248901, -2.1154422760009766, 0.741455078125, -0.171142578125, -0.613037109375
174, 3428487364, -5.141743183135986, 2.0449602603912354, 8.15757942199707, -2.2262306213378906, -1.622884750366211, -2.0631158351898193, 0.739501953125, -0.170166015625, -0.613525390625
175, 3428504031, -5.119104385375977, 2.0411906242370605, 8.172256469726562, -2.2438771724700928, -1.5668696165084839, -2.013747215270996, 0.739990234375, -0.16796875, -0.613037109375
176, 3428520698, -5.113454341888428, 2.0464680194854736, 8.180509567260742, -2.3115973472595215, -1.7674810886383057, -2.0425615310668945, 0.73828125, -0.1689453125, -0.613525390625
177, 3428537365, -5.093403339385986, 2.019674301147461, 8.179896354675293, -2.343255043029785, -1.8515422344207764, -2.096412420272827, 0.7392578125, -0.16943359375, -0.614013671875
178, 3428554032, -5.116279125213623, 2.013237476348877, 8.169404029846191, -2.3700456619262695, -1.7807998657226562, -2.1078996658325195, 0.740478515625, -0.16943359375, -0.613037109375
179, 3428570699, -5.116851329803467, 2.0286502838134766, 8.171783447265625, -2.3700456619262695, -1.8302580118179321, -1.982038974761963, 0.741455078125, -0.171142578125, -0.613525390625
180, 3428587366, -5.099545955657959, 2.043515205383301, 8.192902565002441, -2.34342098236084, -1.8318331241607666, -1.9096442461013794, 0.7392578125, -0.169921875, -0.613525390625
181, 3428604033, -5.083355903625488, 2.0573885440826416, 8.178937911987305, -2.463698625564575, -1.7440073490142822, -2.055598497390747, 0.739013671875, -0.170166015625, -0.612060546875
182, 3428620700, -5.111684799194336, 2.0281968116760254, 8.19688606262207, -2.5921971797943115, -1.7695045471191406, -2.1178629398345947, 0.73876953125, -0.170654296875, -0.611572265625
183, 3428637367, -5.1191816329956055, 2.0309829711914062, 8.174628257751465, -2.4396865367889404, -1.7343767881393433, -2.169062852859497, 0.739990234375, -0.170166015625, -0.614501953125
184, 3428654034, -5.095026016235352, 2.039531946182251, 8.161328315734863, -2.3663575649261475, -1.7815426588058472, -2.075397253036499, 0.7392578125, -0.1689453125, -0.613525390625
185, 3428670701, -5.085631370544434, 2.0466670989990234, 8.178740501403809, -2.5278072357177734, -1.6759158372879028, -2.182304859161377, 0.73876953125, -0.170166015625, -0.613037109375
186, 3428687368, -5.10895299911499, 2.0487890243530273, 8.170286178588867, -2.5150394439697266, -1.698928952217102, -2.16687273979187, 0.7392578125, -0.169921875, -0.615478515625
187, 3428704035, -5.1229472160339355, 2.0369832515716553, 8.187576293945312, -2.4224491119384766, -1.6734954118728638, -2.2718207836151123, 0.73828125, -0.170654296875, -0.612548828125
188, 3428720702, -5.102894306182861, 2.0414466857910156, 8.185745239257812, -2.5461456775665283, -1.706958293914795, -1.9952675104141235, 0.73828125, -0.171142578125, -0.614990234375
189, 3428737369, -5.115750312805176, 2.0243124961853027, 8.175030708312988, -2.3989367485046387, -1.6772733926773071, -2.1589841842651367, 0.73681640625, -0.171630859375, -0.615234375
190, 3428754036, -5.096312522888184, 2.042405843734741, 8.179143905639648, -2.3773324489593506, -1.7750498056411743, -2.0124030113220215, 0.73974609375, -0.170166015625, -0.6162109375
191, 3428770703, -5.086496353149414, 2.053999423980713, 8.177279472351074, -2.422013521194458, -1.7995482683181763, -1.9803354740142822, 0.73974609375, -0.171142578125, -0.61669921875
192, 3428787370, -5.089310646057129, 2.036529779434204, 8.190631866455078, -2.6947381496429443, -1.9793756008148193, -1.9524691104888916, 0.740478515625, -0.16796875, -0.614990234375
193, 3428804037, -5.1103434562683105, 2.0358123779296875, 8.203428268432617, -2.6813812255859375, -1.9397908449172974, -2.031817674636841, 0.7392578125, -0.170654296875, -0.614501953125
194, 3428820704, -5.128978729248047, 2.0200741291046143, 8.178016662597656, -2.46549129486084, -2.113086223602295, -1.9302499294281006, 0.73876953125, -0.16943359375, -0.614013671875
195, 3428837371, -5.112844944000244, 2.064443588256836, 8.181924819946289, -2.3890247344970703, -2.10481333732605, -1.8271973133087158, 0.739501953125, -0.170166015625, -0.612548828125
196, 3428854038, -5.056696891784668, 2.035130739212036, 8.186152458190918, -2.424037218093872, -2.146331787109375, -1.815556287765503, 0.73779296875, -0.171630859375, -0.615478515625
197, 3428870705, -5.051784515380859, 2.057410717010498, 8.189327239990234, -2.5783538818359375, -1.859648585319519, -1.941724419593811, 0.73681640625, -0.17041015625, -0.613525390625
198, 3428887372, -5.071118354797363, 2.053260564804077, 8.165051460266113, -2.7151641845703125, -1.7210201025009155, -2.3770766258239746, 0.73828125, -0.169921875, -0.61767578125
199, 3428904039, -5.114318370819092, 2.0117712020874023, 8.163387298583984, -2.6611087322235107, -1.7596569061279297, -2.2262306213378906, 0.7392578125, -0.171142578125, -0.614013671875
200, 3428920706, -5.087669372558594, 2.0356411933898926, 8.183548927307129, -2.548784017562866, -1.831730842590332, -2.100292682647705, 0.73828125, -0.16845703125, -0.615234375
201, 3428937373, -5.101701259613037, 2.0348315238952637, 8.194649696350098, -2.513361692428589, -1.7107747793197632, -2.0962204933166504, 0.7392578125, -0.169921875, -0.615478515625
202, 3428954040, -5.073355197906494, 2.0580341815948486, 8.197104454040527, -2.4856741428375244, -1.861070156097412, -2.0805580615997314, 0.739501953125, -0.170166015625, -0.611572265625
203, 3428970707, -5.0637664794921875, 2.0520496368408203, 8.189688682556152, -2.6154794692993164, -1.7350811958312988, -2.127147674560547, 0.73974609375, -0.169921875, -0.614990234375
204, 3428987374, -5.077120304107666, 2.0361857414245605, 8.194801330566406, -2.5363237857818604, -1.7421633005142212, -2.2403814792633057, 0.73828125, -0.172607421875, -0.612548828125
205, 3429004041, -5.071930885314941, 1.9954792261123657, 8.200023651123047, -2.539998769760132, -1.7190476655960083, -2.2196991443634033, 0.73876953125, -0.170654296875, -0.615478515625
206, 3429020708, -5.088396072387695, 2.0454862117767334, 8.185867309570312, -2.60168719291687, -1.6914883852005005, -2.132500648498535, 0.73876953125, -0.170654296875, -0.61572265625
207, 3429037375, -5.079787254333496, 2.0513463020324707, 8.194589614868164, -2.4790661334991455, -1.7004910707473755, -2.2420971393585205, 0.73876953125, -0.171630859375, -0.615478515625
208, 3429054042, -5.095241546630859, 2.0225236415863037, 8.204272270202637, -2.569812059402466, -1.7488608360290527, -2.203178882598877, 0.73828125, -0.169921875, -0.615234375
209, 3429070709, -5.104667663574219, 2.052891492843628, 8.177608489990234, -2.587536096572876, -1.703654408454895, -2.1507625579833984, 0.73681640625, -0.1708984375, -0.61767578125
210, 3429087376, -5.082778453826904, 2.029571533203125, 8.19611930847168, -2.5237088203430176, -1.7138736248016357, -2.112919330596924, 0.73876953125, -0.172119140625, -0.61669921875
211, 3429104043, -5.084976673126221, 2.0233542919158936, 8.193327903747559, -2.5568902492523193, -1.7961418628692627, -2.050936698913574, 0.73828125, -0.1689453125, -0.61767578125
212, 3429120710, -5.064303874969482, 2.059659719467163, 8.201688766479492, -2.54704213142395, -1.728332281112671, -2.077817678451538, 0.7373046875, -0.172119140625, -0.61669921875
213, 3429137377, -5.08893346786499, 2.063486337661743, 8.19214153289795, -2.581516981124878, -1.7184457778930664, -2.177553653717041, 0.73779296875, -0.16943359375, -0.6171875
214, 3429154044, -5.087811470031738, 2.0518953800201416, 8.195853233337402, -2.624495267868042, -1.7356449365615845, -2.189502000808716, 0.7373046875, -0.172607421875, -0.61767578125
215, 3429170711, -5.06250524520874, 2.012575626373291, 8.205526351928711, -2.609166145324707, -1.7697354555130005, -2.2251551151275635, 0.73876953125, -0.171142578125, -0.61572265625
216, 3429187378, -5.035972595214844, 2.011932849884033, 8.216127395629883, -2.7004494667053223, -1.6494965553283691, -2.3337783813476562, 0.73681640625, -0.1689453125, -0.614501953125
217, 3429204045, -5.078413486480713, 2.024064302444458, 8.175996780395508, -2.8123772144317627, -1.5439081192016602, -2.4490485191345215, 0.7373046875, -0.17041015625, -0.615234375
218, 3429220712, -5.099708080291748, 2.035998821258545, 8.197346687316895, -2.7065844535827637, -1.5176423788070679, -2.351720094680786, 0.73876953125, -0.170166015625, -0.6162109375
219, 3429237379, -5.082183837890625, 2.0141682624816895, 8.209195137023926, -2.4957528114318848, -1.5586223602294922, -2.2788004875183105, 0.73583984375, -0.1689453125, -0.61572265625
220, 3429254046, -5.065016746520996, 2.0198326110839844, 8.213825225830078, -2.518688917160034, -1.5847986936569214, -2.250882625579834, 0.7353515625, -0.1708984375, -0.61669921875
221, 3429270713, -5.07231330871582, 2.037076950073242, 8.195598602294922, -2.5556352138519287, -1.452957272529602, -2.3016469478607178, 0.736328125, -0.171630859375, -0.614990234375
222, 3429287380, -5.072182655334473, 2.035156488418579, 8.196277618408203, -2.610548973083496, -1.364298939704895, -2.356778144836426, 0.73583984375, -0.1708984375, -0.61669921875
223, 3429304047, -5.104326248168945, 2.054597854614258, 8.187810897827148, -2.6053881645202637, -1.44309663772583, -2.3989498615264893, 0.73828125, -0.170654296875, -0.61572265625
224, 3429320714, -5.080538749694824, 2.0115368366241455, 8.199211120605469, -2.6629912853240967, -1.5363268852233887, -2.273153066635132, 0.73583984375, -0.16796875, -0.615234375
225, 3429337381, -5.073939323425293, 2.0088393688201904, 8.212291717529297, -2.6748499870300293, -1.5485440492630005, -2.3161182403564453, 0.736328125, -0.1689453125, -0.615234375
226, 3429354048, -5.088206768035889, 2.0258517265319824, 8.20693588256836, -2.678473711013794, -1.618274450302124, -2.25850248336792, 0.73876953125, -0.170654296875, -0.6162109375
227, 3429370715, -5.099510192871094, 2.028937339782715, 8.182973861694336, -2.63985013961792, -1.6346540451049805, -2.3010451793670654, 0.736328125, -0.1708984375, -0.61669921875
228, 3429387382, -5.0943450927734375, 2.027327299118042, 8.207378387451172, -2.5759332180023193, -1.7064846754074097, -2.248551845550537, 0.736328125, -0.17041015625, -0.61669921875
229, 3429404049, -5.074924945831299, 2.014251947402954, 8.185023307800293, -2.5430338382720947, -1.6349866390228271, -2.172942876815796, 0.73876953125, -0.1689453125, -0.61572265625
230, 3429420716, -5.052714824676514, 2.030174732208252, 8.222127914428711, -2.5424575805664062, -1.6029069423675537, -2.2829370498657227, 0.734375, -0.169921875, -0.615234375
231, 3429437383, -5.1065592765808105, 2.002077102661133, 8.201841354370117, -2.573961019515991, -1.637906551361084, -2.1869404315948486, 0.73876953125, -0.169921875, -0.613525390625
232, 3429454050, -5.102137565612793, 2.0179662704467773, 8.215020179748535, -2.298342704772949, -1.7310981750488281, -1.9778510332107544, 0.73828125, -0.169921875, -0.6181640625
233, 3429470717, -5.089244842529297, 1.9889475107192993, 8.207276344299316, -2.171982526779175, -1.9568486213684082, -1.9164830446243286, 0.7392578125, -0.16845703125, -0.614501953125
234, 3429487384, -5.1010518074035645, 2.01102614402771, 8.18446159362793, -2.012389659881592, -1.9834856986999512, -1.7232352495193481, 0.736328125, -0.16943359375, -0.6171875
235, 3429504051, -5.070459842681885, 2.0334527492523193, 8.21157455444336, -2.032905340194702, -2.0527167320251465, -1.616084337234497, 0.7392578125, -0.16748046875, -0.61767578125
236, 3429520718, -5.064811706542969, 2.038539171218872, 8.20197868347168, -2.082017660140991, -1.9957542419433594, -1.5931098461151123, 0.73583984375, -0.1708984375, -0.61669921875
237, 3429537385, -5.028972625732422, 2.042888879776001, 8.196979522705078, -2.702780246734619, -1.7366435527801514, -1.957066535949707, 0.73583984375, -0.171630859375, -0.61474609375
238, 3429554052, -5.058722019195557, 2.052020788192749, 8.198115348815918, -2.5252845287323, -1.635511875152588, -1.9626243114471436, 0.73681640625, -0.170654296875, -0.61572265625
239, 3429570719, -5.040163516998291, 2.046217679977417, 8.193036079406738, -2.523414373397827, -1.5728758573532104, -2.1030073165893555, 0.7353515625, -0.1708984375, -0.6162109375
240, 3429587386, -5.0414581298828125, 2.0582478046417236, 8.182357788085938, -2.7838828563690186, -1.5300899744033813, -2.2712700366973877, 0.73779296875, -0.16943359375, -0.61767578125
241, 3429604053, -5.053361415863037, 2.021986246109009, 8.183290481567383, -2.483663558959961, -1.4255517721176147, -2.2894680500030518, 0.73583984375, -0.16943359375, -0.619140625
242, 3429620720, -5.078032970428467, 2.001948356628418, 8.213154792785645, -2.68750262260437, -1.5385295152664185, -2.2371418476104736, 0.7353515625, -0.17041015625, -0.6162109375
243, 3429637387, -5.062286376953125, 2.0538008213043213, 8.199309349060059, -2.6207425594329834, -1.498355746269226, -2.224872589111328, 0.736328125, -0.17041015625, -0.615234375
244, 3429654054, -5.079390048980713, 2.0578954219818115, 8.197437286376953, -2.684890031814575, -1.5130192041397095, -2.333406925201416, 0.73779296875, -0.16943359375, -0.614501953125
245, 3429670721, -5.070159912109375, 2.0347237586975098, 8.207759857177734, -2.701166868209839, -1.556688904762268, -2.392841339111328, 0.73681640625, -0.171630859375, -0.6162109375
246, 3429687388, -5.078854084014893, 2.00540828704834, 8.202542304992676, -2.8247740268707275, -1.485267996788025, -2.3797404766082764, 0.73779296875, -0.17041015625, -0.6162109375
247, 3429704055, -5.066433429718018, 2.004406452178955, 8.194722175598145, -2.627978801727295, -1.5586227178573608, -2.347327470779419, 0.73486328125, -0.1708984375, -0.61767578125
248, 3429720722, -5.077779769897461, 2.0084381103515625, 8.19504165649414, -2.5816831588745117, -1.5816097259521484, -2.197863817214966, 0.73681640625, -0.169921875, -0.615234375
249, 3429737389, -5.074688911437988, 2.0304694175720215, 8.190391540527344, -2.54366135597229, -1.5623106956481934, -2.2038958072662354, 0.73681640625, -0.17041015625, -0.6201171875
250, 3429754056, -5.067196846008301, 2.029317855834961, 8.183680534362793, -2.4280712604522705, -1.6083239316940308, -2.1766440868377686, 0.7353515625, -0.16943359375, -0.61767578125
251, 3429770723, -5.0388689041137695, 2.0181376934051514, 8.210182189941406, -2.606130361557007, -1.561708688735962, -2.2853314876556396, 0.73681640625, -0.17041015625, -0.6181640625
252, 3429787390, -5.0722246170043945, 2.012199878692627, 8.199322700500488, -2.4936270713806152, -1.455095887184143, -2.272461175918579, 0.73828125, -0.16845703125, -0.61865234375
253, 3429804057, -5.0694684982299805, 2.0238211154937744, 8.194310188293457, -2.5421502590179443, -1.5590579509735107, -2.2687861919403076, 0.734375, -0.16650390625, -0.6162109375
254, 3429820724, -5.056314945220947, 2.0240094661712646, 8.218173027038574, -2.535695791244507, -1.5613631010055542, -2.2015268802642822, 0.73779296875, -0.169921875, -0.61669921875
255, 3429837391, -5.073836326599121, 2.005899429321289, 8.190558433532715, -2.4164302349090576, -1.4480396509170532, -2.2158191204071045, 0.73681640625, -0.17041015625, -0.6162109375
256, 3429854058, -5.051751613616943, 2.0299971103668213, 8.179429054260254, -2.3125321865081787, -1.4198909997940063, -2.2668771743774414, 0.73681640625, -0.171142578125, -0.620361328125
257, 3429870725, -5.071986198425293, 1.984887957572937, 8.18371868133545, -2.431746482849121, -1.434669852256775, -2.323251485824585, 0.7353515625, -0.16943359375, -0.615234375
258, 3429887392, -5.0748209953308105, 2.0249481201171875, 8.208366394042969, -2.442568063735962, -1.4471815824508667, -2.2199039459228516, 0.73779296875, -0.17041015625, -0.615234375
259, 3429904059, -5.069858074188232, 2.0255398750305176, 8.190117835998535, -2.3943774700164795, -1.405996322631836, -2.1885406970977783, 0.7373046875, -0.171142578125, -0.615234375
260, 3429920726, -5.057956218719482, 2.0251553058624268, 8.177129745483398, -2.4503285884857178, -1.5176806449890137, -2.3389647006988525, 0.7353515625, -0.17041015625, -0.619140625
261, 3429937393, -5.0560407638549805, 2.0137453079223633, 8.193164825439453, -2.5119271278381348, -1.4129503965377808, -2.261153221130371, 0.73681640625, -0.16796875, -0.6181640625
262, 3429954060, -5.050568103790283, 2.0305423736572266, 8.199317932128906, -2.449240207672119, -1.2545100450515747, -2.402432918548584, 0.73486328125, -0.1708984375, -0.615234375
263, 3429970727, -5.081208229064941, 2.0144145488739014, 8.203376770019531, -2.313800096511841, -1.3874526023864746, -2.2702713012695312, 0.73681640625, -0.1689453125, -0.619140625
264, 3429987394, -5.055039882659912, 2.0148935317993164, 8.199020385742188, -2.378216028213501, -1.2772539854049683, -2.3397839069366455, 0.7353515625, -0.16796875, -0.615234375
265, 3430004061, -5.077582836151123, 2.0270259380340576, 8.20413875579834, -2.314312219619751, -1.2480300664901733, -2.4225003719329834, 0.73779296875, -0.16845703125, -0.620849609375
266, 3430020728, -5.087829113006592, 2.004051446914673, 8.2133207321167, -2.315080404281616, -1.3358814716339111, -2.3283350467681885, 0.73681640625, -0.16845703125, -0.61767578125
267, 3430037395, -5.088530540466309, 2.0302252769470215, 8.191130638122559, -2.2448763847351074, -1.4951285123825073, -2.3137104511260986, 0.73583984375, -0.16796875, -0.61572265625
268, 3430054062, -5.0435309410095215, 2.021401882171631, 8.222166061401367, -2.2945263385772705, -1.500058889389038, -2.236961841583252, 0.73828125, -0.171142578125, -0.613037109375
269, 3430070729, -5.044317722320557, 2.03896427154541, 8.204818725585938, -2.401613235473633, -1.3685634136199951, -2.3760006427764893, 0.73828125, -0.171142578125, -0.61767578125
270, 3430087396, -5.06702995300293, 2.0039329528808594, 8.199888229370117, -2.4518656730651855, -1.335369348526001, -2.3745791912078857, 0.73828125, -0.1689453125, -0.6181640625
271, 3430104063, -5.083108425140381, 2.029796838760376, 8.204392433166504, -2.4260733127593994, -1.2103153467178345, -2.412421941757202, 0.736328125, -0.1708984375, -0.6181640625
272, 3430120730, -5.075669765472412, 2.0182933807373047, 8.192168235778809, -2.367382049560547, -1.3443593978881836, -2.428109645843506, 0.7373046875, -0.16943359375, -0.61572265625
273, 3430137397, -5.075685977935791, 2.0468032360076904, 8.194207191467285, -2.4595491886138916, -1.3317322731018066, -2.3733110427856445, 0.7373046875, -0.16796875, -0.615234375
274, 3430154064, -5.08238410949707, 2.0324597358703613, 8.190451622009277, -2.5850512981414795, -1.3391855955123901, -2.404878854751587, 0.7373046875, -0.16943359375, -0.615234375
275, 3430170731, -5.080053329467773, 2.0234146118164062, 8.202223777770996, -2.544980049133301, -1.3908337354660034, -2.375065565109253, 0.73681640625, -0.1669921875, -0.61669921875
276, 3430187398, -5.099059581756592, 2.0030593872070312, 8.204277038574219, -2.4140994548797607, -1.3111270666122437, -2.375142812728882, 0.73779296875, -0.16796875, -0.6162109375
277, 3430204065, -5.0554351806640625, 2.003039836883545, 8.208203315734863, -2.3743486404418945, -1.4023849964141846, -2.3618879318237305, 0.7373046875, -0.1689453125, -0.61767578125
278, 3430220732, -5.048040390014648, 2.0054826736450195, 8.199703216552734, -2.3916757106781006, -1.26631760597229, -2.300097703933716, 0.736328125, -0.169921875, -0.61572265625
279, 3430237399, -5.057834625244141, 2.0237436294555664, 8.18498706817627, -2.3667545318603516, -1.1136274337768555, -2.468449592590332, 0.73876953125, -0.1689453125, -0.61767578125
280, 3430254066, -5.0748114585876465, 2.030383825302124, 8.178489685058594, -2.474942445755005, -0.9631656408309937, -2.643512725830078, 0.7353515625, -0.16796875, -0.61669921875
281, 3430270733, -5.115511894226074, 1.9957033395767212, 8.200743675231934, -2.4394431114196777, -1.0908448696136475, -2.570042371749878, 0.73779296875, -0.16943359375, -0.614013671875
282, 3430287400, -5.047459125518799, 2.00596022605896, 8.18506145477295, -2.434999465942383, -1.089116096496582, -2.500312089920044, 0.73876953125, -0.16845703125, -0.614013671875
283, 3430304067, -5.007366180419922, 2.068669557571411, 8.18517017364502, -2.740814685821533, -0.7021337151527405, -3.047449827194214, 0.739501953125, -0.1689453125, -0.614501953125
284, 3430320734, -5.09483003616333, 1.9892737865447998, 8.195762634277344, -2.7030487060546875, -0.5984663367271423, -3.014294385910034, 0.73583984375, -0.16845703125, -0.614013671875
285, 3430337401, -5.09849739074707, 2.016386032104492, 8.223928451538086, -2.6337926387786865, -0.5853784084320068, -2.8808913230895996, 0.73828125, -0.16796875, -0.61669921875
286, 3430354068, -5.12333345413208, 2.0147433280944824, 8.207362174987793, -2.6435768604278564, -0.640253484249115, -2.8535497188568115, 0.73974609375, -0.16943359375, -0.615478515625
287, 3430370735, -5.0998616218566895, 2.034505605697632, 8.200127601623535, -2.5897645950317383, -0.7950823307037354, -2.7995450496673584, 0.73779296875, -0.1689453125, -0.614013671875
288, 3430387402, -5.111251354217529, 1.9956787824630737, 8.208220481872559, -2.5641775131225586, -0.9339542984962463, -2.751098871231079, 0.739990234375, -0.16796875, -0.614990234375
289, 3430404069, -5.11375093460083, 2.006312847137451, 8.190545082092285, -2.6393892765045166, -1.0083976984024048, -2.666269540786743, 0.740966796875, -0.1689453125, -0.615966796875
290, 3430420736, -5.135804653167725, 1.9852232933044434, 8.190995216369629, -2.5858452320098877, -1.1483324766159058, -2.4926917552948, 0.7392578125, -0.16650390625, -0.615234375
291, 3430437403, -5.123882293701172, 1.9919134378433228, 8.186888694763184, -2.5452234745025635, -1.3278390169143677, -2.3501956462860107, 0.739501953125, -0.166015625, -0.614013671875
292, 3430454070, -5.114778518676758, 2.0051732063293457, 8.194339752197266, -2.5295233726501465, -1.5823273658752441, -2.386118173599243, 0.7392578125, -0.16552734375, -0.613525390625
293, 3430470737, -5.096318244934082, 2.006253242492676, 8.176563262939453, -2.459562063217163, -1.4438903331756592, -2.4114484786987305, 0.741455078125, -0.16748046875, -0.614013671875
294, 3430487404, -5.077085971832275, 1.9906014204025269, 8.210033416748047, -2.5164220333099365, -1.4452093839645386, -2.3405652046203613, 0.73681640625, -0.16552734375, -0.6142578125
295, 3430504071, -5.093088626861572, 1.9997272491455078, 8.19060230255127, -2.443105697631836, -1.285962462425232, -2.412216901779175, 0.73974609375, -0.16943359375, -0.614990234375
296, 3430520738, -5.090876579284668, 2.0061936378479004, 8.223931312561035, -2.3856821060180664, -1.1643019914627075, -2.321547746658325, 0.7392578125, -0.1689453125, -0.614501953125
297, 3430537405, -5.104798793792725, 2.0101115703582764, 8.176916122436523, -2.4201180934906006, -1.1264464855194092, -2.4120500087738037, 0.739990234375, -0.16650390625, -0.61572265625
298, 3430554072, -5.107699394226074, 1.9940762519836426, 8.176665306091309, -2.44454026222229, -1.1953575611114502, -2.358916997909546, 0.740966796875, -0.16650390625, -0.614501953125
299, 3430570739, -5.107173919677734, 1.9983267784118652, 8.199502944946289, -2.3677148818969727, -1.2552529573440552, -2.440340042114258, 0.73828125, -0.16650390625, -0.612548828125
300, 3430587406, -5.092756271362305, 1.9925135374069214, 8.17892837524414, -2.3931612968444824, -1.2493234872817993, -2.3724019527435303, 0.73974609375, -0.16748046875, -0.615234375
301, 3430604073, -5.093048095703125, 1.9975005388259888, 8.202044486999512, -2.380969285964966, -1.3512108325958252, -2.483855724334717, 0.740478515625, -0.16845703125, -0.613525390625
302, 3430620740, -5.095871925354004, 1.9897398948669434, 8.207815170288086, -2.424882411956787, -1.238386869430542, -2.4491889476776123, 0.739501953125, -0.16796875, -0.612548828125
303, 3430637407, -5.095566272735596, 2.0156149864196777, 8.183005332946777, -2.491091012954712, -1.209303617477417, -2.5557758808135986, 0.739990234375, -0.16552734375, -0.613037109375
304, 3430654074, -5.119979381561279, 2.014845132827759, 8.20883846282959, -2.513502359390259, -1.107480525970459, -2.6254684925079346, 0.739990234375, -0.16845703125, -0.614013671875
305, 3430670741, -5.125556468963623, 1.9997076988220215, 8.177864074707031, -2.6085259914398193, -1.209457516670227, -2.636251449584961, 0.740234375, -0.1669921875, -0.61962890625
306, 3430687408, -5.083836078643799, 2.0106136798858643, 8.179828643798828, -2.629899740219116, -1.2521538734436035, -2.6335878372192383, 0.740966796875, -0.16796875, -0.614013671875
307, 3430704075, -5.069379806518555, 2.0083682537078857, 8.190342903137207, -2.685504674911499, -1.1144342422485352, -2.854010581970215, 0.739501953125, -0.16552734375, -0.614013671875
308, 3430720742, -5.079057693481445, 2.0164265632629395, 8.158258438110352, -2.79087495803833, -0.8207204937934875, -3.0468738079071045, 0.741455078125, -0.1650390625, -0.612548828125
309, 3430737409, -5.141839504241943, 1.9994956254959106, 8.17176342010498, -2.3337912559509277, -0.886865496635437, -3.074446439743042, 0.741455078125, -0.1669921875, -0.613525390625
310, 3430754076, -5.133439064025879, 1.9590002298355103, 8.188246726989746, -2.5773680210113525, -0.8099761605262756, -2.9970831871032715, 0.740966796875, -0.16455078125, -0.613037109375
311, 3430770743, -5.095976829528809, 2.004063606262207, 8.179224967956543, -2.5633704662323, -0.8492404222488403, -2.9880802631378174, 0.740966796875, -0.1650390625, -0.614013671875
312, 3430787410, -5.116024971008301, 2.0119881629943848, 8.20067024230957, -2.7739834785461426, -0.7243399024009705, -3.2123830318450928, 0.740478515625, -0.166015625, -0.614990234375
313, 3430804077, -5.139686584472656, 1.9643988609313965, 8.219714164733887, -2.6783714294433594, -0.6312763094902039, -2.9964559078216553, 0.740966796875, -0.16357421875, -0.614501953125
314, 3430820744, -5.164552688598633, 1.9783120155334473, 8.179961204528809, -2.520392656326294, -0.8806543946266174, -2.875308036804199, 0.743896484375, -0.16357421875, -0.614501953125
315, 3430837411, -5.11962890625, 1.9686235189437866, 8.172636985778809, -2.4573850631713867, -1.0098063945770264, -2.891200065612793, 0.743896484375, -0.16357421875, -0.6103515625
316, 3430854078, -5.145984649658203, 2.018989086151123, 8.177557945251465, -2.6925601959228516, -0.9222363829612732, -2.9670772552490234, 0.742431640625, -0.1630859375, -0.613037109375
317, 3430870745, -5.147652626037598, 1.9670860767364502, 8.1978759765625, -2.570158004760742, -1.0374683141708374, -2.8511292934417725, 0.741943359375, -0.16455078125, -0.611572265625
318, 3430887412, -5.160337448120117, 1.9722743034362793, 8.184320449829102, -2.462648630142212, -1.121324062347412, -2.643256425857544, 0.741943359375, -0.16357421875, -0.612548828125
319, 3430904079, -5.161296844482422, 1.959466576576233, 8.165380477905273, -2.4272003173828125, -1.3099488019943237, -2.454132080078125, 0.741455078125, -0.1640625, -0.611572265625
320, 3430920746, -5.140268802642822, 1.9712185859680176, 8.185380935668945, -2.46572208404541, -1.5496965646743774, -2.425304889678955, 0.740478515625, -0.16455078125, -0.614990234375
321, 3430937413, -5.131357669830322, 1.9685641527175903, 8.167187690734863, -2.5150394439697266, -1.4427250623703003, -2.3843376636505127, 0.743408203125, -0.1650390625, -0.611572265625
322, 3430954080, -5.09636926651001, 1.9895516633987427, 8.189627647399902, -2.5754852294921875, -1.3825352191925049, -2.4602150917053223, 0.740966796875, -0.1640625, -0.614501953125
323, 3430970747, -5.139735221862793, 1.9660204648971558, 8.163907051086426, -2.4401984214782715, -1.3780272006988525, -2.474865198135376, 0.742919921875, -0.16357421875, -0.612548828125
324, 3430987414, -5.13800048828125, 1.9629013538360596, 8.187799453735352, -2.424882650375366, -1.4247833490371704, -2.415060043334961, 0.743408203125, -0.16259765625, -0.612548828125
325, 3431004081, -5.118792533874512, 1.9820269346237183, 8.197990417480469, -2.392136573791504, -1.3526709079742432, -2.4207332134246826, 0.742431640625, -0.1650390625, -0.612548828125
326, 3431020748, -5.145009517669678, 1.9590123891830444, 8.176793098449707, -2.4187612533569336, -1.2858473062515259, -2.4133822917938232, 0.742431640625, -0.1640625, -0.611572265625
327, 3431037415, -5.144408226013184, 1.975684642791748, 8.17219066619873, -2.434499740600586, -1.3292733430862427, -2.39812970161438, 0.742919921875, -0.1630859375, -0.611083984375
328, 3431054082, -5.150854587554932, 1.9831336736679077, 8.193827629089355, -2.479949712753296, -1.3733657598495483, -2.3090107440948486, 0.743408203125, -0.1650390625, -0.613037109375
329, 3431070749, -5.118542194366455, 1.977805495262146, 8.152300834655762, -2.3943393230438232, -1.3731993436813354, -2.446422576904297, 0.742919921875, -0.16357421875, -0.614501953125
330, 3431087416, -5.117334842681885, 1.9727798700332642, 8.197210311889648, -2.490809202194214, -1.2323037385940552, -2.50357723236084, 0.741943359375, -0.16357421875, -0.613037109375
331, 3431104083, -5.137167930603027, 1.9549477100372314, 8.159440040588379, -2.3967597484588623, -1.1344761848449707, -2.4443352222442627, 0.743896484375, -0.16357421875, -0.613525390625
332, 3431120750, -5.147416591644287, 1.9885588884353638, 8.166366577148438, -2.4204258918762207, -1.111219882965088, -2.469205141067505, 0.743408203125, -0.161865234375, -0.613525390625
333, 3431137417, -5.146518707275391, 1.9552289247512817, 8.177518844604492, -2.44667911529541, -1.1990330219268799, -2.475429058074951, 0.742919921875, -0.16552734375, -0.613037109375
334, 3431154084, -5.156295299530029, 1.9516366720199585, 8.18411636352539, -2.429800033569336, -1.2992043495178223, -2.426739454269409, 0.743408203125, -0.160888671875, -0.6171875
335, 3431170751, -5.11497688293457, 1.9897730350494385, 8.190897941589355, -2.4854564666748047, -1.2594789266586304, -2.3834922313690186, 0.744384765625, -0.16357421875, -0.612548828125
336, 3431187418, -5.117055416107178, 1.958357334136963, 8.17879867553711, -2.537527322769165, -1.0296818017959595, -2.6571128368377686, 0.741943359375, -0.1630859375, -0.60986328125
337, 3431204085, -5.120148181915283, 1.9889382123947144, 8.176787376403809, -2.5989723205566406, -0.814957857131958, -2.7463862895965576, 0.742919921875, -0.160888671875, -0.612548828125
338, 3431220752, -5.177207946777344, 1.963157057762146, 8.172603607177734, -2.461136817932129, -0.8901693224906921, -2.7247557640075684, 0.742919921875, -0.16357421875, -0.612060546875
339, 3431237419, -5.159045219421387, 1.9826072454452515, 8.167606353759766, -2.4588065147399902, -1.0505305528640747, -2.622843027114868, 0.74560546875, -0.1630859375, -0.613525390625
340, 3431254086, -5.149296283721924, 1.9612951278686523, 8.180442810058594, -2.44827938079834, -1.1102720499038696, -2.5450315475463867, 0.743408203125, -0.161376953125, -0.612060546875
341, 3431270753, -5.160102844238281, 1.9607570171356201, 8.167491912841797, -2.4819605350494385, -1.232688069343567, -2.520404815673828, 0.742431640625, -0.16259765625, -0.612060546875
342, 3431287420, -5.14350700378418, 1.9763859510421753, 8.16678237915039, -2.445577383041382, -1.281787633895874, -2.4651968479156494, 0.742919921875, -0.161865234375, -0.612060546875
343, 3431304087, -5.121138095855713, 1.9664307832717896, 8.174118041992188, -2.597179412841797, -1.1022428274154663, -2.561372756958008, 0.743896484375, -0.1640625, -0.612060546875
344, 3431320754, -5.149106502532959, 1.9661035537719727, 8.173324584960938, -2.445667266845703, -1.0115097761154175, -2.534633159637451, 0.743896484375, -0.161376953125, -0.611572265625
345, 3431337421, -5.1643524169921875, 1.9440898895263672, 8.179341316223145, -2.501387596130371, -1.1073778867721558, -2.578853130340576, 0.744873046875, -0.161865234375, -0.612548828125
346, 3431354088, -5.171756744384766, 1.9774410724639893, 8.163712501525879, -2.5404598712921143, -1.2572377920150757, -2.5112998485565186, 0.743408203125, -0.161376953125, -0.612060546875
347, 3431370755, -5.1755146980285645, 1.9642423391342163, 8.181775093078613, -2.4959959983825684, -1.2557393312454224, -2.454439163208008, 0.743896484375, -0.160888671875, -0.611572265625
348, 3431387422, -5.127636909484863, 1.9522089958190918, 8.159745216369629, -2.4969563484191895, -1.374748945236206, -2.5003502368927, 0.74560546875, -0.162109375, -0.613037109375
349, 3431404089, -5.169970512390137, 1.946277379989624, 8.188385963439941, -2.4725992679595947, -1.4225679636001587, -2.3588144779205322, 0.744873046875, -0.161865234375, -0.612548828125
350, 3431420756, -5.15305757522583, 1.946524977684021, 8.1725492477417, -2.4774014949798584, -1.49478280544281, -2.408055067062378, 0.743408203125, -0.161865234375, -0.61669921875
351, 3431437423, -5.1606125831604, 1.9681891202926636, 8.157401084899902, -2.3992698192596436, -1.4103634357452393, -2.3477113246917725, 0.744384765625, -0.16259765625, -0.610595703125
352, 3431454090, -5.1534104347229, 1.9675260782241821, 8.1726713180542, -2.3937759399414062, -1.4130527973175049, -2.3234565258026123, 0.744384765625, -0.16259765625, -0.613525390625
353, 3431470757, -5.159634113311768, 1.9694479703903198, 8.163031578063965, -2.394160032272339, -1.5457905530929565, -2.3386316299438477, 0.744873046875, -0.161865234375, -0.613037109375
354, 3431487424, -5.143646717071533, 1.9760113954544067, 8.143854141235352, -2.525886297225952, -1.349379539489746, -2.3788437843322754, 0.743896484375, -0.159912109375, -0.611572265625
355, 3431504091, -5.170923709869385, 1.9572087526321411, 8.156405448913574, -2.5470166206359863, -1.365336298942566, -2.4661829471588135, 0.743896484375, -0.161865234375, -0.612548828125
356, 3431520758, -5.1503005027771, 1.953617811203003, 8.156203269958496, -2.4908864498138428, -1.4338631629943848, -2.417595624923706, 0.743408203125, -0.162353515625, -0.610595703125
357, 3431537425, -5.175806045532227, 1.9448678493499756, 8.177748680114746, -2.4884660243988037, -1.6139843463897705, -2.277289390563965, 0.742431640625, -0.159423828125, -0.611083984375
358, 3431554092, -5.148286819458008, 1.966935396194458, 8.167289733886719, -2.3442792892456055, -1.6018567085266113, -2.2469382286071777, 0.74560546875, -0.16162109375, -0.609375
359, 3431570759, -5.141361713409424, 1.9784198999404907, 8.180177688598633, -2.416468381881714, -1.520164966583252, -2.3333938121795654, 0.743408203125, -0.159423828125, -0.611083984375
360, 3431587426, -5.135935306549072, 1.968178629875183, 8.17487907409668, -2.480090856552124, -1.3304646015167236, -2.4976611137390137, 0.7470703125, -0.160400390625, -0.609375
361, 3431604093, -5.158647060394287, 1.960145115852356, 8.16743278503418, -2.533621311187744, -1.1520721912384033, -2.5291390419006348, 0.742919921875, -0.161376953125, -0.611083984375
362, 3431620760, -5.165614128112793, 1.9458742141723633, 8.174163818359375, -2.4738411903381348, -1.3013300895690918, -2.5060362815856934, 0.7451171875, -0.16162109375, -0.6103515625
363, 3431637427, -5.149612903594971, 1.9402735233306885, 8.16932487487793, -2.5261423587799072, -1.1894665956497192, -2.4076194763183594, 0.742431640625, -0.159912109375, -0.609619140625
364, 3431654094, -5.166855335235596, 1.953572154045105, 8.165830612182617, -2.4077091217041016, -1.2756917476654053, -2.468782901763916, 0.744384765625, -0.161865234375, -0.612060546875
365, 3431670761, -5.171640396118164, 1.963170051574707, 8.153724670410156, -2.3883070945739746, -1.3006511926651, -2.3201904296875, 0.744384765625, -0.160400390625, -0.60986328125
366, 3431687428, -5.165740966796875, 1.9458638429641724, 8.182126998901367, -2.446089744567871, -1.4017703533172607, -2.313185691833496, 0.74609375, -0.161376953125, -0.611083984375
367, 3431704095, -5.166716575622559, 1.9464548826217651, 8.176931381225586, -2.472996234893799, -1.5188076496124268, -2.35754656791687, 0.7451171875, -0.159912109375, -0.60986328125
368, 3431720762, -5.127671718597412, 1.9683809280395508, 8.172870635986328, -2.5251305103302, -1.4068671464920044, -2.421309232711792, 0.743896484375, -0.159423828125, -0.60986328125
369, 3431737429, -5.145553112030029, 1.9486349821090698, 8.149650573730469, -2.4834206104278564, -1.1910545825958252, -2.597294330596924, 0.74462890625, -0.16259765625, -0.60888671875
370, 3431754096, -5.154123306274414, 1.9612584114074707, 8.169716835021973, -2.5594773292541504, -1.0707646608352661, -2.5936062335968018, 0.744384765625, -0.161865234375, -0.6103515625
371, 3431770763, -5.173405647277832, 1.9702342748641968, 8.165387153625488, -2.133819341659546, -1.4077508449554443, -2.4696404933929443, 0.743896484375, -0.160400390625, -0.609375
372, 3431787430, -5.159620761871338, 1.950906753540039, 8.158294677734375, -2.652822971343994, -1.3007539510726929, -2.5193936824798584, 0.7451171875, -0.161376953125, -0.60693359375
373, 3431804097, -5.170217037200928, 1.9310280084609985, 8.176597595214844, -2.563600778579712, -1.3871710300445557, -2.3851571083068848, 0.743896484375, -0.159423828125, -0.60986328125
374, 3431820764, -5.154749393463135, 1.957930326461792, 8.171594619750977, -2.540959119796753, -1.2977442741394043, -2.383172035217285, 0.742919921875, -0.161376953125, -0.612548828125
375, 3431837431, -5.153983116149902, 1.9739019870758057, 8.171806335449219, -2.389690399169922, -1.3520432710647583, -2.40718412399292, 0.7451171875, -0.16162109375, -0.60986328125
376, 3431854098, -5.186680793762207, 1.946534514427185, 8.155532836914062, -2.4562323093414307, -1.3512109518051147, -2.5505125522613525, 0.743408203125, -0.162109375, -0.6103515625
377, 3431870765, -5.180701732635498, 1.9762699604034424, 8.147387504577637, -2.426252603530884, -1.3719186782836914, -2.5805823802948, 0.74658203125, -0.158447265625, -0.6103515625
378, 3431887432, -5.146637439727783, 1.9432892799377441, 8.160884857177734, -2.504281997680664, -1.4652386903762817, -2.4574873447418213, 0.74462890625, -0.159423828125, -0.610595703125
379, 3431904099, -5.1752848625183105, 1.928534984588623, 8.176236152648926, -2.534965753555298, -1.29021418094635, -2.5044357776641846, 0.744140625, -0.161376953125, -0.60888671875
380, 3431920766, -5.180461883544922, 1.9643138647079468, 8.1574125289917, -2.416135787963867, -1.3033277988433838, -2.413689613342285, 0.74560546875, -0.161376953125, -0.611572265625
381, 3431937433, -5.159232139587402, 1.94672691822052, 8.155435562133789, -2.4697303771972656, -1.3083351850509644, -2.5198287963867188, 0.743896484375, -0.159423828125, -0.611083984375
382, 3431954100, -5.162076473236084, 1.9254485368728638, 8.156983375549316, -2.3787925243377686, -1.232534408569336, -2.4199650287628174, 0.74560546875, -0.159912109375, -0.610595703125
383, 3431970767, -5.158031940460205, 1.948874831199646, 8.190469741821289, -2.4077861309051514, -1.0908704996109009, -2.3436901569366455, 0.74609375, -0.159423828125, -0.610595703125
384, 3431987434, -5.166251182556152, 1.949754238128662, 8.17080020904541, -2.2726917266845703, -0.7176677584648132, -2.4555790424346924, 0.743896484375, -0.161376953125, -0.611572265625
385, 3432004101, -5.205896377563477, 1.924149990081787, 8.155567169189453, -2.102879285812378, -0.7557282447814941, -2.3725297451019287, 0.74560546875, -0.160888671875, -0.6103515625
386, 3432020768, -5.198598861694336, 1.9168118238449097, 8.13868236541748, -1.8276071548461914, -1.0724420547485352, -2.0938379764556885, 0.74658203125, -0.160400390625, -0.607421875
387, 3432037435, -5.16865348815918, 1.9727404117584229, 8.1572265625, -1.999750018119812, -1.1751106977462769, -2.077676773071289, 0.743896484375, -0.158935546875, -0.609375
388, 3432054102, -5.17006778717041, 1.9559327363967896, 8.14049243927002, -2.191755533218384, -1.4097230434417725, -2.2372820377349854, 0.74462890625, -0.160888671875, -0.6103515625
389, 3432070769, -5.177366256713867, 1.9453786611557007, 8.155332565307617, -2.1341912746429443, -1.5178855657577515, -2.3171041011810303, 0.7470703125, -0.160400390625, -0.609375
390, 3432087436, -5.192897319793701, 1.9511635303497314, 8.137550354003906, -2.1906027793884277, -1.5564324855804443, -2.2521884441375732, 0.7451171875, -0.159423828125, -0.60986328125
391, 3432104103, -5.195408821105957, 1.9441591501235962, 8.186614990234375, -2.1471381187438965, -1.5001612901687622, -2.265174150466919, 0.7470703125, -0.159912109375, -0.61083984375
392, 3432120770, -5.170126914978027, 1.9529496431350708, 8.172530174255371, -2.161417245864868, -1.5142996311187744, -2.2031660079956055, 0.74755859375, -0.1611328125, -0.609375
393, 3432137437, -5.1772589683532715, 1.9712661504745483, 8.167987823486328, -2.215613842010498, -1.324342966079712, -2.265340805053711, 0.74609375, -0.161376953125, -0.609375
394, 3432154104, -5.1861467361450195, 1.9576096534729004, 8.170989990234375, -2.2872397899627686, -1.3144053220748901, -2.3078579902648926, 0.74609375, -0.158935546875, -0.60888671875
395, 3432170771, -5.175270080566406, 1.9472404718399048, 8.134162902832031, -2.28753399848938, -1.488507628440857, -2.2567477226257324, 0.7470703125, -0.160400390625, -0.609375
396, 3432187438, -5.186968803405762, 1.9457687139511108, 8.144909858703613, -2.2648158073425293, -1.56126070022583, -2.2852678298950195, 0.7470703125, -0.160400390625, -0.6103515625
397, 3432204105, -5.202651023864746, 1.9343183040618896, 8.156087875366211, -2.4221675395965576, -1.6604074239730835, -2.1330387592315674, 0.7451171875, -0.159912109375, -0.60986328125
398, 3432220772, -5.18290901184082, 1.9464428424835205, 8.140554428100586, -2.30525803565979, -1.6577306985855103, -2.051692485809326, 0.74658203125, -0.160400390625, -0.6083984375
399, 3432237439, -5.177345275878906, 1.9627799987792969, 8.159171104431152, -2.2713472843170166, -1.7372326850891113, -2.1240100860595703, 0.74658203125, -0.159912109375, -0.6103515625
400, 3432254106, -5.187503814697266, 1.9643605947494507, 8.158487319946289, -2.346468925476074, -1.6236404180526733, -2.059248208999634, 0.7451171875, -0.160400390625, -0.609375
401, 3432270773, -5.184455394744873, 1.9463073015213013, 8.153343200683594, -2.4243698120117188, -1.4685169458389282, -2.1138670444488525, 0.7451171875, -0.160400390625, -0.607421875
402, 3432287440, -5.171885013580322, 1.9699028730392456, 8.14291763305664, -2.489708185195923, -1.5592372417449951, -2.2000925540924072, 0.744140625, -0.160888671875, -0.6083984375
403, 3432304107, -5.1700005531311035, 1.9576092958450317, 8.135017395019531, -2.4055190086364746, -1.476610541343689, -2.149686574935913, 0.74609375, -0.162109375, -0.61083984375
404, 3432320774, -5.174761772155762, 1.9724875688552856, 8.151721000671387, -2.4202210903167725, -1.576000690460205, -2.2029995918273926, 0.74462890625, -0.160888671875, -0.6103515625
405, 3432337441, -5.1646647453308105, 1.9761645793914795, 8.147934913635254, -2.3684704303741455, -1.4851908683776855, -2.248654365539551, 0.74560546875, -0.160888671875, -0.609375
406, 3432354108, -5.186490058898926, 1.9618523120880127, 8.157849311828613, -2.4479851722717285, -1.3733786344528198, -2.23820424079895, 0.74560546875, -0.161376953125, -0.611572265625
407, 3432370775, -5.175784111022949, 1.952302098274231, 8.150337219238281, -2.363194227218628, -1.335958480834961, -2.189757823944092, 0.74560546875, -0.159423828125, -0.6103515625
408, 3432387442, -5.184463024139404, 1.9529424905776978, 8.131340980529785, -2.355548620223999, -1.4661732912063599, -2.2695541381835938, 0.74462890625, -0.159912109375, -0.60888671875
409, 3432404109, -5.175673961639404, 1.946075201034546, 8.150030136108398, -2.395709753036499, -1.4988296031951904, -2.198504686355591, 0.7451171875, -0.161376953125, -0.60791015625
410, 3432420776, -5.176867961883545, 1.955169677734375, 8.139825820922852, -2.3463666439056396, -1.5603896379470825, -2.158215284347534, 0.744140625, -0.157470703125, -0.60791015625
411, 3432437443, -5.16997766494751, 1.9660179615020752, 8.126190185546875, -2.4428751468658447, -1.678169846534729, -2.202500104904175, 0.7451171875, -0.160888671875, -0.6103515625
412, 3432454110, -5.174533367156982, 1.9553658962249756, 8.148558616638184, -2.4701144695281982, -1.6579997539520264, -2.2269091606140137, 0.74462890625, -0.162109375, -0.6103515625
413, 3432470777, -5.166489601135254, 1.9568499326705933, 8.170130729675293, -2.512657403945923, -1.6083624362945557, -2.2463619709014893, 0.744140625, -0.159423828125, -0.609375
414, 3432487444, -5.180041313171387, 1.9502768516540527, 8.157840728759766, -2.4165070056915283, -1.400989055633545, -2.2542121410369873, 0.74609375, -0.160400390625, -0.6083984375
415, 3432504111, -5.163120269775391, 1.9485870599746704, 8.154064178466797, -2.418978691101074, -1.4502677917480469, -2.2179059982299805, 0.74462890625, -0.159423828125, -0.60791015625
416, 3432520778, -5.19044303894043, 1.964520812034607, 8.135498046875, -2.447946548461914, -1.3917943239212036, -2.2531237602233887, 0.744140625, -0.16162109375, -0.60693359375
417, 3432537445, -5.15340518951416, 1.9808119535446167, 8.153030395507812, -2.507905960083008, -1.4024876356124878, -2.382019519805908, 0.743896484375, -0.16357421875, -0.60888671875
418, 3432554112, -5.219590187072754, 1.9402647018432617, 8.142148971557617, -2.5310983657836914, -1.4388960599899292, -2.3941986560821533, 0.74462890625, -0.160400390625, -0.60986328125
419, 3432570779, -5.1779608726501465, 1.946968674659729, 8.158222198486328, -2.5688769817352295, -1.3366371393203735, -2.3553695678710938, 0.74755859375, -0.1611328125, -0.60791015625
420, 3432587446, -5.210381984710693, 1.937462329864502, 8.155683517456055, -2.5112099647521973, -1.4918246269226074, -2.2841789722442627, 0.74609375, -0.159423828125, -0.60693359375
421, 3432604113, -5.180830955505371, 1.951795220375061, 8.13233757019043, -2.3992056846618652, -1.5292831659317017, -2.160059928894043, 0.74560546875, -0.160888671875, -0.61083984375
422, 3432620780, -5.16237735748291, 1.9376498460769653, 8.158391952514648, -2.3928794860839844, -1.5490305423736572, -2.1624550819396973, 0.743408203125, -0.160400390625, -0.610595703125
423, 3432637447, -5.174814224243164, 1.964134931564331, 8.138835906982422, -2.5411128997802734, -1.5867836475372314, -2.193753719329834, 0.7470703125, -0.160888671875, -0.61083984375
424, 3432654114, -5.160726070404053, 1.9410682916641235, 8.14838695526123, -2.445833683013916, -1.6181977987289429, -2.16981840133667, 0.74853515625, -0.158935546875, -0.60986328125
425, 3432670781, -5.171421051025391, 1.9857256412506104, 8.139029502868652, -2.3947362899780273, -1.499828577041626, -2.2970619201660156, 0.7451171875, -0.161376953125, -0.609375
426, 3432687448, -5.148538112640381, 1.948843240737915, 8.176904678344727, -2.4834582805633545, -1.3665142059326172, -2.3591983318328857, 0.74755859375, -0.16259765625, -0.6083984375
427, 3432704115, -5.194610595703125, 1.9234509468078613, 8.135009765625, -2.4341797828674316, -1.4344136714935303, -2.2914788722991943, 0.7451171875, -0.159912109375, -0.60888671875
428, 3432720782, -5.191751956939697, 1.943361759185791, 8.15360164642334, -2.4147911071777344, -1.476597785949707, -2.233734607696533, 0.74658203125, -0.159912109375, -0.60888671875
429, 3432737449, -5.178322792053223, 1.9332081079483032, 8.155004501342773, -2.3539862632751465, -1.4396898746490479, -2.197556734085083, 0.74853515625, -0.1611328125, -0.611572265625
430, 3432754116, -5.1841583251953125, 1.9422518014907837, 8.1548490524292, -2.335571050643921, -1.5009427070617676, -2.2449018955230713, 0.74609375, -0.161376953125, -0.6103515625
431, 3432770783, -5.166420936584473, 1.9466592073440552, 8.146711349487305, -2.3398609161376953, -1.5380425453186035, -2.1612892150878906, 0.744384765625, -0.160888671875, -0.610595703125
432, 3432787450, -5.164201259613037, 1.9593970775604248, 8.159867286682129, -2.31496524810791, -1.432902455329895, -2.1673080921173096, 0.74658203125, -0.160888671875, -0.611083984375
433, 3432804117, -5.186081886291504, 1.9430959224700928, 8.152650833129883, -2.2619595527648926, -1.3345880508422852, -2.31400465965271, 0.744140625, -0.159423828125, -0.609375
434, 3432820784, -5.174548149108887, 1.9621912240982056, 8.127165794372559, -2.358955144882202, -1.4210948944091797, -2.2149477005004883, 0.74609375, -0.159912109375, -0.60888671875
435, 3432837451, -5.192779064178467, 1.9519215822219849, 8.135124206542969, -2.3626179695129395, -1.4795817136764526, -2.2908384799957275, 0.74609375, -0.160400390625, -0.60791015625
436, 3432854118, -5.194026470184326, 1.9460577964782715, 8.154739379882812, -2.376781940460205, -1.5527570247650146, -2.2680811882019043, 0.7451171875, -0.159912109375, -0.612548828125
437, 3432870785, -5.181796550750732, 1.955165147781372, 8.164420127868652, -2.360351324081421, -1.5186667442321777, -2.2328386306762695, 0.7470703125, -0.160400390625, -0.6083984375
438, 3432887452, -5.1728291511535645, 1.9519028663635254, 8.14649486541748, -2.3263630867004395, -1.4360015392303467, -2.2066493034362793, 0.74609375, -0.160888671875, -0.60888671875
439, 3432904119, -5.188924789428711, 1.9472168684005737, 8.150699615478516, -2.352820873260498, -1.4209028482437134, -2.2120916843414307, 0.74658203125, -0.160400390625, -0.60791015625
440, 3432920786, -5.201998233795166, 1.9545179605484009, 8.136761665344238, -2.3085110187530518, -1.4229134321212769, -2.355574369430542, 0.74560546875, -0.158935546875, -0.60986328125
441, 3432937453, -5.192699909210205, 1.9509550333023071, 8.15038776397705, -2.396042585372925, -1.4994699954986572, -2.337658405303955, 0.74609375, -0.160400390625, -0.60888671875
442, 3432954120, -5.177248477935791, 1.9473172426223755, 8.165539741516113, -2.3356223106384277, -1.7674428224563599, -2.2330050468444824, 0.74560546875, -0.159912109375, -0.609375
443, 3432970787, -5.157033920288086, 1.9816044569015503, 8.172222137451172, -2.344881296157837, -1.6042900085449219, -2.2103888988494873, 0.74462890625, -0.160400390625, -0.609375
444, 3432987454, -5.161085605621338, 2.0016093254089355, 8.141922950744629, -2.742543935775757, -1.5800219774246216, -2.4986343383789062, 0.74560546875, -0.160888671875, -0.607421875
445, 3433004121, -5.204878330230713, 1.9134678840637207, 8.16247844696045, -2.4549903869628906, -1.567728042602539, -2.5610780715942383, 0.74462890625, -0.159912109375, -0.60888671875
446, 3433020788, -5.169212818145752, 1.9135833978652954, 8.173477172851562, -2.3074607849121094, -1.4537510871887207, -2.1959304809570312, 0.74755859375, -0.159423828125, -0.60986328125
447, 3433037455, -5.17788553237915, 1.9618840217590332, 8.144577026367188, -2.121896743774414, -1.4438133239746094, -2.172801971435547, 0.74755859375, -0.159423828125, -0.611083984375
448, 3433054122, -5.184661388397217, 1.9522403478622437, 8.1470308303833, -2.1695494651794434, -1.4608076810836792, -2.213283061981201, 0.744384765625, -0.161865234375, -0.611083984375
449, 3433070789, -5.180367946624756, 1.9628647565841675, 8.141475677490234, -2.2613961696624756, -1.4520094394683838, -2.2201597690582275, 0.74658203125, -0.161376953125, -0.6103515625
450, 3433087456, -5.1816792488098145, 1.952813744544983, 8.141716003417969, -2.2042675018310547, -1.4933996200561523, -2.337184190750122, 0.7451171875, -0.160400390625, -0.612548828125
451, 3433104123, -5.1877946853637695, 1.9206596612930298, 8.154358863830566, -2.151376962661743, -1.564244270324707, -2.1525166034698486, 0.74462890625, -0.159912109375, -0.60888671875
452, 3433120790, -5.18041467666626, 1.9780864715576172, 8.152376174926758, -2.177668571472168, -1.430482029914856, -2.1044163703918457, 0.74560546875, -0.160888671875, -0.609375
453, 3433137457, -5.170263767242432, 1.9745097160339355, 8.158577919006348, -2.290966749191284, -1.5142613649368286, -2.1258928775787354, 0.7470703125, -0.159423828125, -0.6103515625
454, 3433154124, -5.184596061706543, 1.9543635845184326, 8.147477149963379, -2.230072259902954, -1.4569785594940186, -2.1326029300689697, 0.748046875, -0.160888671875, -0.60986328125
455, 3433170791, -5.16547155380249, 1.9727234840393066, 8.147444725036621, -2.153170108795166, -1.4212870597839355, -2.208467960357666, 0.74560546875, -0.161376953125, -0.607421875
456, 3433187458, -5.1674628257751465, 1.9548019170761108, 8.179200172424316, -2.172750949859619, -1.2695190906524658, -2.0584540367126465, 0.74658203125, -0.162109375, -0.60986328125
457, 3433204125, -5.1888108253479, 1.952247977256775, 8.146162986755371, -2.122434616088867, -1.2282953262329102, -2.1148533821105957, 0.7470703125, -0.1611328125, -0.60888671875
458, 3433220792, -5.196840763092041, 1.9578157663345337, 8.148038864135742, -2.043419599533081, -1.2388348579406738, -2.06451153755188, 0.74462890625, -0.159912109375, -0.611083984375
459, 3433237459, -5.185420036315918, 1.9512044191360474, 8.138606071472168, -2.095003366470337, -1.3856725692749023, -2.0871403217315674, 0.74560546875, -0.16259765625, -0.60986328125
460, 3433254126, -5.19151496887207, 1.953439712524414, 8.129148483276367, -2.1060171127319336, -1.5533719062805176, -1.8432053327560425, 0.74609375, -0.159912109375, -0.60888671875
461, 3433270793, -5.19086217880249, 1.9836125373840332, 8.131706237792969, -2.040717363357544, -1.5648846626281738, -1.997022032737732, 0.74951171875, -0.1611328125, -0.60888671875
462, 3433287460, -5.1788153648376465, 1.94791841506958, 8.133606910705566, -2.1701254844665527, -1.6359598636627197, -2.0206754207611084, 0.74560546875, -0.158935546875, -0.60791015625
463, 3433304127, -5.174587726593018, 1.9560600519180298, 8.14896011352539, -2.107041597366333, -1.580879807472229, -2.0150022506713867, 0.74609375, -0.161376953125, -0.6083984375
464, 3433320794, -5.200382232666016, 1.9682658910751343, 8.149009704589844, -1.9813728332519531, -1.4948338270187378, -1.9507912397384644, 0.74462890625, -0.16259765625, -0.609375
465, 3433337461, -5.167115211486816, 1.9685850143432617, 8.167431831359863, -2.065216064453125, -1.5587506294250488, -1.9814882278442383, 0.74462890625, -0.162109375, -0.60888671875
466, 3433354128, -5.186602592468262, 1.9686155319213867, 8.139886856079102, -2.169548988342285, -1.5557153224945068, -1.9878655672073364, 0.74609375, -0.16259765625, -0.609375
467, 3433370795, -5.176535606384277, 1.9792708158493042, 8.157182693481445, -2.201910972595215, -1.470322608947754, -2.143219470977783, 0.7470703125, -0.162109375, -0.61083984375
468, 3433387462, -5.186452388763428, 1.9573017358779907, 8.1552152633667, -2.2311859130859375, -1.514581322669983, -2.1116645336151123, 0.74560546875, -0.161376953125, -0.60888671875
469, 3433404129, -5.181061744689941, 1.9798872470855713, 8.154276847839355, -2.294654369354248, -1.5767688751220703, -2.077958345413208, 0.743896484375, -0.16259765625, -0.60888671875
470, 3433420796, -5.188321590423584, 1.983817458152771, 8.148927688598633, -2.375936508178711, -1.8024297952651978, -2.1024057865142822, 0.74609375, -0.1630859375, -0.607421875
471, 3433437463, -5.176543235778809, 1.997860312461853, 8.136198043823242, -2.5616540908813477, -1.735465407371521, -2.2136290073394775, 0.74560546875, -0.16162109375, -0.60888671875
472, 3433454130, -5.154015064239502, 1.9670135974884033, 8.118912696838379, -2.5676605701446533, -1.7452366352081299, -2.1803836822509766, 0.74609375, -0.160888671875, -0.6083984375
473, 3433470797, -5.157166004180908, 1.984689712524414, 8.160835266113281, -2.4053778648376465, -1.54764723777771, -2.2335169315338135, 0.7451171875, -0.16162109375, -0.60986328125
474, 3433487464, -5.177814483642578, 1.9863322973251343, 8.150195121765137, -2.006742000579834, -1.556522011756897, -2.2105932235717773, 0.74462890625, -0.16259765625, -0.60888671875
475, 3433504131, -5.179092884063721, 1.9610276222229004, 8.125606536865234, -2.2201342582702637, -1.559518814086914, -2.099921226501465, 0.74755859375, -0.16357421875, -0.6083984375
476, 3433520798, -5.192195892333984, 1.968441367149353, 8.126940727233887, -2.505357503890991, -1.571582555770874, -2.154629945755005, 0.7470703125, -0.1630859375, -0.6083984375
477, 3433537465, -5.1651611328125, 1.9685674905776978, 8.126790046691895, -2.4494447708129883, -1.6716511249542236, -2.0959126949310303, 0.74560546875, -0.1630859375, -0.609375
478, 3433554132, -5.152071475982666, 1.9737458229064941, 8.164443969726562, -2.5333008766174316, -1.7064334154129028, -2.1682686805725098, 0.743408203125, -0.16259765625, -0.60986328125
479, 3433570799, -5.177539348602295, 1.9606188535690308, 8.144134521484375, -2.380444288253784, -1.6650688648223877, -2.1524529457092285, 0.7470703125, -0.160888671875, -0.60791015625
480, 3433587466, -5.176496505737305, 1.9653503894805908, 8.148998260498047, -2.3458545207977295, -1.6564375162124634, -2.066164016723633, 0.74462890625, -0.1640625, -0.611083984375
481, 3433604133, -5.171576976776123, 1.976274847984314, 8.156559944152832, -2.388000249862671, -1.6852387189865112, -2.1440517902374268, 0.74658203125, -0.16259765625, -0.60791015625
482, 3433620800, -5.17661190032959, 1.954939603805542, 8.13692855834961, -2.4965851306915283, -1.682434320449829, -2.0983333587646484, 0.74658203125, -0.160888671875, -0.60888671875
483, 3433637467, -5.184847831726074, 1.9588468074798584, 8.157181739807129, -2.356304407119751, -1.714552640914917, -2.1082711219787598, 0.74560546875, -0.16259765625, -0.60986328125
484, 3433654134, -5.172774314880371, 1.9686719179153442, 8.160530090332031, -2.3519372940063477, -1.6691666841506958, -2.0589406490325928, 0.7451171875, -0.16259765625, -0.60986328125
485, 3433670801, -5.19564151763916, 1.9874855279922485, 8.150190353393555, -2.3279638290405273, -1.690194845199585, -2.1414906978607178, 0.7470703125, -0.16357421875, -0.60791015625
486, 3433687468, -5.19146728515625, 1.9577736854553223, 8.150768280029297, -2.3743484020233154, -1.724118709564209, -1.9890309572219849, 0.7451171875, -0.161376953125, -0.60791015625
487, 3433704135, -5.182305335998535, 1.9904520511627197, 8.150223731994629, -2.342191696166992, -1.7575817108154297, -2.133601665496826, 0.7451171875, -0.16162109375, -0.60986328125
488, 3433720802, -5.162827014923096, 1.9687684774398804, 8.158636093139648, -2.3400399684906006, -1.718407154083252, -1.9721651077270508, 0.74462890625, -0.160888671875, -0.609375
489, 3433737469, -5.16907262802124, 1.9786382913589478, 8.137306213378906, -2.3409621715545654, -1.7355931997299194, -2.0309972763061523, 0.74462890625, -0.1640625, -0.6083984375
490, 3433754136, -5.170487880706787, 1.992132306098938, 8.151237487792969, -2.3295392990112305, -1.7606298923492432, -2.0403716564178467, 0.744140625, -0.16259765625, -0.60791015625
491, 3433770803, -5.15105676651001, 1.9629037380218506, 8.170714378356934, -2.3379781246185303, -1.6815760135650635, -1.9999035596847534, 0.74560546875, -0.16357421875, -0.6103515625
492, 3433787470, -5.152370929718018, 1.9777445793151855, 8.165212631225586, -2.3190762996673584, -1.5682015419006348, -2.0397567749023438, 0.74462890625, -0.1630859375, -0.61083984375
493, 3433804137, -5.165332317352295, 1.9652166366577148, 8.174650192260742, -2.25459623336792, -1.5260173082351685, -2.0729637145996094, 0.74560546875, -0.1640625, -0.6103515625
494, 3433820804, -5.188879013061523, 1.9609984159469604, 8.149401664733887, -2.2884433269500732, -1.5661011934280396, -2.0160906314849854, 0.744140625, -0.161376953125, -0.609375
495, 3433837471, -5.1678667068481445, 1.976460337638855, 8.151952743530273, -2.304669141769409, -1.7494372129440308, -1.9088249206542969, 0.7451171875, -0.162109375, -0.609375
496, 3433854138, -5.169238090515137, 1.989997386932373, 8.154857635498047, -2.3225724697113037, -1.8342279195785522, -1.9934875965118408, 0.7451171875, -0.16162109375, -0.61083984375
497, 3433870805, -5.168831825256348, 1.9840925931930542, 8.162142753601074, -2.3603768348693848, -1.903663992881775, -1.9343864917755127, 0.743408203125, -0.16259765625, -0.610595703125
498, 3433887472, -5.152480125427246, 1.9992250204086304, 8.15182876586914, -2.362861394882202, -1.9063918590545654, -1.9625091552734375, 0.743896484375, -0.16357421875, -0.60986328125
499, 3433904139, -5.151915550231934, 1.996151328086853, 8.146470069885254, -2.2986245155334473, -1.849582552909851, -1.9864567518234253, 0.7451171875, -0.16357421875, -0.607421875
500, 3433920806, -5.161229133605957, 1.9902244806289673, 8.154892921447754, -2.2618701457977295, -1.7864731550216675, -1.9275989532470703, 0.743896484375, -0.16357421875, -0.610595703125
501, 3433937473, -5.170190811157227, 1.9835830926895142, 8.144701957702637, -2.284306764602661, -1.7094682455062866, -1.9445031881332397, 0.7451171875, -0.1640625, -0.60986328125
502, 3433954140, -5.175616264343262, 1.971328854560852, 8.171707153320312, -2.247680902481079, -1.722108006477356, -1.9384715557098389, 0.74462890625, -0.1640625, -0.611083984375
503, 3433970807, -5.170513153076172, 1.988173484802246, 8.150032997131348, -2.183187961578369, -1.6903612613677979, -1.8675754070281982, 0.744140625, -0.1630859375, -0.60888671875
504, 3433987474, -5.138436794281006, 1.9863371849060059, 8.136603355407715, -2.2279462814331055, -1.7077523469924927, -1.9353723526000977, 0.743408203125, -0.16357421875, -0.6103515625
505, 3434004141, -5.136874198913574, 1.98503577709198, 8.14119815826416, -2.273383140563965, -1.7319308519363403, -2.021930694580078, 0.74462890625, -0.1630859375, -0.611572265625
506, 3434020808, -5.157755374908447, 1.9822138547897339, 8.157123565673828, -2.2390878200531006, -1.65566885471344, -2.003758430480957, 0.743408203125, -0.16357421875, -0.6083984375
507, 3434037475, -5.156426429748535, 1.9879264831542969, 8.163813591003418, -2.234426259994507, -1.677426815032959, -2.0352747440338135, 0.74462890625, -0.1630859375, -0.6083984375
508, 3434054142, -5.1595940589904785, 1.9880098104476929, 8.165027618408203, -2.247681140899658, -1.614394187927246, -1.9683490991592407, 0.743896484375, -0.1640625, -0.60986328125
509, 3434070809, -5.154942989349365, 1.9927165508270264, 8.169034957885742, -2.258591890335083, -1.600204586982727, -1.9865978956222534, 0.74462890625, -0.16357421875, -0.61083984375
510, 3434087476, -5.154555320739746, 1.9844701290130615, 8.168471336364746, -2.1590864658355713, -1.670997977256775, -2.018728733062744, 0.742431640625, -0.1650390625, -0.60986328125
511, 3434104143, -5.165215015411377, 2.0021231174468994, 8.14774227142334, -2.2707579135894775, -1.7476696968078613, -2.038079261779785, 0.742919921875, -0.16650390625, -0.60986328125
512, 3434120810, -5.142641544342041, 2.0058391094207764, 8.141550064086914, -2.259347438812256, -1.6195677518844604, -2.040742874145508, 0.742431640625, -0.1630859375, -0.60986328125
513, 3434137477, -5.135529518127441, 1.9874531030654907, 8.152074813842773, -2.3305249214172363, -1.6091562509536743, -2.0589663982391357, 0.743408203125, -0.1640625, -0.60986328125
514, 3434154144, -5.154023170471191, 1.9893298149108887, 8.147384643554688, -2.238703727722168, -1.554396390914917, -2.1166975498199463, 0.743408203125, -0.1650390625, -0.610595703125
515, 3434170811, -5.159006118774414, 1.9948261976242065, 8.143224716186523, -2.3172318935394287, -1.592226266860962, -2.093735694885254, 0.74462890625, -0.1650390625, -0.61083984375
516, 3434187478, -5.174900054931641, 2.0060513019561768, 8.113567352294922, -2.279402017593384, -1.5194989442825317, -2.1866328716278076, 0.742919921875, -0.1630859375, -0.609375
517, 3434204145, -5.1458940505981445, 1.966291069984436, 8.158512115478516, -2.2646238803863525, -1.621155858039856, -2.070646047592163, 0.744384765625, -0.16455078125, -0.611083984375
518, 3434220812, -5.168386459350586, 1.992393970489502, 8.150564193725586, -2.2542245388031006, -1.6571671962738037, -2.202730417251587, 0.7451171875, -0.16552734375, -0.60888671875
519, 3434237479, -5.1528401374816895, 2.005969762802124, 8.182043075561523, -2.24775767326355, -1.5272210836410522, -2.1156857013702393, 0.743408203125, -0.166015625, -0.61083984375
520, 3434254146, -5.180760860443115, 1.9765139818191528, 8.150739669799805, -2.199951648712158, -1.676863670349121, -2.0412940979003906, 0.743896484375, -0.16552734375, -0.60888671875
521, 3434270813, -5.171359539031982, 2.0048928260803223, 8.163151741027832, -2.0927624702453613, -1.7113126516342163, -1.8855303525924683, 0.741943359375, -0.16455078125, -0.6103515625
522, 3434287480, -5.14079475402832, 2.0005569458007812, 8.17428970336914, -2.1640937328338623, -1.718663215637207, -1.866640567779541, 0.743408203125, -0.16552734375, -0.611083984375
523, 3434304147, -5.14312219619751, 1.9907622337341309, 8.14959716796875, -2.1855573654174805, -1.6366385221481323, -1.8617101907730103, 0.743896484375, -0.1669921875, -0.609375
524, 3434320814, -5.155669689178467, 1.9997479915618896, 8.170079231262207, -2.1718289852142334, -1.593340516090393, -1.787036418914795, 0.742919921875, -0.1640625, -0.607421875
525, 3434337481, -5.169576168060303, 2.0090441703796387, 8.13988208770752, -2.2139360904693604, -1.638047456741333, -1.7927993535995483, 0.742431640625, -0.166015625, -0.609375
526, 3434354148, -5.170305252075195, 1.9902878999710083, 8.148823738098145, -2.1253416538238525, -1.9454635381698608, -1.7867034673690796, 0.741455078125, -0.166015625, -0.611083984375
527, 3434370815, -5.150167465209961, 2.018977642059326, 8.172475814819336, -2.2114899158477783, -1.9387404918670654, -1.726577639579773, 0.743896484375, -0.16552734375, -0.609375
528, 3434387482, -5.138418197631836, 2.00164532661438, 8.18244457244873, -2.26202392578125, -1.99260413646698, -1.8998092412948608, 0.740966796875, -0.1650390625, -0.609375
529, 3434404149, -5.148857593536377, 1.9916305541992188, 8.170955657958984, -2.15032696723938, -1.9353210926055908, -1.7840778827667236, 0.743896484375, -0.16552734375, -0.61083984375
530, 3434420816, -5.145709037780762, 2.0063884258270264, 8.155399322509766, -2.11856746673584, -1.7936701774597168, -1.7761510610580444, 0.741943359375, -0.16650390625, -0.612548828125
531, 3434437483, -5.158304214477539, 2.0286457538604736, 8.176603317260742, -2.1201424598693848, -1.6612907648086548, -1.8756563663482666, 0.743408203125, -0.1650390625, -0.611083984375
532, 3434454150, -5.1607136726379395, 2.0280141830444336, 8.139751434326172, -2.2148969173431396, -1.625727891921997, -1.9804764986038208, 0.740478515625, -0.166015625, -0.610107421875
533, 3434470817, -5.170048236846924, 2.0058064460754395, 8.146260261535645, -2.1729812622070312, -1.8292205333709717, -1.8843903541564941, 0.742919921875, -0.16748046875, -0.6103515625
534, 3434487484, -5.137773036956787, 2.0162436962127686, 8.132999420166016, -2.1474838256835938, -1.888706088066101, -1.7701575756072998, 0.743896484375, -0.16650390625, -0.611083984375
535, 3434504151, -5.135878086090088, 2.0076873302459717, 8.152236938476562, -2.2086472511291504, -1.8304375410079956, -1.8174901008605957, 0.742431640625, -0.1669921875, -0.60986328125
536, 3434520818, -5.13481330871582, 2.019610643386841, 8.160813331604004, -2.188861131668091, -1.6882737874984741, -1.9381129741668701, 0.739501953125, -0.16650390625, -0.60986328125
537, 3434537485, -5.159182548522949, 2.0139732360839844, 8.168879508972168, -2.2464258670806885, -1.7336595058441162, -1.9094009399414062, 0.742919921875, -0.16748046875, -0.611572265625
538, 3434554152, -5.149679660797119, 2.023794412612915, 8.165006637573242, -2.209235906600952, -1.7893670797348022, -1.9922325611114502, 0.743896484375, -0.16796875, -0.613525390625
539, 3434570819, -5.144761085510254, 2.0125510692596436, 8.146425247192383, -2.2545578479766846, -1.7870107889175415, -1.9883649349212646, 0.744384765625, -0.168212890625, -0.611328125
540, 3434587486, -5.122220993041992, 1.9948369264602661, 8.148042678833008, -2.244248628616333, -1.751178503036499, -1.8703032732009888, 0.743408203125, -0.168701171875, -0.61083984375
541, 3434604153, -5.125151634216309, 2.03985857963562, 8.14998722076416, -2.318256378173828, -1.6306709051132202, -2.040179491043091, 0.743408203125, -0.1669921875, -0.60986328125
542, 3434620820, -5.13844633102417, 2.035539150238037, 8.14360523223877, -2.42732834815979, -1.6856615543365479, -2.1501481533050537, 0.742919921875, -0.1669921875, -0.611083984375
543, 3434637487, -5.140904903411865, 2.035513401031494, 8.14600944519043, -2.515167713165283, -1.7518577575683594, -2.2577085494995117, 0.742431640625, -0.16796875, -0.60986328125
544, 3434654154, -5.14345645904541, 2.0035436153411865, 8.174822807312012, -2.433936357498169, -1.7642797231674194, -2.2059578895568848, 0.739990234375, -0.1689453125, -0.613037109375
545, 3434670821, -5.110177516937256, 2.012803316116333, 8.17259693145752, -2.2447612285614014, -1.7655091285705566, -2.1681277751922607, 0.742919921875, -0.16845703125, -0.609375
546, 3434687488, -5.132500648498535, 2.0516374111175537, 8.183855056762695, -2.606630325317383, -1.4021289348602295, -2.364065170288086, 0.741943359375, -0.166015625, -0.60888671875
547, 3434704155, -5.157556056976318, 1.9995310306549072, 8.160402297973633, -2.463813543319702, -1.5610045194625854, -2.2780704498291016, 0.742919921875, -0.16796875, -0.61083984375
548, 3434720822, -5.137784957885742, 2.0000534057617188, 8.15054702758789, -2.4138176441192627, -1.5788309574127197, -2.1629412174224854, 0.743408203125, -0.168701171875, -0.612060546875
549, 3434737489, -5.1481428146362305, 2.0272910594940186, 8.172398567199707, -2.2385241985321045, -1.6108722686767578, -2.0171663761138916, 0.742431640625, -0.166015625, -0.60986328125
550, 3434754156, -5.12520694732666, 2.019002914428711, 8.181755065917969, -2.2756752967834473, -1.5210613012313843, -2.0793285369873047, 0.741943359375, -0.16552734375, -0.610595703125
551, 3434770823, -5.098328113555908, 2.027449369430542, 8.165090560913086, -2.2918758392333984, -1.4320061206817627, -2.1760807037353516, 0.742431640625, -0.168701171875, -0.60888671875
552, 3434787490, -5.142002105712891, 2.0215530395507812, 8.151609420776367, -2.269721031188965, -1.462024211883545, -2.2246809005737305, 0.742431640625, -0.169189453125, -0.60986328125
553, 3434804157, -5.143449306488037, 1.9910783767700195, 8.160587310791016, -2.241520881652832, -1.5592753887176514, -2.0434834957122803, 0.741455078125, -0.1689453125, -0.60986328125
554, 3434820824, -5.147757053375244, 2.02087664604187, 8.158491134643555, -2.062628984451294, -1.6079267263412476, -2.0016708374023438, 0.741943359375, -0.1689453125, -0.61083984375
555, 3434837491, -5.128905773162842, 2.022399425506592, 8.166772842407227, -2.045186758041382, -1.6561682224273682, -2.001222610473633, 0.740478515625, -0.169677734375, -0.611572265625
556, 3434854158, -5.111643314361572, 1.994751214981079, 8.159180641174316, -1.9851762056350708, -1.64287531375885, -1.977838397026062, 0.741943359375, -0.16845703125, -0.614013671875
557, 3434870825, -5.111005783081055, 2.055938482284546, 8.164246559143066, -2.0793797969818115, -1.3756452798843384, -2.078662633895874, 0.741943359375, -0.169189453125, -0.613525390625
558, 3434887492, -5.144516468048096, 2.039280414581299, 8.144946098327637, -1.9856115579605103, -1.2526915073394775, -2.1548218727111816, 0.741455078125, -0.16748046875, -0.611083984375
559, 3434904159, -5.140554904937744, 2.019829034805298, 8.167073249816895, -2.104377508163452, -1.2649470567703247, -2.1412341594696045, 0.740966796875, -0.16748046875, -0.6103515625
560, 3434920826, -5.140020370483398, 2.026871681213379, 8.146149635314941, -2.060657024383545, -1.385058045387268, -2.066817045211792, 0.742431640625, -0.169189453125, -0.611572265625
561, 3434937493, -5.138466835021973, 2.030052661895752, 8.153969764709473, -2.056917667388916, -1.4108754396438599, -2.1098973751068115, 0.743408203125, -0.16748046875, -0.612060546875
562, 3434954160, -5.122245788574219, 2.0313687324523926, 8.189855575561523, -2.0862951278686523, -1.4573240280151367, -2.012171983718872, 0.739990234375, -0.16845703125, -0.6103515625
563, 3434970827, -5.142708778381348, 2.0225048065185547, 8.155281066894531, -2.0204193592071533, -1.5070000886917114, -2.0414345264434814, 0.742919921875, -0.16796875, -0.613525390625
564, 3434987494, -5.142988204956055, 2.025437355041504, 8.182456970214844, -2.075460910797119, -1.5679069757461548, -2.045135498046875, 0.741455078125, -0.1689453125, -0.6103515625
565, 3435004161, -5.135134220123291, 2.031850576400757, 8.182772636413574, -2.1549882888793945, -1.5652177333831787, -1.964622139930725, 0.743408203125, -0.16748046875, -0.612548828125
566, 3435020828, -5.138749599456787, 2.057283878326416, 8.151986122131348, -2.1864278316497803, -1.4533284902572632, -2.0647292137145996, 0.742919921875, -0.16845703125, -0.6103515625
567, 3435037495, -5.134390830993652, 2.012444496154785, 8.167533874511719, -2.1705992221832275, -1.4146275520324707, -2.08023738861084, 0.743408203125, -0.168701171875, -0.609375
568, 3435054162, -5.136808395385742, 2.0579469203948975, 8.15517807006836, -2.2336196899414062, -1.5372999906539917, -2.12121844291687, 0.741943359375, -0.1689453125, -0.611572265625
569, 3435070829, -5.1352338790893555, 2.037818193435669, 8.172103881835938, -2.2286250591278076, -1.5850932598114014, -2.0569944381713867, 0.739990234375, -0.1689453125, -0.6103515625
570, 3435087496, -5.141005992889404, 2.0318169593811035, 8.160269737243652, -2.2735111713409424, -1.5930585861206055, -2.1533493995666504, 0.741455078125, -0.16845703125, -0.611572265625
571, 3435104163, -5.108332633972168, 2.028538465499878, 8.146732330322266, -2.2748045921325684, -1.5409495830535889, -2.1194379329681396, 0.741943359375, -0.170166015625, -0.611083984375
572, 3435120830, -5.117114543914795, 2.042419195175171, 8.166433334350586, -2.217560291290283, -1.4948723316192627, -2.0910589694976807, 0.740966796875, -0.170166015625, -0.612060546875
573, 3435137497, -5.117612361907959, 2.0317299365997314, 8.153054237365723, -2.1991958618164062, -1.421120524406433, -2.1526448726654053, 0.741943359375, -0.1689453125, -0.611572265625
574, 3435154164, -5.138888359069824, 2.03113055229187, 8.167657852172852, -2.126981019973755, -1.3041090965270996, -2.1983635425567627, 0.743408203125, -0.16845703125, -0.611083984375
575, 3435170831, -5.150228500366211, 2.0395760536193848, 8.164094924926758, -2.078470468521118, -1.4333250522613525, -2.2075202465057373, 0.744384765625, -0.168212890625, -0.611328125
576, 3435187498, -5.159427165985107, 2.0209178924560547, 8.1603364944458, -2.0999341011047363, -1.4752018451690674, -2.159611701965332, 0.743408203125, -0.169189453125, -0.611328125
577, 3435204165, -5.123269557952881, 2.050886392593384, 8.14038372039795, -1.7995356321334839, -1.6195038557052612, -2.090751886367798, 0.73828125, -0.171142578125, -0.611083984375
578, 3435220832, -5.114095687866211, 2.047513723373413, 8.15534782409668, -1.9130254983901978, -1.404254674911499, -2.1333584785461426, 0.742919921875, -0.169677734375, -0.612060546875
579, 3435237499, -5.137644290924072, 2.0414202213287354, 8.166457176208496, -1.952622652053833, -1.2381690740585327, -2.1228957176208496, 0.743896484375, -0.169189453125, -0.611328125
580, 3435254166, -5.134770393371582, 2.0378029346466064, 8.150076866149902, -1.8449852466583252, -1.2509372234344482, -2.0619375705718994, 0.740478515625, -0.16796875, -0.60986328125
581, 3435270833, -5.159231185913086, 2.0273194313049316, 8.151834487915039, -1.7428544759750366, -1.3349978923797607, -2.021149158477783, 0.742919921875, -0.170654296875, -0.613037109375
582, 3435287500, -5.138853073120117, 2.0188210010528564, 8.141789436340332, -1.6519551277160645, -1.3756839036941528, -1.7252075672149658, 0.742919921875, -0.171630859375, -0.61083984375
583, 3435304167, -5.144855499267578, 2.0768420696258545, 8.147771835327148, -1.4596805572509766, -1.2699673175811768, -1.8061436414718628, 0.742431640625, -0.170654296875, -0.60888671875
584, 3435320834, -5.147054672241211, 2.0694100856781006, 8.160903930664062, -1.391358733177185, -1.1035232543945312, -1.7556352615356445, 0.742431640625, -0.170654296875, -0.61083984375
585, 3435337501, -5.1374287605285645, 2.0581536293029785, 8.160909652709961, -1.3501734733581543, -1.1329265832901, -1.682152509689331, 0.742431640625, -0.171630859375, -0.60986328125
586, 3435354168, -5.1433424949646, 2.039545774459839, 8.148661613464355, -1.3521456718444824, -1.141814112663269, -1.6072096824645996, 0.742431640625, -0.172119140625, -0.6103515625
587, 3435370835, -5.139904499053955, 2.0811095237731934, 8.146486282348633, -1.5181671380996704, -1.0647199153900146, -1.7406773567199707, 0.741943359375, -0.172119140625, -0.6083984375
588, 3435387502, -5.139134407043457, 2.0718703269958496, 8.123350143432617, -1.5015060901641846, -1.109311580657959, -1.8671914339065552, 0.742431640625, -0.174072265625, -0.609375
589, 3435404169, -5.150093078613281, 2.0628604888916016, 8.143994331359863, -1.4253723621368408, -1.0925226211547852, -1.748937726020813, 0.743896484375, -0.172607421875, -0.60888671875
590, 3435420836, -5.145620822906494, 2.0620076656341553, 8.144264221191406, -1.124346375465393, -1.0806384086608887, -1.680346965789795, 0.742919921875, -0.171630859375, -0.606201171875
591, 3435437503, -5.144979476928711, 2.086242914199829, 8.150078773498535, -1.161907434463501, -0.9745249152183533, -1.6154186725616455, 0.742431640625, -0.1748046875, -0.6103515625
592, 3435454170, -5.149635314941406, 2.061674118041992, 8.147337913513184, -1.060186505317688, -0.8325151801109314, -1.5511562824249268, 0.743408203125, -0.173583984375, -0.6103515625
593, 3435470837, -5.134919166564941, 2.080800771713257, 8.146003723144531, -1.0443321466445923, -0.7813665866851807, -1.5974384546279907, 0.742919921875, -0.174560546875, -0.60791015625
594, 3435487504, -5.134170055389404, 2.081881046295166, 8.123929023742676, -0.8926793932914734, -0.7727351188659668, -1.6130365133285522, 0.743408203125, -0.17431640625, -0.60693359375
595, 3435504171, -5.1598076820373535, 2.085214853286743, 8.135722160339355, -0.7708269953727722, -0.7820581197738647, -1.5848242044448853, 0.741455078125, -0.174560546875, -0.6083984375
596, 3435520838, -5.170541286468506, 2.1059458255767822, 8.1066312789917, -0.82147616147995, -0.8313369750976562, -1.547532081604004, 0.74658203125, -0.17529296875, -0.6083984375
597, 3435537505, -5.156342506408691, 2.094761610031128, 8.136419296264648, -0.6704508066177368, -0.9664567112922668, -1.36726975440979, 0.742919921875, -0.17724609375, -0.607421875
598, 3435554172, -5.130788326263428, 2.1137895584106445, 8.119677543640137, -0.5230881571769714, -0.8375096917152405, -1.2777408361434937, 0.74462890625, -0.17578125, -0.606689453125
599, 3435570839, -5.142038345336914, 2.1183292865753174, 8.13222885131836, -0.46945518255233765, -0.7439337372779846, -1.3077332973480225, 0.741455078125, -0.177734375, -0.606689453125
600, 3435587506, -5.15880823135376, 2.1082401275634766, 8.142481803894043, -0.3509451746940613, -0.6050359606742859, -1.304121732711792, 0.743408203125, -0.1767578125, -0.606689453125
601, 3435604173, -5.132767677307129, 2.122434616088867, 8.108180046081543, -0.15251082181930542, -0.4605548083782196, -1.1508426666259766, 0.742431640625, -0.17919921875, -0.605712890625
602, 3435620840, -5.158259868621826, 2.126643657684326, 8.10634708404541, -0.14071616530418396, -0.4076901376247406, -1.2298192977905273, 0.741455078125, -0.177734375, -0.605224609375
603, 3435637507, -5.178317546844482, 2.138888359069824, 8.09753131866455, 0.09163583815097809, -0.39182308316230774, -1.1649552583694458, 0.7431640625, -0.177734375, -0.604248046875
604, 3435654174, -5.181223392486572, 2.1208527088165283, 8.087489128112793, 0.16534917056560516, -0.40744680166244507, -0.9625123739242554, 0.74365234375, -0.1796875, -0.604736328125
605, 3435670841, -5.186805725097656, 2.1075844764709473, 8.087512016296387, 0.5475674867630005, -0.4523715376853943, -0.6729352474212646, 0.74560546875, -0.181396484375, -0.604736328125
606, 3435687508, -5.133823394775391, 2.145040512084961, 8.105818748474121, 0.9515181183815002, -0.34624525904655457, -0.42956337332725525, 0.742919921875, -0.180908203125, -0.603759765625
607, 3435704175, -5.140382766723633, 2.1591784954071045, 8.088055610656738, 1.3561731576919556, -0.06780961900949478, -0.4348267912864685, 0.742431640625, -0.183837890625, -0.604736328125
608, 3435720842, -5.162684917449951, 2.1619842052459717, 8.096593856811523, 1.830776572227478, 0.293515145778656, -0.2601097524166107, 0.74365234375, -0.181884765625, -0.604248046875
609, 3435737509, -5.162750720977783, 2.1672492027282715, 8.092970848083496, 2.17000412940979, 0.4171476364135742, 0.03199666365981102, 0.74462890625, -0.185302734375, -0.60205078125
610, 3435754176, -5.1687188148498535, 2.2243645191192627, 8.080888748168945, 2.0185301303863525, 0.2907233238220215, 0.22646108269691467, 0.7431640625, -0.184814453125, -0.60302734375
611, 3435770843, -5.171454429626465, 2.2119882106781006, 8.049182891845703, 1.7481114864349365, 0.6092813014984131, 0.4226159453392029, 0.74560546875, -0.1865234375, -0.60205078125
612, 3435787510, -5.111539840698242, 2.275254487991333, 8.027823448181152, 2.233549118041992, 0.6217547059059143, 0.16760310530662537, 0.7451171875, -0.18994140625, -0.60107421875
613, 3435804177, -4.951182842254639, 2.2848026752471924, 8.007984161376953, 2.6778910160064697, 1.3780080080032349, -0.10191293060779572, 0.7451171875, -0.18896484375, -0.6005859375
614, 3435820844, -5.065788269042969, 2.219449758529663, 8.066532135009766, 3.6678218841552734, 3.1860086917877197, -0.1727960854768753, 0.74560546875, -0.19091796875, -0.597412109375
615, 3435837511, -5.219460964202881, 2.1473276615142822, 8.107001304626465, 5.675666332244873, 4.9721879959106445, 1.0088011026382446, 0.746826171875, -0.193603515625, -0.595458984375
616, 3435854178, -5.202029228210449, 2.3060998916625977, 8.04099178314209, 6.4866042137146, 5.879608631134033, 2.1399481296539307, 0.748291015625, -0.195556640625, -0.5947265625
617, 3435870845, -5.338175296783447, 2.4322643280029297, 8.039397239685059, 6.1001458168029785, 6.195693492889404, 2.143699884414673, 0.749755859375, -0.1982421875, -0.59423828125
618, 3435887512, -5.360933303833008, 2.4363791942596436, 7.978147029876709, 5.096024990081787, 5.378392219543457, 1.8478093147277832, 0.746826171875, -0.203125, -0.59326171875
619, 3435904179, -5.319480895996094, 2.4689395427703857, 8.00743579864502, 4.187735080718994, 4.374912738800049, 1.488565444946289, 0.749267578125, -0.202880859375, -0.59130859375
620, 3435920846, -5.275400161743164, 2.495147705078125, 7.989502906799316, 3.1337971687316895, 3.611922264099121, 1.0788902044296265, 0.7509765625, -0.204345703125, -0.587158203125
621, 3435937513, -5.2475152015686035, 2.445169448852539, 7.983779430389404, 2.3993146419525146, 3.3364317417144775, 0.4078373908996582, 0.75048828125, -0.204833984375, -0.58447265625
622, 3435954180, -5.208890914916992, 2.4091222286224365, 7.999463081359863, 2.5371623039245605, 3.748528242111206, 0.3515791594982147, 0.75439453125, -0.20703125, -0.58447265625
623, 3435970847, -5.263498783111572, 2.419740676879883, 7.951414108276367, 2.79304575920105, 4.055495262145996, -0.14987272024154663, 0.755126953125, -0.20947265625, -0.580810546875
624, 3435987514, -5.280662536621094, 2.5348517894744873, 7.920114994049072, 2.7194862365722656, 4.236449718475342, -0.28514620661735535, 0.75439453125, -0.2099609375, -0.583251953125
625, 3436004181, -5.29153299331665, 2.6073222160339355, 7.912013530731201, 2.200572967529297, 4.136880397796631, -0.9474523663520813, 0.755126953125, -0.20947265625, -0.579833984375
626, 3436020848, -5.35941743850708, 2.4949123859405518, 7.895476818084717, 2.1245667934417725, 4.034006118774414, -1.6837787628173828, 0.755615234375, -0.2109375, -0.578369140625
627, 3436037515, -5.389620780944824, 2.3579115867614746, 7.899020671844482, 2.7606585025787354, 3.588883638381958, -1.9961514472961426, 0.757568359375, -0.212158203125, -0.5771484375
628, 3436054182, -5.362000942230225, 2.4198012351989746, 7.914805889129639, 3.988685369491577, 4.137546539306641, -1.5098432302474976, 0.757568359375, -0.213623046875, -0.57763671875
629, 3436070849, -5.401451110839844, 2.532918691635132, 7.881504058837891, 4.559861183166504, 4.946421146392822, -0.8250747323036194, 0.758544921875, -0.215576171875, -0.57470703125
630, 3436087516, -5.377260684967041, 2.7103545665740967, 7.8276214599609375, 4.421347618103027, 4.941452503204346, -1.082200527191162, 0.758544921875, -0.216552734375, -0.571044921875
631, 3436104183, -5.355338096618652, 2.7095651626586914, 7.841188430786133, 4.391125202178955, 5.109101295471191, -1.9853819608688354, 0.76123046875, -0.21728515625, -0.571044921875
632, 3436120850, -5.350233554840088, 2.633040428161621, 7.856020927429199, 4.5269622802734375, 5.749366760253906, -2.832496166229248, 0.7607421875, -0.21875, -0.5673828125
633, 3436137517, -5.327225208282471, 2.6421711444854736, 7.83151388168335, 4.548541069030762, 6.963613986968994, -2.815232992172241, 0.763427734375, -0.22119140625, -0.564697265625
634, 3436154184, -5.352841854095459, 2.641462802886963, 7.7917375564575195, 5.005126953125, 8.545327186584473, -2.8772034645080566, 0.765380859375, -0.21923828125, -0.561279296875
635, 3436170851, -5.395693778991699, 2.7303712368011475, 7.786231994628906, 5.175413131713867, 9.464953422546387, -3.366316556930542, 0.766357421875, -0.221435546875, -0.560546875
636, 3436187518, -5.489286422729492, 2.7674529552459717, 7.727630138397217, 4.3246612548828125, 9.215753555297852, -4.600285053253174, 0.76904296875, -0.220458984375, -0.555908203125
637, 3436204185, -5.536317825317383, 2.7446370124816895, 7.66537618637085, 3.1988413333892822, 8.258426666259766, -5.336599826812744, 0.77001953125, -0.223388671875, -0.55908203125
638, 3436220852, -5.600790977478027, 2.678617477416992, 7.657014846801758, 2.434929847717285, 7.33584451675415, -6.044458389282227, 0.771484375, -0.221435546875, -0.553466796875
639, 3436237519, -5.609034538269043, 2.6390209197998047, 7.679360389709473, 2.3849079608917236, 7.229999542236328, -6.033277988433838, 0.774658203125, -0.222900390625, -0.55224609375
640, 3436254186, -5.600165843963623, 2.6662533283233643, 7.667242050170898, 2.636488914489746, 7.40658712387085, -6.234786510467529, 0.77880859375, -0.221923828125, -0.549072265625
641, 3436270853, -5.610534191131592, 2.679028034210205, 7.616889476776123, 2.6407790184020996, 7.682372093200684, -6.5167436599731445, 0.77978515625, -0.224609375, -0.545166015625
642, 3436287520, -5.627994060516357, 2.704115629196167, 7.638033866882324, 2.7691118717193604, 8.284296035766602, -7.171994209289551, 0.7802734375, -0.220947265625, -0.54248046875
643, 3436304187, -5.688645839691162, 2.706176519393921, 7.609992980957031, 2.7111754417419434, 8.399759292602539, -7.848860740661621, 0.781982421875, -0.22119140625, -0.541015625
644, 3436320854, -5.6712188720703125, 2.7421963214874268, 7.603128433227539, 2.4982962608337402, 8.550528526306152, -8.752594947814941, 0.784912109375, -0.2197265625, -0.537353515625
645, 3436337521, -5.659540176391602, 2.786435127258301, 7.636938095092773, 1.9265562295913696, 8.711530685424805, -10.34747314453125, 0.787109375, -0.218505859375, -0.53564453125
646, 3436354188, -5.666337013244629, 2.7948296070098877, 7.624142169952393, 1.0938489437103271, 9.166953086853027, -12.115225791931152, 0.7890625, -0.21826171875, -0.5322265625
647, 3436370855, -5.669198513031006, 2.740846633911133, 7.677688121795654, -0.1858074963092804, 10.44822883605957, -13.498147964477539, 0.792724609375, -0.216796875, -0.530029296875
648, 3436387522, -5.711199760437012, 2.585634231567383, 7.621892929077148, -0.12537433207035065, 13.303962707519531, -13.179478645324707, 0.79443359375, -0.213134765625, -0.5244140625
649, 3436404189, -5.682108402252197, 2.572847843170166, 7.65714693069458, 1.2169829607009888, 17.951053619384766, -12.663604736328125, 0.79833984375, -0.210205078125, -0.521728515625
650, 3436420856, -5.663236141204834, 2.564033031463623, 7.704444408416748, 2.6983113288879395, 23.9930477142334, -12.321367263793945, 0.803466796875, -0.209716796875, -0.5166015625
651, 3436437523, -5.720404624938965, 2.6964287757873535, 7.677034854888916, 3.775935173034668, 30.820556640625, -13.436322212219238, 0.8056640625, -0.209716796875, -0.509521484375
652, 3436454190, -5.815836429595947, 2.6549763679504395, 7.595853328704834, 5.011800765991211, 37.368064880371094, -15.314423561096191, 0.81298828125, -0.205322265625, -0.500244140625
653, 3436470857, -5.91113805770874, 2.6796839237213135, 7.470303058624268, 5.269772529602051, 44.678585052490234, -16.61819076538086, 0.8203125, -0.202392578125, -0.486328125
