sep=,
DeviceTag:,B,,,,,,,,,,,,,,,,,
FirmwareVersion:,2.2.1,,,,,,,,,,,,,,,,,
AppVersion:,2022.0.1,,,,,,,,,,,,,,,,,
SyncStatus:,Synced,,,,,,,,,,,,,,,,,
OutputRate:,60Hz,,,,,,,,,,,,,,,,,
FilterProfile:,General,,,,,,,,,,,,,,,,,
Measurement Mode:,Inertial Mode - Rate quantities (with mag),,,,,,,,,,,,,,,,,
StartTime:,2022-08-16 14:55:07.824 +0300,,,,,,,,,,,,,,,,,
© Xsens Technologies B. V. 2005-2022,,,,,,,,,,,,,,,,,,,

PacketCounter,SampleTimeFine,Acc_X,Acc_Y,Acc_Z,Gyr_X,Gyr_Y,Gyr_Z,Mag_X,Mag_Y,Mag_Z
1, 3425620640, -5.088593006134033, -1.6622012853622437, 8.068197250366211, -0.7628102898597717, -0.8368054032325745, -2.1228702068328857, 0.70361328125, 0.051025390625, -0.6494140625
2, 3425637307, -5.0772905349731445, -1.6716384887695312, 8.08502197265625, -0.8886454701423645, -0.696345329284668, -2.029191732406616, 0.705078125, 0.051513671875, -0.64794921875
3, 3425653974, -5.134289741516113, -1.6625598669052124, 8.066937446594238, -0.886289119720459, -0.5750435590744019, -2.0041425228118896, 0.70458984375, 0.050537109375, -0.64892578125
4, 3425670641, -5.092586040496826, -1.661991834640503, 8.055419921875, -0.8659910559654236, -0.6825016736984253, -2.2105424404144287, 0.70458984375, 0.050048828125, -0.6494140625
5, 3425687308, -5.093583106994629, -1.6795380115509033, 8.08464241027832, -0.9352604746818542, -0.8516094088554382, -2.2403554916381836, 0.703125, 0.04931640625, -0.65087890625
6, 3425703975, -5.090697765350342, -1.663619875907898, 8.076152801513672, -1.127202033996582, -0.6748690009117126, -2.204894781112671, 0.70361328125, 0.050537109375, -0.64892578125
7, 3425720642, -5.0834784507751465, -1.6843295097351074, 8.098955154418945, -1.1971887350082397, -0.6252700090408325, -2.2338500022888184, 0.705078125, 0.051025390625, -0.6494140625
8, 3425737309, -5.117044448852539, -1.6676337718963623, 8.071868896484375, -1.2510267496109009, -0.6916453242301941, -2.29651141166687, 0.703125, 0.052978515625, -0.651611328125
9, 3425753976, -5.085803985595703, -1.6848366260528564, 8.056766510009766, -1.1529428958892822, -0.72312331199646, -2.3849263191223145, 0.702392578125, 0.053466796875, -0.64892578125
10, 3425770643, -5.1124372482299805, -1.6954941749572754, 8.049565315246582, -1.0574842691421509, -0.834999680519104, -2.279517412185669, 0.7041015625, 0.052978515625, -0.6494140625
11, 3425787310, -5.101645469665527, -1.692227840423584, 8.052221298217773, -1.0893594026565552, -0.8128831386566162, -2.3231489658355713, 0.703125, 0.051513671875, -0.650390625
12, 3425803977, -5.088372230529785, -1.6770381927490234, 8.076432228088379, -1.4020777940750122, -0.7270421385765076, -2.5301120281219482, 0.70361328125, 0.052001953125, -0.650390625
13, 3425820644, -5.096588611602783, -1.6825884580612183, 8.052291870117188, -1.5958889722824097, -0.6132577061653137, -2.6025965213775635, 0.703125, 0.052490234375, -0.6484375
14, 3425837311, -5.089632511138916, -1.7121939659118652, 8.062283515930176, -1.55008065700531, -0.5829706788063049, -2.6435766220092773, 0.703125, 0.053955078125, -0.650634765625
15, 3425853978, -5.092037200927734, -1.718469262123108, 8.053901672363281, -1.3976210355758667, -0.5869022607803345, -2.6726086139678955, 0.702392578125, 0.054443359375, -0.651611328125
16, 3425870645, -5.067367076873779, -1.7361818552017212, 8.059581756591797, -1.382906436920166, -0.6220043897628784, -2.55814528465271, 0.703369140625, 0.056640625, -0.651123046875
17, 3425887312, -5.083438873291016, -1.7263765335083008, 8.045154571533203, -1.4294575452804565, -0.6423152089118958, -2.5276145935058594, 0.7041015625, 0.05517578125, -0.650634765625
18, 3425903979, -5.072800159454346, -1.7035564184188843, 8.072399139404297, -1.6871980428695679, -0.5162495970726013, -2.591032028198242, 0.705078125, 0.05615234375, -0.6494140625
19, 3425920646, -5.123176574707031, -1.7068300247192383, 8.0584716796875, -1.9012689590454102, -0.598850429058075, -2.79219388961792, 0.705078125, 0.0546875, -0.651611328125
20, 3425937313, -5.114593029022217, -1.733940839767456, 8.03504467010498, -1.8402724266052246, -0.8328994512557983, -3.0006942749023438, 0.70458984375, 0.05712890625, -0.650390625
21, 3425953980, -5.090764999389648, -1.7570511102676392, 8.068610191345215, -1.7025529146194458, -1.1434788703918457, -2.921973466873169, 0.7041015625, 0.05712890625, -0.650146484375
22, 3425970647, -5.100606441497803, -1.7852855920791626, 8.027095794677734, -1.2612206935882568, -1.3200916051864624, -2.56543231010437, 0.702880859375, 0.05712890625, -0.652587890625
23, 3425987314, -5.0882887840271, -1.754088282585144, 8.044844627380371, -1.1116039752960205, -1.5864635705947876, -2.3983988761901855, 0.702880859375, 0.056640625, -0.653076171875
24, 3426003981, -5.067025661468506, -1.7124723196029663, 8.065498352050781, -1.1275734901428223, -1.5444458723068237, -2.355036973953247, 0.702392578125, 0.059814453125, -0.651611328125
25, 3426020648, -5.066885948181152, -1.7299400568008423, 8.086686134338379, -1.3021624088287354, -1.3454991579055786, -2.492295026779175, 0.702392578125, 0.060302734375, -0.649658203125
26, 3426037315, -5.088442802429199, -1.7764508724212646, 8.049290657043457, -1.3085399866104126, -1.2625396251678467, -2.403841495513916, 0.703369140625, 0.060302734375, -0.652587890625
27, 3426053982, -5.043567657470703, -1.8087061643600464, 8.044281959533691, -1.1229759454727173, -1.2950036525726318, -2.199413537979126, 0.700439453125, 0.060302734375, -0.650634765625
28, 3426070649, -5.079010486602783, -1.7576619386672974, 8.049036026000977, -0.997127890586853, -1.2355949878692627, -2.1152503490448, 0.701416015625, 0.060302734375, -0.651611328125
29, 3426087316, -5.063503265380859, -1.7463628053665161, 8.076688766479492, -1.0216009616851807, -1.165019154548645, -2.1703176498413086, 0.700927734375, 0.0595703125, -0.651123046875
30, 3426103983, -5.048852443695068, -1.7471646070480347, 8.047870635986328, -0.9437383413314819, -0.9923896789550781, -2.322803020477295, 0.702392578125, 0.05908203125, -0.649658203125
31, 3426120650, -5.074610710144043, -1.7680349349975586, 8.10024642944336, -1.0383387804031372, -1.0447036027908325, -2.3798680305480957, 0.703369140625, 0.060791015625, -0.651611328125
32, 3426137317, -5.053011894226074, -1.7865989208221436, 8.051531791687012, -1.309987187385559, -0.9943490624427795, -2.427802324295044, 0.700927734375, 0.06005859375, -0.652099609375
33, 3426153984, -5.055456638336182, -1.8049390316009521, 8.068177223205566, -1.1817187070846558, -0.9296897053718567, -2.311392307281494, 0.702392578125, 0.061767578125, -0.650634765625
34, 3426170651, -5.057713031768799, -1.790259838104248, 8.04053020477295, -0.9255661964416504, -1.1632519960403442, -2.2909536361694336, 0.69970703125, 0.061767578125, -0.6513671875
35, 3426187318, -5.0153656005859375, -1.8257677555084229, 8.06403923034668, -0.6653410792350769, -1.1582318544387817, -2.1116390228271484, 0.702880859375, 0.062744140625, -0.650634765625
36, 3426203985, -5.00445032119751, -1.8149775266647339, 8.069299697875977, -0.5168387293815613, -1.023112177848816, -1.9556833505630493, 0.702392578125, 0.062255859375, -0.648193359375
37, 3426220652, -5.0551276206970215, -1.7780803442001343, 8.069369316101074, -0.4421520531177521, -0.8432213068008423, -1.8834940195083618, 0.7001953125, 0.064208984375, -0.649658203125
38, 3426237319, -5.0350775718688965, -1.7805238962173462, 8.07115650177002, -0.45516327023506165, -0.8281353116035461, -1.7894439697265625, 0.702880859375, 0.060791015625, -0.6533203125
39, 3426253986, -5.012909412384033, -1.8044745922088623, 8.034189224243164, -0.2752212882041931, -0.6281899213790894, -1.556663155555725, 0.701904296875, 0.061767578125, -0.652587890625
40, 3426270653, -5.036166191101074, -1.8213666677474976, 8.067767143249512, -0.13503016531467438, -0.4291280210018158, -1.4838334321975708, 0.699951171875, 0.061767578125, -0.650634765625
41, 3426287320, -5.039719581604004, -1.793341875076294, 8.068216323852539, -0.08685266971588135, -0.27493953704833984, -1.4115415811538696, 0.701416015625, 0.06005859375, -0.651611328125
42, 3426303987, -5.0576171875, -1.8005515336990356, 8.075346946716309, -0.10008162260055542, -0.19598840177059174, -1.3233953714370728, 0.702392578125, 0.060791015625, -0.651123046875
43, 3426320654, -5.056324005126953, -1.7983613014221191, 8.067694664001465, -0.0918983668088913, -0.24534405767917633, -1.3386094570159912, 0.701416015625, 0.05908203125, -0.650634765625
44, 3426337321, -5.062148571014404, -1.7962557077407837, 8.059581756591797, -0.046730369329452515, -0.10834173113107681, -1.2312281131744385, 0.702392578125, 0.0595703125, -0.6484375
45, 3426353988, -5.082197189331055, -1.763187289237976, 8.060555458068848, -0.04530886933207512, -0.16822421550750732, -1.2551119327545166, 0.702392578125, 0.05908203125, -0.653076171875
46, 3426370655, -5.060530662536621, -1.7702407836914062, 8.066800117492676, 0.027283925563097, -0.311527281999588, -1.2404998540878296, 0.702392578125, 0.062255859375, -0.651611328125
47, 3426387322, -5.058066368103027, -1.7430107593536377, 8.068593978881836, -0.11135122179985046, -0.28665733337402344, -1.3677310943603516, 0.702392578125, 0.05908203125, -0.652587890625
48, 3426403989, -5.064504623413086, -1.7562246322631836, 8.070871353149414, -0.16599591076374054, -0.39996790885925293, -1.5921621322631836, 0.702880859375, 0.059814453125, -0.651123046875
49, 3426420656, -5.066247463226318, -1.7754251956939697, 8.05700397491455, -0.1614624559879303, -0.478189080953598, -1.5098686218261719, 0.702392578125, 0.062255859375, -0.651123046875
50, 3426437323, -5.027331352233887, -1.778458833694458, 8.042323112487793, -0.1893290877342224, -0.4168083071708679, -1.3816258907318115, 0.702392578125, 0.059814453125, -0.652099609375
51, 3426453990, -5.064716339111328, -1.7601277828216553, 8.05711841583252, -0.06766874343156815, -0.31438305974006653, -1.2626934051513672, 0.701904296875, 0.060302734375, -0.651611328125
52, 3426470657, -5.072545528411865, -1.7679740190505981, 8.044669151306152, -0.1594390571117401, -0.30544424057006836, -1.3544381856918335, 0.703857421875, 0.0595703125, -0.650146484375
53, 3426487324, -5.08956241607666, -1.770354151725769, 8.053956985473633, -0.1387311816215515, -0.4311257302761078, -1.3848402500152588, 0.70556640625, 0.060302734375, -0.6494140625
54, 3426503991, -5.075438499450684, -1.757404088973999, 8.070818901062012, -0.2891930043697357, -0.5176326036453247, -1.4634840488433838, 0.703369140625, 0.060302734375, -0.651123046875
55, 3426520658, -5.0747199058532715, -1.7626723051071167, 8.068512916564941, -0.3397396504878998, -0.5751331448554993, -1.4903773069381714, 0.702880859375, 0.05859375, -0.650146484375
56, 3426537325, -5.0574870109558105, -1.7576395273208618, 8.068470001220703, -0.38764825463294983, -0.5158782601356506, -1.5547935962677002, 0.702392578125, 0.05908203125, -0.651611328125
57, 3426553992, -5.084847927093506, -1.7405542135238647, 8.06344223022461, -0.3752772808074951, -0.5078486204147339, -1.5579437017440796, 0.699462890625, 0.06005859375, -0.649658203125
58, 3426570659, -5.0775465965271, -1.7893049716949463, 8.062858581542969, -0.4039492607116699, -0.5351837873458862, -1.6435757875442505, 0.701416015625, 0.0595703125, -0.651611328125
59, 3426587326, -5.066339015960693, -1.7803866863250732, 8.058350563049316, -0.29566022753715515, -0.5363812446594238, -1.6014853715896606, 0.703857421875, 0.0595703125, -0.649658203125
60, 3426603993, -5.062526226043701, -1.7797503471374512, 8.05951976776123, -0.11129999160766602, -0.654276430606842, -1.4915812015533447, 0.701416015625, 0.060302734375, -0.651611328125
61, 3426620660, -5.062765121459961, -1.7623568773269653, 8.046415328979492, -0.0763002410531044, -0.6020393371582031, -1.4171634912490845, 0.705078125, 0.059326171875, -0.651611328125
62, 3426637327, -5.067681789398193, -1.7505306005477905, 8.051069259643555, -0.1281019002199173, -0.5487136840820312, -1.5215606689453125, 0.704833984375, 0.05908203125, -0.6484375
63, 3426653994, -5.065194129943848, -1.7490798234939575, 8.07498550415039, -0.20292943716049194, -0.5427331924438477, -1.5895371437072754, 0.702392578125, 0.05908203125, -0.653076171875
64, 3426670661, -5.053682804107666, -1.794478178024292, 8.078003883361816, -0.20906366407871246, -0.3809889554977417, -1.5739004611968994, 0.701904296875, 0.05810546875, -0.650146484375
65, 3426687328, -5.069826126098633, -1.77191960811615, 8.049041748046875, -0.12591204047203064, -0.2786661386489868, -1.542217493057251, 0.704345703125, 0.060302734375, -0.650634765625
66, 3426703995, -5.059946060180664, -1.7653220891952515, 8.014636039733887, 0.004693526774644852, -0.33366942405700684, -1.499533772468567, 0.701904296875, 0.060791015625, -0.652099609375
67, 3426720662, -5.063762664794922, -1.7579632997512817, 8.03458309173584, 0.12310106307268143, -0.5085530281066895, -1.445965051651001, 0.703369140625, 0.0595703125, -0.653564453125
68, 3426737329, -5.073383808135986, -1.7655582427978516, 8.058877944946289, 0.07680608332157135, -0.4912515878677368, -1.322486162185669, 0.702392578125, 0.05908203125, -0.654296875
69, 3426753996, -5.075167655944824, -1.7227301597595215, 8.06848430633545, 0.07444971054792404, -0.47799697518348694, -1.416868805885315, 0.703857421875, 0.05810546875, -0.652099609375
70, 3426770663, -5.068953037261963, -1.7464133501052856, 8.052762985229492, -0.07448172569274902, -0.42365965247154236, -1.538055181503296, 0.702392578125, 0.05859375, -0.649658203125
71, 3426787330, -5.065525531768799, -1.7654229402542114, 8.057771682739258, -0.1541244238615036, -0.4926859438419342, -1.6096174716949463, 0.702880859375, 0.05859375, -0.650146484375
72, 3426803997, -5.04407262802124, -1.7607839107513428, 8.03866195678711, -0.04244024306535721, -0.3569898307323456, -1.3947780132293701, 0.702880859375, 0.0576171875, -0.651611328125
73, 3426820664, -5.07514762878418, -1.7428562641143799, 8.072274208068848, 0.009700808674097061, -0.32031238079071045, -1.3725332021713257, 0.703857421875, 0.05810546875, -0.6484375
74, 3426837331, -5.0556511878967285, -1.7741153240203857, 8.06336784362793, 0.041639845818281174, -0.2908065617084503, -1.3366241455078125, 0.703369140625, 0.05859375, -0.650146484375
75, 3426853998, -5.074402332305908, -1.7411426305770874, 8.056262016296387, 0.02783459983766079, -0.2767067849636078, -1.3304259777069092, 0.702392578125, 0.0595703125, -0.651611328125
76, 3426870665, -5.065590858459473, -1.748539924621582, 8.034873008728027, 0.034391455352306366, -0.27841004729270935, -1.405240774154663, 0.703369140625, 0.05615234375, -0.64892578125
77, 3426887332, -5.074742794036865, -1.758898377418518, 8.059951782226562, 0.019356798380613327, -0.13050951063632965, -1.3107556104660034, 0.702880859375, 0.0576171875, -0.650146484375
78, 3426903999, -5.094765663146973, -1.7466973066329956, 8.050304412841797, -0.0483439676463604, -0.15271572768688202, -1.3536183834075928, 0.702880859375, 0.05517578125, -0.6494140625
79, 3426920666, -5.083441257476807, -1.7457185983657837, 8.053064346313477, -0.042414627969264984, -0.17731671035289764, -1.3117033243179321, 0.699951171875, 0.0576171875, -0.65283203125
80, 3426937333, -5.058711528778076, -1.7437835931777954, 8.056551933288574, -7.683809963054955E-4, -0.16144965589046478, -1.330080270767212, 0.702392578125, 0.0576171875, -0.64892578125
81, 3426954000, -5.081543445587158, -1.7524770498275757, 8.065729141235352, 0.056892216205596924, -0.09713616967201233, -1.1973426342010498, 0.703369140625, 0.05712890625, -0.64892578125
82, 3426970667, -5.0869550704956055, -1.73227059841156, 8.074320793151855, 0.12813392281532288, -0.059178147464990616, -1.2265281677246094, 0.703369140625, 0.05810546875, -0.651611328125
83, 3426987334, -5.088829040527344, -1.7355679273605347, 8.075335502624512, 0.14388573169708252, -0.23698149621486664, -1.2813136577606201, 0.702392578125, 0.05517578125, -0.649658203125
84, 3427004001, -5.0822649002075195, -1.7340784072875977, 8.025457382202148, 0.10807919502258301, -0.2752212882041931, -1.2354671955108643, 0.7041015625, 0.0556640625, -0.650390625
85, 3427020668, -5.098972797393799, -1.7256934642791748, 8.070383071899414, 0.16696278750896454, -0.36676105856895447, -1.1469751596450806, 0.70361328125, 0.056640625, -0.652099609375
86, 3427037335, -5.079588413238525, -1.72312593460083, 8.05185604095459, 0.1404024213552475, -0.32225900888442993, -1.1616896390914917, 0.70361328125, 0.0556640625, -0.64892578125
87, 3427054002, -5.086559295654297, -1.7210880517959595, 8.051217079162598, 0.09764201939105988, -0.15088440477848053, -1.1666200160980225, 0.70361328125, 0.056640625, -0.651123046875
88, 3427070669, -5.084080696105957, -1.7196274995803833, 8.04477596282959, 0.0027341556269675493, -0.14416106045246124, -1.1702953577041626, 0.702880859375, 0.05517578125, -0.650634765625
89, 3427087336, -5.102014541625977, -1.7273460626602173, 8.062660217285156, 0.11454639583826065, -0.22580157220363617, -1.2991658449172974, 0.70458984375, 0.05517578125, -0.651123046875
90, 3427104003, -5.089972972869873, -1.7041983604431152, 8.052550315856934, 0.10008802264928818, -0.2982470691204071, -1.1966124773025513, 0.70458984375, 0.0556640625, -0.652587890625
91, 3427120670, -5.101894855499268, -1.7184542417526245, 8.057889938354492, 0.09209686517715454, -0.19998396933078766, -1.3246376514434814, 0.70556640625, 0.05615234375, -0.64892578125
92, 3427137337, -5.081913471221924, -1.716853141784668, 8.087484359741211, -0.04023755341768265, -0.16751986742019653, -1.3313994407653809, 0.70458984375, 0.0556640625, -0.6494140625
93, 3427154004, -5.110616683959961, -1.7155767679214478, 8.055136680603027, -0.06994827836751938, -0.21717007458209991, -1.324432611465454, 0.7041015625, 0.052490234375, -0.650390625
94, 3427170671, -5.111830711364746, -1.7194302082061768, 8.05668830871582, -0.0799628496170044, -0.3564263582229614, -1.3497636318206787, 0.705078125, 0.05615234375, -0.6484375
95, 3427187338, -5.078924179077148, -1.7286440134048462, 8.036484718322754, 0.08258174359798431, -0.3977780342102051, -1.2312026023864746, 0.701904296875, 0.052978515625, -0.650634765625
96, 3427204005, -5.096524715423584, -1.7057714462280273, 8.06954288482666, 0.12233266234397888, -0.3211192488670349, -1.2978979349136353, 0.70458984375, 0.0556640625, -0.64990234375
97, 3427220672, -5.111395359039307, -1.7211312055587769, 8.026067733764648, 0.06439673155546188, -0.18699832260608673, -1.3096158504486084, 0.702392578125, 0.053466796875, -0.64794921875
98, 3427237339, -5.13057279586792, -1.7055232524871826, 8.053040504455566, 0.09637418389320374, -0.37336912751197815, -1.2343015670776367, 0.7041015625, 0.053955078125, -0.6494140625
99, 3427254006, -5.09116792678833, -1.7130753993988037, 8.060431480407715, 0.15584687888622284, -0.32154181599617004, -1.225939154624939, 0.705078125, 0.052490234375, -0.6474609375
100, 3427270673, -5.105128288269043, -1.6928521394729614, 8.056468963623047, 0.14293807744979858, -0.38206467032432556, -1.2393345832824707, 0.70556640625, 0.054443359375, -0.64892578125
101, 3427287340, -5.108597278594971, -1.6983739137649536, 8.062265396118164, 0.07427042722702026, -0.5145847797393799, -1.3148022890090942, 0.70654296875, 0.052490234375, -0.64990234375
102, 3427304007, -5.115966320037842, -1.6720651388168335, 8.030487060546875, 0.21351388096809387, -0.6083143949508667, -1.3877729177474976, 0.7021484375, 0.052490234375, -0.64892578125
103, 3427320674, -5.10131311416626, -1.7005757093429565, 8.03789234161377, 0.10706748813390732, -0.7238149046897888, -1.427856683731079, 0.70556640625, 0.052978515625, -0.6494140625
104, 3427337341, -5.103096961975098, -1.687492847442627, 8.045734405517578, 0.11320174485445023, -0.7174502015113831, -1.3618656396865845, 0.70556640625, 0.051513671875, -0.64990234375
105, 3427354008, -5.088033199310303, -1.693312406539917, 8.059252738952637, 0.08988136053085327, -0.6470279097557068, -1.4113621711730957, 0.70458984375, 0.052490234375, -0.64990234375
106, 3427370675, -5.099573612213135, -1.6820718050003052, 8.049092292785645, -0.11300323903560638, -0.5331795811653137, -1.5289373397827148, 0.705078125, 0.053466796875, -0.6494140625
107, 3427387342, -5.098318099975586, -1.6948262453079224, 8.034703254699707, -0.08662214875221252, -0.6765850186347961, -1.5522063970565796, 0.7041015625, 0.052490234375, -0.65087890625
108, 3427404009, -5.111520290374756, -1.690870761871338, 8.045004844665527, -0.04297811537981033, -0.7223550081253052, -1.5198705196380615, 0.703369140625, 0.05517578125, -0.6494140625
109, 3427420676, -5.115503787994385, -1.6940969228744507, 8.05610179901123, 0.0011845873668789864, -0.648039698600769, -1.4521760940551758, 0.70263671875, 0.053955078125, -0.64990234375
110, 3427437343, -5.095673561096191, -1.7039326429367065, 8.036943435668945, 0.1426563262939453, -0.8382396697998047, -1.460397720336914, 0.705078125, 0.051513671875, -0.6494140625
111, 3427454010, -5.05661153793335, -1.6905200481414795, 8.056585311889648, 0.061451271176338196, -0.7056042551994324, -1.4033582210540771, 0.70263671875, 0.052978515625, -0.64892578125
112, 3427470677, -5.083935737609863, -1.6695538759231567, 8.060846328735352, 0.013747617602348328, -0.3927067220211029, -1.3684353828430176, 0.705078125, 0.053466796875, -0.650390625
113, 3427487344, -5.097463130950928, -1.673014521598816, 8.094320297241211, -0.20461983978748322, -0.3002960681915283, -1.533329725265503, 0.70458984375, 0.052001953125, -0.650390625
114, 3427504011, -5.108160495758057, -1.6776459217071533, 8.044066429138184, -0.3031134605407715, -0.31858354806900024, -1.5283482074737549, 0.705078125, 0.053466796875, -0.64892578125
115, 3427520678, -5.092135906219482, -1.6939276456832886, 8.067802429199219, -0.2613263726234436, -0.4395139515399933, -1.5301154851913452, 0.70654296875, 0.052490234375, -0.653076171875
116, 3427537345, -5.1258769035339355, -1.6834572553634644, 8.054011344909668, -0.15158875286579132, -0.45242270827293396, -1.4886229038238525, 0.70556640625, 0.053466796875, -0.64794921875
117, 3427554012, -5.102254390716553, -1.6697660684585571, 8.0794095993042, -0.15245960652828217, -0.5952519774436951, -1.5037344694137573, 0.7041015625, 0.052978515625, -0.650390625
118, 3427570679, -5.10955810546875, -1.6772842407226562, 8.036449432373047, -0.16124476492404938, -0.5723797678947449, -1.5233408212661743, 0.70556640625, 0.052001953125, -0.6513671875
119, 3427587346, -5.100494384765625, -1.6680070161819458, 8.068611145019531, -0.2788454592227936, -0.6921576261520386, -1.639059066772461, 0.705078125, 0.051025390625, -0.65087890625
120, 3427604013, -5.09132194519043, -1.6743189096450806, 8.057379722595215, -0.35195690393447876, -0.6970880031585693, -1.7745118141174316, 0.70361328125, 0.051025390625, -0.6474609375
121, 3427620680, -5.100905895233154, -1.6831799745559692, 8.057232856750488, -0.35559386014938354, -0.5948677062988281, -1.7484508752822876, 0.705078125, 0.052001953125, -0.6484375
122, 3427637347, -5.107237815856934, -1.6984182596206665, 8.064248085021973, -0.5050440430641174, -0.6432245373725891, -1.796205759048462, 0.7041015625, 0.051025390625, -0.650390625
123, 3427654014, -5.110652446746826, -1.7008159160614014, 8.0640287399292, -0.3857400417327881, -0.5832267999649048, -1.7002861499786377, 0.70361328125, 0.052001953125, -0.6494140625
124, 3427670681, -5.095520496368408, -1.6965399980545044, 8.053564071655273, -0.39101627469062805, -0.6367188692092896, -1.7416763305664062, 0.70458984375, 0.052001953125, -0.64990234375
125, 3427687348, -5.077580451965332, -1.6996890306472778, 8.035301208496094, -0.3136787712574005, -0.5393138527870178, -1.6901822090148926, 0.70654296875, 0.053466796875, -0.64892578125
126, 3427704015, -5.111407279968262, -1.666203260421753, 8.07607650756836, -0.2867469787597656, -0.43436580896377563, -1.6461155414581299, 0.7041015625, 0.052001953125, -0.64990234375
127, 3427720682, -5.104560375213623, -1.6586308479309082, 8.028678894042969, -0.2969280183315277, -0.49445319175720215, -1.6030861139297485, 0.70703125, 0.052490234375, -0.64990234375
128, 3427737349, -5.099137306213379, -1.6763052940368652, 8.049833297729492, -0.37288251519203186, -0.43591538071632385, -1.7046277523040771, 0.705078125, 0.052001953125, -0.64892578125
129, 3427754016, -5.107203960418701, -1.6851171255111694, 8.059343338012695, -0.3429155647754669, -0.47403979301452637, -1.8321658372879028, 0.70263671875, 0.05029296875, -0.650390625
130, 3427770683, -5.111808776855469, -1.6819030046463013, 8.059240341186523, -0.30026283860206604, -0.6075567603111267, -1.791344165802002, 0.7060546875, 0.052978515625, -0.6513671875
131, 3427787350, -5.099186420440674, -1.6786830425262451, 8.053564071655273, -0.2745809853076935, -0.575082004070282, -1.6685905456542969, 0.70556640625, 0.050048828125, -0.6494140625
132, 3427804017, -5.103565692901611, -1.6683666706085205, 8.041529655456543, -0.2714177966117859, -0.5330387353897095, -1.5836718082427979, 0.70556640625, 0.051025390625, -0.6513671875
133, 3427820684, -5.126547336578369, -1.6647701263427734, 8.074302673339844, -0.3174949884414673, -0.6079046130180359, -1.6628018617630005, 0.7060546875, 0.050537109375, -0.65087890625
134, 3427837351, -5.105495929718018, -1.679974913597107, 8.078583717346191, -0.4079206585884094, -0.5739805698394775, -1.8036589622497559, 0.705078125, 0.051025390625, -0.65185546875
135, 3427854018, -5.092973232269287, -1.696372151374817, 8.058402061462402, -0.32064536213874817, -0.6154731512069702, -1.8471237421035767, 0.70556640625, 0.053466796875, -0.64892578125
136, 3427870685, -5.099861145019531, -1.6957802772521973, 8.022333145141602, -0.34579700231552124, -0.63021320104599, -1.7723602056503296, 0.70361328125, 0.052490234375, -0.64990234375
137, 3427887352, -5.084823131561279, -1.6922359466552734, 8.052847862243652, -0.29471254348754883, -0.5461652874946594, -1.6456034183502197, 0.70361328125, 0.052490234375, -0.64990234375
138, 3427904019, -5.091630458831787, -1.6841084957122803, 8.04500675201416, -0.3155740797519684, -0.6095438599586487, -1.594531536102295, 0.707275390625, 0.051513671875, -0.6513671875
139, 3427920686, -5.104368209838867, -1.673311471939087, 8.065962791442871, -0.3412123918533325, -0.4414861500263214, -1.6653634309768677, 0.7060546875, 0.050048828125, -0.6513671875
140, 3427937353, -5.094697952270508, -1.6956297159194946, 8.070379257202148, -0.4874608814716339, -0.5584976673126221, -1.7574536800384521, 0.70458984375, 0.052978515625, -0.64697265625
141, 3427954020, -5.100473880767822, -1.6767432689666748, 8.06451416015625, -0.35043299198150635, -0.5424641966819763, -1.5700585842132568, 0.70556640625, 0.050048828125, -0.6494140625
142, 3427970687, -5.085671424865723, -1.6900900602340698, 8.053628921508789, -0.2271462380886078, -0.4636795222759247, -1.5099070072174072, 0.70556640625, 0.051513671875, -0.65185546875
143, 3427987354, -5.101234436035156, -1.683297038078308, 8.050764083862305, -0.20363378524780273, -0.5195408463478088, -1.5570602416992188, 0.70703125, 0.050048828125, -0.6484375
144, 3428004021, -5.110347270965576, -1.6691408157348633, 8.07808780670166, -0.2973250150680542, -0.5622371435165405, -1.6166352033615112, 0.70458984375, 0.051025390625, -0.64892578125
145, 3428020688, -5.1031270027160645, -1.6662695407867432, 8.0510835647583, -0.3190958499908447, -0.5495333075523376, -1.5844273567199707, 0.7060546875, 0.051513671875, -0.650390625
146, 3428037355, -5.095765590667725, -1.6889021396636963, 8.073725700378418, -0.3217723071575165, -0.5588818788528442, -1.6015747785568237, 0.70458984375, 0.053955078125, -0.64990234375
147, 3428054022, -5.0924201011657715, -1.6819974184036255, 8.047728538513184, -0.34748753905296326, -0.5492388010025024, -1.5901261568069458, 0.70654296875, 0.048828125, -0.64892578125
148, 3428070689, -5.101340293884277, -1.6868433952331543, 8.043313026428223, -0.24781566858291626, -0.47054368257522583, -1.586181640625, 0.7041015625, 0.052978515625, -0.64697265625
149, 3428087356, -5.108484268188477, -1.6710519790649414, 8.049378395080566, -0.35153433680534363, -0.4979493319988251, -1.6683474779129028, 0.70556640625, 0.0498046875, -0.65087890625
150, 3428104023, -5.115200996398926, -1.6760823726654053, 8.067498207092285, -0.31136080622673035, -0.4800843894481659, -1.6445657014846802, 0.7041015625, 0.050537109375, -0.64892578125
151, 3428120690, -5.098839282989502, -1.6820931434631348, 8.037269592285156, -0.36746543645858765, -0.43314921855926514, -1.6389822959899902, 0.707275390625, 0.051025390625, -0.6494140625
152, 3428137357, -5.099130153656006, -1.6750315427780151, 8.04498291015625, -0.3431333601474762, -0.39612603187561035, -1.6504696607589722, 0.706298828125, 0.04931640625, -0.650390625
153, 3428154024, -5.1118340492248535, -1.6711996793746948, 8.049934387207031, -0.3199026584625244, -0.5609053373336792, -1.6425682306289673, 0.7060546875, 0.052001953125, -0.6484375
154, 3428170691, -5.092189311981201, -1.6747021675109863, 8.05460262298584, -0.39479416608810425, -0.5756198763847351, -1.603841781616211, 0.70361328125, 0.053466796875, -0.6474609375
155, 3428187358, -5.0991034507751465, -1.6815000772476196, 8.070780754089355, -0.34656545519828796, -0.5607772469520569, -1.6139203310012817, 0.70263671875, 0.051513671875, -0.6484375
156, 3428204025, -5.120615482330322, -1.6834827661514282, 8.047119140625, -0.33127468824386597, -0.5424513816833496, -1.6139588356018066, 0.70361328125, 0.052001953125, -0.6494140625
157, 3428220692, -5.11699914932251, -1.6936688423156738, 8.042299270629883, -0.31250059604644775, -0.5756967067718506, -1.619401454925537, 0.70654296875, 0.04931640625, -0.64990234375
158, 3428237359, -5.108700752258301, -1.6748356819152832, 8.03863525390625, -0.24764922261238098, -0.6556723117828369, -1.5736571550369263, 0.706298828125, 0.050048828125, -0.65234375
159, 3428254026, -5.0925517082214355, -1.689756155014038, 8.067376136779785, -0.18918819725513458, -0.7686755061149597, -1.5492738485336304, 0.70361328125, 0.050537109375, -0.6494140625
160, 3428270693, -5.096721172332764, -1.668409824371338, 8.055651664733887, -0.12274885177612305, -0.7306534051895142, -1.5177316665649414, 0.705078125, 0.052001953125, -0.6484375
161, 3428287360, -5.098038196563721, -1.6538223028182983, 8.068166732788086, -0.16030986607074738, -0.6071106195449829, -1.5421406030654907, 0.7041015625, 0.051513671875, -0.650390625
162, 3428304027, -5.103631496429443, -1.6821718215942383, 8.063716888427734, -0.2877331078052521, -0.5185163021087646, -1.5649744272232056, 0.7060546875, 0.051025390625, -0.650390625
163, 3428320694, -5.1192240715026855, -1.6804574728012085, 8.061991691589355, -0.34208324551582336, -0.4592100977897644, -1.5860408544540405, 0.7080078125, 0.051513671875, -0.647705078125
164, 3428337361, -5.113491058349609, -1.67547607421875, 8.059721946716309, -0.3180456757545471, -0.5793720483779907, -1.593225121498108, 0.705078125, 0.04931640625, -0.650390625
165, 3428354028, -5.118832111358643, -1.674381136894226, 8.056282997131348, -0.29352155327796936, -0.5657204985618591, -1.640173316001892, 0.7041015625, 0.05029296875, -0.64892578125
166, 3428370695, -5.116743087768555, -1.6806409358978271, 8.05660629272461, -0.2927147448062897, -0.6291375756263733, -1.5945956707000732, 0.70654296875, 0.051513671875, -0.6494140625
167, 3428387362, -5.1065568923950195, -1.6640743017196655, 8.081193923950195, -0.2622355818748474, -0.741666853427887, -1.6974046230316162, 0.705078125, 0.04833984375, -0.6494140625
168, 3428404029, -5.096960544586182, -1.6784008741378784, 8.062997817993164, -0.32611364126205444, -0.7375944256782532, -1.6854690313339233, 0.70458984375, 0.052490234375, -0.64794921875
169, 3428420696, -5.102301120758057, -1.6786911487579346, 8.034421920776367, -0.18333570659160614, -0.651215672492981, -1.5181286334991455, 0.7060546875, 0.050537109375, -0.647216796875
170, 3428437363, -5.085099697113037, -1.6863690614700317, 8.032997131347656, -0.21045954525470734, -0.7030173540115356, -1.6225131750106812, 0.7041015625, 0.051513671875, -0.6494140625
171, 3428454030, -5.131760120391846, -1.6679706573486328, 8.046433448791504, -0.1929788738489151, -0.8136001229286194, -1.6427216529846191, 0.705810546875, 0.04736328125, -0.65087890625
172, 3428470697, -5.085340976715088, -1.664806842803955, 8.059553146362305, -0.10785507410764694, -0.8489968776702881, -1.6578971147537231, 0.70458984375, 0.0498046875, -0.64990234375
173, 3428487364, -5.100941181182861, -1.6780227422714233, 8.04615306854248, -0.17720147967338562, -0.7869246006011963, -1.6176725625991821, 0.70703125, 0.050048828125, -0.64892578125
174, 3428504031, -5.097693920135498, -1.654639482498169, 8.07710075378418, -0.21769513189792633, -0.8306581974029541, -1.6359214782714844, 0.70263671875, 0.05029296875, -0.650390625
175, 3428520698, -5.1127824783325195, -1.6601489782333374, 8.037200927734375, -0.2165553718805313, -0.6883540749549866, -1.682178020477295, 0.70263671875, 0.05029296875, -0.64892578125
176, 3428537365, -5.0973334312438965, -1.6791348457336426, 8.044951438903809, -0.29094743728637695, -0.6075717210769653, -1.7123241424560547, 0.7041015625, 0.0498046875, -0.64990234375
177, 3428554032, -5.112669467926025, -1.6549667119979858, 8.066201210021973, -0.4356079697608948, -0.6200834512710571, -1.7359646558761597, 0.70458984375, 0.048828125, -0.65185546875
178, 3428570699, -5.099930763244629, -1.6628344058990479, 8.05820083618164, -0.5164288282394409, -0.7828521132469177, -1.7299456596374512, 0.705078125, 0.0498046875, -0.65234375
179, 3428587366, -5.096549034118652, -1.6753864288330078, 8.065962791442871, -0.4808015525341034, -0.9753187894821167, -1.857240915298462, 0.705078125, 0.052978515625, -0.650390625
180, 3428604033, -5.093969345092773, -1.6659157276153564, 8.068610191345215, -0.4806094765663147, -0.9089946746826172, -1.7949891090393066, 0.703125, 0.05029296875, -0.650390625
181, 3428620700, -5.072323322296143, -1.6724140644073486, 8.078128814697266, -0.46640726923942566, -0.8018311262130737, -1.844844102859497, 0.7060546875, 0.051025390625, -0.650390625
182, 3428637367, -5.094488143920898, -1.6791443824768066, 8.08725357055664, -0.4631543755531311, -0.6550319194793701, -1.8216774463653564, 0.70458984375, 0.0498046875, -0.65087890625
183, 3428654034, -5.079594135284424, -1.683990716934204, 8.077815055847168, -0.4556243121623993, -0.7425761818885803, -1.7261934280395508, 0.705078125, 0.051025390625, -0.64892578125
184, 3428670701, -5.095104694366455, -1.6690174341201782, 8.06181526184082, -0.5040066242218018, -0.673831582069397, -1.7449289560317993, 0.7021484375, 0.048828125, -0.65087890625
185, 3428687368, -5.107552528381348, -1.6683677434921265, 8.060495376586914, -0.48332440853118896, -0.6813361644744873, -1.8092042207717896, 0.70458984375, 0.0498046875, -0.65087890625
186, 3428704035, -5.112783908843994, -1.6642794609069824, 8.078193664550781, -0.49369755387306213, -0.7914708256721497, -1.76052725315094, 0.701416015625, 0.051513671875, -0.6484375
187, 3428720702, -5.089122295379639, -1.662482738494873, 8.063211441040039, -0.5322831869125366, -0.8022922277450562, -1.927957534790039, 0.705078125, 0.051025390625, -0.650390625
188, 3428737369, -5.0917816162109375, -1.669616460800171, 8.071602821350098, -0.46650972962379456, -0.7243143320083618, -1.91148841381073, 0.70361328125, 0.052978515625, -0.64892578125
189, 3428754036, -5.098691463470459, -1.6767629384994507, 8.062976837158203, -0.5024315714836121, -0.7777296304702759, -1.8667045831680298, 0.7041015625, 0.04931640625, -0.6513671875
190, 3428770703, -5.110591411590576, -1.6809195280075073, 8.104331016540527, -0.5421184301376343, -0.8155468106269836, -1.8567030429840088, 0.702392578125, 0.052978515625, -0.64892578125
191, 3428787370, -5.082737922668457, -1.6865788698196411, 8.054450988769531, -0.6001567840576172, -0.8643134236335754, -1.9674267768859863, 0.70263671875, 0.051025390625, -0.651123046875
192, 3428804037, -5.08345890045166, -1.6840699911117554, 8.064980506896973, -0.4572763741016388, -0.8083496689796448, -1.9614077806472778, 0.70361328125, 0.052001953125, -0.6494140625
193, 3428820704, -5.095834732055664, -1.6792982816696167, 8.038339614868164, -0.5797306895256042, -0.8310168981552124, -1.955939531326294, 0.7041015625, 0.052490234375, -0.65087890625
194, 3428837371, -5.0881805419921875, -1.6832853555679321, 8.091758728027344, -0.5510572791099548, -0.6801452040672302, -1.9066479206085205, 0.703125, 0.052490234375, -0.650634765625
195, 3428854038, -5.062828063964844, -1.684112787246704, 8.068806648254395, -0.5882468819618225, -0.6717571020126343, -1.953173041343689, 0.703125, 0.050537109375, -0.650390625
196, 3428870705, -5.085811138153076, -1.672485589981079, 8.062451362609863, -0.524445652961731, -0.6671724319458008, -2.00862455368042, 0.703125, 0.052001953125, -0.652099609375
197, 3428887372, -5.093268871307373, -1.6857154369354248, 8.067791938781738, -0.5743776559829712, -0.6046006679534912, -1.9469751119613647, 0.701904296875, 0.052978515625, -0.649658203125
198, 3428904039, -5.074490547180176, -1.6944979429244995, 8.058805465698242, -0.6191869974136353, -0.5994012355804443, -1.9213876724243164, 0.705078125, 0.051025390625, -0.65087890625
199, 3428920706, -5.081982135772705, -1.6795053482055664, 8.041324615478516, -0.511114239692688, -0.6331458687782288, -1.8857477903366089, 0.703125, 0.051025390625, -0.64990234375
200, 3428937373, -5.074728012084961, -1.6787841320037842, 8.06892204284668, -0.4954264461994171, -0.6793768405914307, -1.8085126876831055, 0.7041015625, 0.052001953125, -0.64892578125
201, 3428954040, -5.094455718994141, -1.682056188583374, 8.088676452636719, -0.5060300230979919, -0.6119129061698914, -1.8631190061569214, 0.7041015625, 0.052978515625, -0.64892578125
202, 3428970707, -5.085826396942139, -1.6889971494674683, 8.081743240356445, -0.4767705202102661, -0.5348764061927795, -1.9383314847946167, 0.70361328125, 0.052001953125, -0.6494140625
203, 3428987374, -5.100287437438965, -1.6726620197296143, 8.067832946777344, -0.5185418725013733, -0.4980389475822449, -1.7858326435089111, 0.703125, 0.052001953125, -0.652587890625
204, 3429004041, -5.094536781311035, -1.6728882789611816, 8.069962501525879, -0.549686849117279, -0.5607002973556519, -1.8290153741836548, 0.70361328125, 0.052490234375, -0.64990234375
205, 3429020708, -5.085875034332275, -1.6877690553665161, 8.07233715057373, -0.570548415184021, -0.5623779892921448, -1.8104846477508545, 0.70556640625, 0.051513671875, -0.650390625
206, 3429037375, -5.097989082336426, -1.6873762607574463, 8.062080383300781, -0.5247401595115662, -0.5071826577186584, -1.8083974123001099, 0.7021484375, 0.053466796875, -0.650634765625
207, 3429054042, -5.086197853088379, -1.680048942565918, 8.069982528686523, -0.6230160593986511, -0.6373975872993469, -1.8353290557861328, 0.703125, 0.052001953125, -0.652099609375
208, 3429070709, -5.092360973358154, -1.7079285383224487, 8.06782341003418, -0.6418030261993408, -0.6437495350837708, -2.00105619430542, 0.7041015625, 0.052490234375, -0.6484375
209, 3429087376, -5.079489707946777, -1.690852403640747, 8.068035125732422, -0.5696777105331421, -0.6937071681022644, -1.9060074090957642, 0.70361328125, 0.052001953125, -0.6484375
210, 3429104043, -5.07648229598999, -1.6808373928070068, 8.05037784576416, -0.5831626653671265, -0.6131808161735535, -1.8232783079147339, 0.7021484375, 0.052490234375, -0.650146484375
211, 3429120710, -5.082583427429199, -1.6914225816726685, 8.056794166564941, -0.6701434254646301, -0.5366628766059875, -1.8720192909240723, 0.70556640625, 0.051025390625, -0.6494140625
212, 3429137377, -5.093188762664795, -1.699671983718872, 8.069344520568848, -0.7058988809585571, -0.527864933013916, -1.9254860877990723, 0.705078125, 0.052490234375, -0.64990234375
213, 3429154044, -5.088263034820557, -1.6975555419921875, 8.061336517333984, -0.6404966711997986, -0.5649263858795166, -1.8657312393188477, 0.703125, 0.053466796875, -0.650390625
214, 3429170711, -5.089197158813477, -1.6978901624679565, 8.063521385192871, -0.6041139960289001, -0.6659045815467834, -1.9523534774780273, 0.703125, 0.053955078125, -0.64990234375
215, 3429187378, -5.072702884674072, -1.697167992591858, 8.075876235961914, -0.652150571346283, -0.5337430834770203, -1.9546204805374146, 0.70556640625, 0.053955078125, -0.6494140625
216, 3429204045, -5.083418846130371, -1.709550142288208, 8.069022178649902, -0.6094413995742798, -0.38803237676620483, -1.8576889038085938, 0.7060546875, 0.052001953125, -0.6484375
217, 3429220712, -5.078195571899414, -1.707247018814087, 8.072678565979004, -0.5820485353469849, -0.42974263429641724, -1.8572919368743896, 0.7041015625, 0.052978515625, -0.64990234375
218, 3429237379, -5.086618423461914, -1.7006757259368896, 8.072012901306152, -0.5603160858154297, -0.4006209671497345, -1.7587213516235352, 0.7060546875, 0.054443359375, -0.64990234375
219, 3429254046, -5.081592082977295, -1.6990365982055664, 8.056502342224121, -0.5232418179512024, -0.49423548579216003, -1.7911854982376099, 0.70458984375, 0.052490234375, -0.6474609375
220, 3429270713, -5.081936359405518, -1.7011066675186157, 8.087865829467773, -0.6000927090644836, -0.4554578363895416, -1.8549739122390747, 0.7021484375, 0.052978515625, -0.651123046875
221, 3429287380, -5.091348648071289, -1.6831668615341187, 8.08546257019043, -0.5936896204948425, -0.40488553047180176, -1.8515676259994507, 0.70458984375, 0.053466796875, -0.6494140625
222, 3429304047, -5.1011786460876465, -1.69798743724823, 8.044916152954102, -0.6099151372909546, -0.4900733232498169, -1.8854529857635498, 0.7041015625, 0.051025390625, -0.64990234375
223, 3429320714, -5.091228008270264, -1.6959013938903809, 8.057969093322754, -0.6110549569129944, -0.5192590355873108, -1.8759894371032715, 0.7041015625, 0.05517578125, -0.650634765625
224, 3429337381, -5.109416961669922, -1.6871992349624634, 8.046525955200195, -0.7135058045387268, -0.6778272986412048, -1.9335540533065796, 0.70361328125, 0.053955078125, -0.650390625
225, 3429354048, -5.070347309112549, -1.7058113813400269, 8.066450119018555, -0.6702331304550171, -0.6057018637657166, -1.8555759191513062, 0.70361328125, 0.054443359375, -0.6494140625
226, 3429370715, -5.085036754608154, -1.7121102809906006, 8.06190013885498, -0.6804269552230835, -0.5748643279075623, -1.9696295261383057, 0.70361328125, 0.053955078125, -0.64990234375
227, 3429387382, -5.086145401000977, -1.6955844163894653, 8.072653770446777, -0.5671035647392273, -0.6358223557472229, -1.8810862302780151, 0.70263671875, 0.053466796875, -0.650634765625
228, 3429404049, -5.077373504638672, -1.6806200742721558, 8.06489372253418, -0.6850629448890686, -0.599913477897644, -1.8927017450332642, 0.705078125, 0.0546875, -0.64990234375
229, 3429420716, -5.104360580444336, -1.7072484493255615, 8.064839363098145, -0.6587330102920532, -0.5391345024108887, -1.9528659582138062, 0.7041015625, 0.051513671875, -0.65087890625
230, 3429437383, -5.103710174560547, -1.6983169317245483, 8.071776390075684, -0.6142309904098511, -0.7468791604042053, -1.9412505626678467, 0.7041015625, 0.052001953125, -0.651611328125
231, 3429454050, -5.089961528778076, -1.7279751300811768, 8.043902397155762, -0.6466694474220276, -0.8109621405601501, -2.048311710357666, 0.703125, 0.05517578125, -0.650146484375
232, 3429470717, -5.069788932800293, -1.715843677520752, 8.045452117919922, -0.5395187735557556, -0.7413724660873413, -1.9133455753326416, 0.70263671875, 0.053466796875, -0.650146484375
233, 3429487384, -5.070374488830566, -1.704467535018921, 8.07367992401123, -0.5813954472541809, -0.6817588806152344, -1.9179176092147827, 0.704345703125, 0.0576171875, -0.64892578125
234, 3429504051, -5.0829620361328125, -1.712785005569458, 8.056354522705078, -0.49810290336608887, -0.6533414125442505, -1.8463807106018066, 0.70654296875, 0.054443359375, -0.65087890625
235, 3429520718, -5.093668460845947, -1.7075830698013306, 8.048920631408691, -0.5944578647613525, -0.6788516640663147, -1.8172463178634644, 0.702392578125, 0.05615234375, -0.649658203125
236, 3429537385, -5.067043304443359, -1.7121045589447021, 8.063745498657227, -0.6384348273277283, -0.5770412087440491, -1.8501074314117432, 0.70263671875, 0.053955078125, -0.650634765625
237, 3429554052, -5.072949409484863, -1.7133928537368774, 8.055166244506836, -0.628138542175293, -0.4694550633430481, -1.8135708570480347, 0.70458984375, 0.056640625, -0.650390625
238, 3429570719, -5.087051868438721, -1.707004189491272, 8.036972045898438, -0.6115671992301941, -0.6353357434272766, -1.820819616317749, 0.70361328125, 0.053955078125, -0.650634765625
239, 3429587386, -5.087711811065674, -1.7085766792297363, 8.07403564453125, -0.6595014333724976, -0.5630696415901184, -1.9082485437393188, 0.705078125, 0.056640625, -0.651611328125
240, 3429604053, -5.085630416870117, -1.7129135131835938, 8.061290740966797, -0.7074867486953735, -0.5708686709403992, -1.8546924591064453, 0.70361328125, 0.053955078125, -0.650634765625
241, 3429620720, -5.078026294708252, -1.7384556531906128, 8.07994556427002, -0.6573498845100403, -0.5389679670333862, -1.8226509094238281, 0.7041015625, 0.0556640625, -0.64892578125
242, 3429637387, -5.084950923919678, -1.7156567573547363, 8.056726455688477, -0.6225678324699402, -0.5763753652572632, -1.8038254976272583, 0.70458984375, 0.05517578125, -0.65087890625
243, 3429654054, -5.108398914337158, -1.7142524719238281, 8.060396194458008, -0.7171300053596497, -0.6147816777229309, -1.9503945112228394, 0.70361328125, 0.0556640625, -0.650146484375
244, 3429670721, -5.097135066986084, -1.7064697742462158, 8.05709457397461, -0.8028685450553894, -0.5066320300102234, -2.038835048675537, 0.705078125, 0.0546875, -0.64990234375
245, 3429687388, -5.086634635925293, -1.7295408248901367, 8.071884155273438, -0.8956889510154724, -0.5401207208633423, -2.020380973815918, 0.705078125, 0.0556640625, -0.64794921875
246, 3429704055, -5.082458019256592, -1.7309985160827637, 8.052264213562012, -0.8115767240524292, -0.6265634894371033, -2.01062273979187, 0.70556640625, 0.0556640625, -0.64892578125
247, 3429720722, -5.080007553100586, -1.7353347539901733, 8.040925025939941, -0.7955048084259033, -0.5438857078552246, -1.949766993522644, 0.7041015625, 0.0556640625, -0.646484375
248, 3429737389, -5.073703289031982, -1.7296489477157593, 8.058012962341309, -0.629214346408844, -0.6252700686454773, -1.8853635787963867, 0.70458984375, 0.0576171875, -0.6494140625
249, 3429754056, -5.0767083168029785, -1.7215468883514404, 8.06916618347168, -0.6734219193458557, -0.5367268919944763, -1.8744269609451294, 0.703857421875, 0.05712890625, -0.649658203125
250, 3429770723, -5.0814666748046875, -1.7211453914642334, 8.053648948669434, -0.7283354997634888, -0.49525997042655945, -1.8598532676696777, 0.70361328125, 0.05615234375, -0.651611328125
251, 3429787390, -5.082260608673096, -1.7403905391693115, 8.062995910644531, -0.7841328978538513, -0.5267764329910278, -1.9507272243499756, 0.702880859375, 0.05810546875, -0.64892578125
252, 3429804057, -5.071964740753174, -1.7302757501602173, 8.05443286895752, -0.8172627687454224, -0.5181192755699158, -1.8555246591567993, 0.70458984375, 0.05810546875, -0.650634765625
253, 3429820724, -5.073167324066162, -1.7214897871017456, 8.054245948791504, -0.8805645704269409, -0.4738989770412445, -1.9724980592727661, 0.705078125, 0.05615234375, -0.6484375
254, 3429837391, -5.09756326675415, -1.7335785627365112, 8.07387638092041, -0.9493346214294434, -0.49282675981521606, -2.1102302074432373, 0.703369140625, 0.0576171875, -0.650146484375
255, 3429854058, -5.081021308898926, -1.754443645477295, 8.057104110717773, -0.8990698456764221, -0.36774715781211853, -2.1006383895874023, 0.70556640625, 0.05810546875, -0.6484375
256, 3429870725, -5.084588527679443, -1.762108325958252, 8.042569160461426, -1.082495093345642, -0.47282326221466064, -2.0615787506103516, 0.70458984375, 0.0576171875, -0.6494140625
257, 3429887392, -5.078506946563721, -1.7587909698486328, 8.046207427978516, -0.7341880202293396, -0.3947685658931732, -1.9773132801055908, 0.703369140625, 0.0576171875, -0.650634765625
258, 3429904059, -5.091789722442627, -1.7371633052825928, 8.053109169006348, -0.8448476791381836, -0.39602354168891907, -1.8723008632659912, 0.703857421875, 0.0576171875, -0.64794921875
259, 3429920726, -5.104093074798584, -1.7227470874786377, 8.05803108215332, -1.0891672372817993, -0.28403204679489136, -2.0878961086273193, 0.704833984375, 0.060302734375, -0.64697265625
260, 3429937393, -5.05218505859375, -1.7781401872634888, 8.058177947998047, -0.9367589354515076, -0.23161566257476807, -2.0367605686187744, 0.7060546875, 0.05712890625, -0.6474609375
261, 3429954060, -5.102630615234375, -1.754304051399231, 8.040511131286621, -0.7484413385391235, -0.21722127497196198, -1.8938924074172974, 0.70458984375, 0.0576171875, -0.651123046875
262, 3429970727, -5.087923049926758, -1.7605929374694824, 8.025298118591309, -0.5856600403785706, -0.2854022979736328, -1.799471378326416, 0.703857421875, 0.05908203125, -0.64892578125
263, 3429987394, -5.0957746505737305, -1.7598941326141357, 8.058387756347656, -0.599977433681488, -0.3722677230834961, -1.8295021057128906, 0.705078125, 0.05712890625, -0.650634765625
264, 3430004061, -5.082508563995361, -1.7606863975524902, 8.043183326721191, -0.6630615592002869, -0.3379083275794983, -1.8020837306976318, 0.705078125, 0.05859375, -0.6484375
265, 3430020728, -5.079557418823242, -1.7427000999450684, 8.07901668548584, -0.7789973616600037, -0.28859108686447144, -1.81839919090271, 0.702880859375, 0.059814453125, -0.6484375
266, 3430037395, -5.084392547607422, -1.767674207687378, 8.059104919433594, -0.778049647808075, -0.32287365198135376, -1.7618845701217651, 0.705078125, 0.05859375, -0.6484375
267, 3430054062, -5.099480628967285, -1.7438371181488037, 8.060903549194336, -0.7289630174636841, -0.3773646652698517, -1.7231327295303345, 0.702880859375, 0.05908203125, -0.649658203125
268, 3430070729, -5.098067283630371, -1.751821756362915, 8.026552200317383, -0.7388879656791687, -0.32085028290748596, -1.8553581237792969, 0.705322265625, 0.060302734375, -0.6484375
269, 3430087396, -5.098844528198242, -1.7507357597351074, 8.05223560333252, -0.6506394147872925, -0.33696067333221436, -1.8134174346923828, 0.704345703125, 0.059326171875, -0.6474609375
270, 3430104063, -5.095051288604736, -1.7713772058486938, 8.03324031829834, -0.7291038632392883, -0.35427483916282654, -1.8558448553085327, 0.706298828125, 0.061767578125, -0.64794921875
271, 3430120730, -5.071884632110596, -1.7865737676620483, 8.046305656433105, -0.7336373329162598, -0.13948674499988556, -1.8127001523971558, 0.703857421875, 0.0576171875, -0.6494140625
272, 3430137397, -5.078184604644775, -1.7488054037094116, 8.045867919921875, -0.5767980217933655, -0.09691845625638962, -1.6460130214691162, 0.70703125, 0.060791015625, -0.64697265625
273, 3430154064, -5.095592021942139, -1.7626243829727173, 8.049241065979004, -0.5021369457244873, -0.06213640421628952, -1.5668952465057373, 0.70458984375, 0.05712890625, -0.6474609375
274, 3430170731, -5.114179611206055, -1.7688456773757935, 8.005455017089844, -0.3057571351528168, -0.34697043895721436, -1.5346128940582275, 0.704345703125, 0.060302734375, -0.6484375
275, 3430187398, -5.109280586242676, -1.7512445449829102, 8.037271499633789, -0.33949631452560425, -0.4602345824241638, -1.6092073917388916, 0.705078125, 0.05810546875, -0.6484375
276, 3430204065, -5.103790760040283, -1.7573487758636475, 8.021011352539062, -0.3900686502456665, -0.37470102310180664, -1.6185306310653687, 0.705810546875, 0.059814453125, -0.6474609375
277, 3430220732, -5.073858737945557, -1.7531869411468506, 8.034259796142578, -0.4170772433280945, -0.3737148940563202, -1.6537609100341797, 0.7060546875, 0.059814453125, -0.64794921875
278, 3430237399, -5.074823379516602, -1.7651352882385254, 8.014335632324219, -0.47760000824928284, -0.15899084508419037, -1.6511484384536743, 0.705810546875, 0.059814453125, -0.64697265625
279, 3430254066, -5.068569660186768, -1.751781702041626, 8.045992851257324, -0.4586082100868225, -0.1695304661989212, -1.5270549058914185, 0.703857421875, 0.05908203125, -0.6474609375
280, 3430270733, -5.114253997802734, -1.7581056356430054, 8.04798412322998, -0.37181955575942993, -0.1757287234067917, -1.453123688697815, 0.7080078125, 0.05810546875, -0.64892578125
281, 3430287400, -5.10532808303833, -1.7645443677902222, 8.02032470703125, -0.3364099860191345, -0.15244679152965546, -1.4206466674804688, 0.7060546875, 0.060791015625, -0.6494140625
282, 3430304067, -5.088023662567139, -1.7555396556854248, 8.040600776672363, -0.27168673276901245, -0.2971201539039612, -1.380204439163208, 0.705322265625, 0.059326171875, -0.646484375
283, 3430320734, -5.106342315673828, -1.7538049221038818, 8.028603553771973, -0.30831286311149597, -0.14664551615715027, -1.4401637315750122, 0.7060546875, 0.05908203125, -0.6484375
284, 3430337401, -5.104291915893555, -1.7553257942199707, 8.037393569946289, -0.2347916215658188, -0.11343863606452942, -1.3437447547912598, 0.7080078125, 0.05859375, -0.646728515625
285, 3430354068, -5.109246253967285, -1.748744249343872, 8.031700134277344, -0.3885190784931183, -6.147048552520573E-4, -1.4344778060913086, 0.7060546875, 0.060302734375, -0.64794921875
286, 3430370735, -5.123783111572266, -1.7438703775405884, 8.05652141571045, -0.3933086395263672, -0.1621796190738678, -1.5654354095458984, 0.703369140625, 0.05810546875, -0.64794921875
287, 3430387402, -5.098212718963623, -1.7609726190567017, 8.007183074951172, -0.3649425208568573, -0.35308384895324707, -1.6981346607208252, 0.70703125, 0.05859375, -0.644775390625
288, 3430404069, -5.077384948730469, -1.7632591724395752, 8.011919975280762, -0.3643406629562378, -0.18953397870063782, -1.64008367061615, 0.70751953125, 0.05859375, -0.646240234375
289, 3430420736, -5.1232590675354, -1.7496730089187622, 8.029858589172363, -0.31205230951309204, -0.2225743532180786, -1.5732600688934326, 0.70556640625, 0.05859375, -0.6455078125
290, 3430437403, -5.128783702850342, -1.7641984224319458, 8.031475067138672, -0.3293665051460266, -0.34062325954437256, -1.6005117893218994, 0.70703125, 0.05810546875, -0.645751953125
291, 3430454070, -5.1151299476623535, -1.7595239877700806, 8.024925231933594, -0.17954502999782562, -0.4218796193599701, -1.4417004585266113, 0.704833984375, 0.059326171875, -0.6474609375
292, 3430470737, -5.119953155517578, -1.7471057176589966, 8.045371055603027, -0.1866781860589981, -0.5608797073364258, -1.6040594577789307, 0.70703125, 0.0576171875, -0.645263671875
293, 3430487404, -5.105241775512695, -1.7678885459899902, 8.021190643310547, -0.2498903125524521, -0.578309178352356, -1.5525394678115845, 0.7060546875, 0.0576171875, -0.6474609375
294, 3430504071, -5.096932888031006, -1.7582768201828003, 8.023921012878418, -0.134120911359787, -0.41673141717910767, -1.5182183980941772, 0.7060546875, 0.0576171875, -0.64697265625
295, 3430520738, -5.115487098693848, -1.7492280006408691, 8.022396087646484, -0.1494244784116745, -0.28015169501304626, -1.4713726043701172, 0.70654296875, 0.05859375, -0.6474609375
296, 3430537405, -5.113462448120117, -1.7614452838897705, 8.021053314208984, -0.16322974860668182, -0.3008211851119995, -1.5269396305084229, 0.70703125, 0.05859375, -0.646240234375
297, 3430554072, -5.12186336517334, -1.7461012601852417, 8.031685829162598, -0.13390319049358368, -0.3877890706062317, -1.5001742839813232, 0.70556640625, 0.05859375, -0.64794921875
298, 3430570739, -5.122743606567383, -1.7611457109451294, 8.03300666809082, -0.2398117035627365, -0.2800876796245575, -1.536070466041565, 0.70703125, 0.059326171875, -0.64794921875
299, 3430587406, -5.101375102996826, -1.7626073360443115, 8.039477348327637, -0.21924470365047455, -0.42762961983680725, -1.4740877151489258, 0.7080078125, 0.05859375, -0.6474609375
300, 3430604073, -5.113988399505615, -1.7409188747406006, 8.037586212158203, -0.21604308485984802, -0.35919246077537537, -1.436347246170044, 0.70703125, 0.058837890625, -0.64892578125
301, 3430620740, -5.114387035369873, -1.721768856048584, 8.029862403869629, -0.2916133999824524, -0.34705206751823425, -1.6789894104003906, 0.70703125, 0.05859375, -0.64794921875
302, 3430637407, -5.089433193206787, -1.7611281871795654, 8.026875495910645, -0.24466530978679657, -0.3602426052093506, -1.5659347772598267, 0.70751953125, 0.059326171875, -0.6494140625
303, 3430654074, -5.0932183265686035, -1.744272232055664, 8.025301933288574, -0.25862419605255127, -0.2129695862531662, -1.4340167045593262, 0.70654296875, 0.05859375, -0.64697265625
304, 3430670741, -5.117066860198975, -1.775496244430542, 8.016501426696777, -0.23739127814769745, -0.18306675553321838, -1.324291706085205, 0.7080078125, 0.05859375, -0.6474609375
305, 3430687408, -5.12382173538208, -1.7334256172180176, 8.025544166564941, -0.09262832999229431, -0.23465073108673096, -1.2865386009216309, 0.70703125, 0.05859375, -0.645263671875
306, 3430704075, -5.107997894287109, -1.75747549533844, 8.004067420959473, -0.13946114480495453, -0.14685040712356567, -1.314866304397583, 0.708984375, 0.056640625, -0.646240234375
307, 3430720742, -5.148956775665283, -1.701345682144165, 8.046451568603516, -0.20796231925487518, -0.15486718714237213, -1.3795640468597412, 0.70703125, 0.05712890625, -0.646240234375
308, 3430737409, -5.114398002624512, -1.738427758216858, 8.017370223999023, -0.27167391777038574, -0.16754548251628876, -1.4485647678375244, 0.7080078125, 0.059814453125, -0.645751953125
309, 3430754076, -5.119470119476318, -1.766891598701477, 8.020347595214844, -0.33227354288101196, -0.09369125962257385, -1.4422895908355713, 0.7080078125, 0.05859375, -0.646728515625
310, 3430770743, -5.103026390075684, -1.7243421077728271, 8.032416343688965, -0.35225144028663635, 0.017423037439584732, -1.3354076147079468, 0.708984375, 0.05712890625, -0.644775390625
311, 3430787410, -5.125626087188721, -1.7410229444503784, 8.019268035888672, -0.2811506390571594, 0.09301892668008804, -1.3856855630874634, 0.7080078125, 0.0556640625, -0.646728515625
312, 3430804077, -5.160729885101318, -1.7265080213546753, 8.042158126831055, -0.26036587357521057, -0.09488224983215332, -1.3334611654281616, 0.70458984375, 0.0556640625, -0.644775390625
313, 3430820744, -5.129251956939697, -1.7533503770828247, 7.996923446655273, -0.2841856777667999, -0.1705421656370163, -1.4547501802444458, 0.70654296875, 0.056640625, -0.64697265625
314, 3430837411, -5.130013465881348, -1.750374436378479, 8.01468276977539, -0.27432480454444885, -0.18825334310531616, -1.4175093173980713, 0.7080078125, 0.056640625, -0.646728515625
315, 3430854078, -5.119159698486328, -1.7539258003234863, 8.017304420471191, -0.29594194889068604, -0.1719636768102646, -1.4149352312088013, 0.7080078125, 0.05712890625, -0.645263671875
316, 3430870745, -5.161271572113037, -1.710358738899231, 8.017616271972656, -0.2700987160205841, -0.19570662081241608, -1.3777966499328613, 0.70703125, 0.0576171875, -0.64697265625
317, 3430887412, -5.13319730758667, -1.7297756671905518, 8.018742561340332, -0.40233707427978516, -0.3138451874256134, -1.4644572734832764, 0.70703125, 0.058837890625, -0.646240234375
318, 3430904079, -5.146564483642578, -1.7343487739562988, 8.019135475158691, -0.277756929397583, -0.32881584763526917, -1.5664727687835693, 0.71044921875, 0.0556640625, -0.64404296875
319, 3430920746, -5.140598773956299, -1.7360632419586182, 8.013520240783691, -0.31420379877090454, -0.4600297212600708, -1.5701738595962524, 0.70751953125, 0.05712890625, -0.643798828125
320, 3430937413, -5.146199703216553, -1.7430403232574463, 8.025385856628418, -0.2152363359928131, -0.5684610605239868, -1.5762184858322144, 0.70703125, 0.05615234375, -0.643798828125
321, 3430954080, -5.127077579498291, -1.7330303192138672, 8.003524780273438, -0.2008419632911682, -0.6508315205574036, -1.6604584455490112, 0.708984375, 0.058349609375, -0.645263671875
322, 3430970747, -5.132774829864502, -1.7297462224960327, 8.019013404846191, -0.22982273995876312, -0.4672524333000183, -1.5141074657440186, 0.7099609375, 0.05615234375, -0.644287109375
323, 3430987414, -5.1364359855651855, -1.7496693134307861, 8.023727416992188, -0.23173092305660248, -0.4551504850387573, -1.5793558359146118, 0.70947265625, 0.056640625, -0.643798828125
324, 3431004081, -5.142694473266602, -1.7349804639816284, 7.98459005355835, -0.23497091233730316, -0.471978098154068, -1.6769275665283203, 0.70751953125, 0.0556640625, -0.644287109375
325, 3431020748, -5.136844635009766, -1.7183376550674438, 8.043440818786621, -0.31168097257614136, -0.435339093208313, -1.61500883102417, 0.70751953125, 0.0556640625, -0.645751953125
326, 3431037415, -5.143772125244141, -1.7336785793304443, 8.018019676208496, -0.248263880610466, -0.42837241291999817, -1.6389950513839722, 0.7099609375, 0.058837890625, -0.643310546875
327, 3431054082, -5.148083686828613, -1.7582764625549316, 8.036112785339355, -0.37970829010009766, -0.4369014501571655, -1.6077476739883423, 0.70947265625, 0.05615234375, -0.64306640625
328, 3431070749, -5.133520603179932, -1.7484313249588013, 8.011741638183594, -0.40876585245132446, -0.5073491334915161, -1.566241979598999, 0.7099609375, 0.056640625, -0.645751953125
329, 3431087416, -5.147465229034424, -1.7337422370910645, 8.01584243774414, -0.3670172095298767, -0.5287230014801025, -1.6289293766021729, 0.70947265625, 0.0546875, -0.6435546875
330, 3431104083, -5.125750541687012, -1.7363479137420654, 8.029533386230469, -0.27025240659713745, -0.45315268635749817, -1.6582303047180176, 0.70751953125, 0.05517578125, -0.643798828125
331, 3431120750, -5.14506196975708, -1.7459983825683594, 8.00226879119873, -0.3996734023094177, -0.33439943194389343, -1.5820198059082031, 0.70751953125, 0.05517578125, -0.646728515625
332, 3431137417, -5.132178783416748, -1.7273269891738892, 8.02241325378418, -0.4336358308792114, -0.29802942276000977, -1.6440281867980957, 0.70703125, 0.05712890625, -0.644287109375
333, 3431154084, -5.150059700012207, -1.730838418006897, 8.030743598937988, -0.3998270332813263, -0.373983770608902, -1.6323356628417969, 0.70556640625, 0.054443359375, -0.645751953125
334, 3431170751, -5.1266350746154785, -1.753330111503601, 8.009400367736816, -0.3957418203353882, -0.31001609563827515, -1.5779727697372437, 0.70947265625, 0.0546875, -0.64306640625
335, 3431187418, -5.126575469970703, -1.7442442178726196, 8.019784927368164, -0.344478040933609, -0.24974945187568665, -1.5536664724349976, 0.70947265625, 0.056640625, -0.644775390625
336, 3431204085, -5.1278791427612305, -1.7238394021987915, 8.016777992248535, -0.34420910477638245, -0.11665304005146027, -1.5149143934249878, 0.70947265625, 0.05615234375, -0.646240234375
337, 3431220752, -5.139100551605225, -1.739173412322998, 7.993433475494385, -0.4192926585674286, -0.12743598222732544, -1.5367491245269775, 0.70751953125, 0.0556640625, -0.64208984375
338, 3431237419, -5.142392158508301, -1.7429730892181396, 8.024260520935059, -0.35519689321517944, -0.2131872922182083, -1.5016083717346191, 0.70849609375, 0.056640625, -0.645263671875
339, 3431254086, -5.134726047515869, -1.739149808883667, 8.023371696472168, -0.4288334548473358, -0.18030060827732086, -1.5245577096939087, 0.70751953125, 0.0546875, -0.644287109375
340, 3431270753, -5.1425065994262695, -1.7344154119491577, 8.035052299499512, -0.6250907182693481, -0.15773580968379974, -1.4232592582702637, 0.71044921875, 0.056640625, -0.645751953125
341, 3431287420, -5.150777816772461, -1.7297769784927368, 8.035059928894043, -0.8556947708129883, -0.2718660235404968, -1.5726326704025269, 0.70947265625, 0.05712890625, -0.643798828125
342, 3431304087, -5.139817237854004, -1.7455387115478516, 8.005823135375977, -0.5117416977882385, -0.16262783110141754, -1.419430136680603, 0.708984375, 0.05712890625, -0.646240234375
343, 3431320754, -5.133835792541504, -1.7427985668182373, 8.036555290222168, -0.5473049283027649, -0.04072418808937073, -1.4684654474258423, 0.70947265625, 0.0576171875, -0.646240234375
344, 3431337421, -5.124547481536865, -1.756068229675293, 8.01865005493164, -0.32439765334129333, -0.03758664056658745, -1.1512398719787598, 0.7099609375, 0.05615234375, -0.644287109375
345, 3431354088, -5.161681175231934, -1.6910635232925415, 8.008440017700195, -0.39978697896003723, 0.06945940107107162, -1.269249439239502, 0.7099609375, 0.0556640625, -0.645751953125
346, 3431370755, -5.139152526855469, -1.7360316514968872, 8.039423942565918, -0.4837983250617981, 0.20402437448501587, -1.4480011463165283, 0.711181640625, 0.05615234375, -0.642578125
347, 3431387422, -5.177245140075684, -1.749828577041626, 8.00202465057373, -0.32229742407798767, -0.010859784670174122, -1.2669066190719604, 0.7080078125, 0.05517578125, -0.643798828125
348, 3431404089, -5.184120178222656, -1.7370362281799316, 8.007781982421875, -0.25228506326675415, -0.20146949589252472, -1.2499510049819946, 0.70849609375, 0.0546875, -0.64306640625
349, 3431420756, -5.182808876037598, -1.7296311855316162, 8.01290225982666, -0.16671305894851685, -0.3034592866897583, -1.3780913352966309, 0.7109375, 0.056640625, -0.64404296875
350, 3431437423, -5.180629253387451, -1.7087243795394897, 8.026108741760254, -0.14334146678447723, -0.3929756283760071, -1.398555874824524, 0.708984375, 0.053466796875, -0.64111328125
351, 3431454090, -5.177031517028809, -1.6998404264450073, 8.020777702331543, -0.18293870985507965, -0.4854118824005127, -1.5029916763305664, 0.7099609375, 0.0556640625, -0.642578125
352, 3431470757, -5.142551422119141, -1.7209177017211914, 8.008831977844238, -0.3485247790813446, -0.4939793050289154, -1.6322076320648193, 0.71044921875, 0.05517578125, -0.644287109375
353, 3431487424, -5.149682998657227, -1.7164499759674072, 8.014031410217285, -0.47672921419143677, -0.40071070194244385, -1.6811408996582031, 0.7109375, 0.056640625, -0.644287109375
354, 3431504091, -5.173752784729004, -1.7329126596450806, 7.997319221496582, -0.3816164433956146, -0.40651199221611023, -1.603111743927002, 0.70947265625, 0.05615234375, -0.64306640625
355, 3431520758, -5.181095600128174, -1.724217176437378, 8.013826370239258, -0.3949478268623352, -0.5098720192909241, -1.701656699180603, 0.708984375, 0.05419921875, -0.643798828125
356, 3431537425, -5.16100549697876, -1.7245317697525024, 8.01225471496582, -0.33133867383003235, -0.6788389682769775, -1.635998249053955, 0.7099609375, 0.0556640625, -0.64208984375
357, 3431554092, -5.16165018081665, -1.7233513593673706, 7.985050678253174, -0.4301396608352661, -0.6689909100532532, -1.684457540512085, 0.7099609375, 0.0576171875, -0.643798828125
358, 3431570759, -5.151906967163086, -1.746077299118042, 8.017372131347656, -0.2617490291595459, -0.6946293115615845, -1.612857460975647, 0.70947265625, 0.05615234375, -0.642578125
359, 3431587426, -5.161873817443848, -1.7136322259902954, 8.026464462280273, -0.29103711247444153, -0.39172065258026123, -1.6469991207122803, 0.712646484375, 0.0556640625, -0.64208984375
360, 3431604093, -5.166406154632568, -1.7269831895828247, 8.021252632141113, -0.3963821530342102, -0.3894411027431488, -1.6201826333999634, 0.710693359375, 0.05615234375, -0.644287109375
361, 3431620760, -5.169398784637451, -1.7216984033584595, 7.993709564208984, -0.3669787645339966, -0.46019622683525085, -1.6557841300964355, 0.70849609375, 0.05419921875, -0.643310546875
362, 3431637427, -5.172735691070557, -1.724567174911499, 8.005151748657227, -0.3117321729660034, -0.5856471657752991, -1.7041536569595337, 0.708984375, 0.056640625, -0.640625
363, 3431654094, -5.1643500328063965, -1.7258695363998413, 8.019074440002441, -0.32581907510757446, -0.636565089225769, -1.7385385036468506, 0.7099609375, 0.0546875, -0.64306640625
364, 3431670761, -5.152387619018555, -1.7526179552078247, 7.999486446380615, -0.3310825228691101, -0.6727814078330994, -1.725540041923523, 0.7080078125, 0.0546875, -0.644287109375
365, 3431687428, -5.144335746765137, -1.7232204675674438, 8.026323318481445, -0.38539427518844604, -0.5742623209953308, -1.6825366020202637, 0.711181640625, 0.05615234375, -0.64306640625
366, 3431704095, -5.148463726043701, -1.7255841493606567, 8.027280807495117, -0.3994428217411041, -0.5028669238090515, -1.6802698373794556, 0.71044921875, 0.05712890625, -0.643798828125
367, 3431720762, -5.1668477058410645, -1.7113986015319824, 8.00244140625, -0.41967692971229553, -0.4858089089393616, -1.6469991207122803, 0.71142578125, 0.0576171875, -0.6435546875
368, 3431737429, -5.158926486968994, -1.7034515142440796, 8.02630615234375, -0.3834477663040161, -0.4372984766960144, -1.6866987943649292, 0.7099609375, 0.05615234375, -0.642578125
369, 3431754096, -5.15981912612915, -1.7249113321304321, 8.022865295410156, -0.4091629087924957, -0.3435431718826294, -1.6691796779632568, 0.7109375, 0.056640625, -0.64404296875
370, 3431770763, -5.1589226722717285, -1.7171788215637207, 8.020088195800781, -0.4247226119041443, -0.4131328761577606, -1.5883077383041382, 0.710205078125, 0.05419921875, -0.64404296875
371, 3431787430, -5.171943187713623, -1.7155938148498535, 8.005043029785156, -0.44998952746391296, -0.36480167508125305, -1.6412233114242554, 0.712158203125, 0.0546875, -0.64453125
372, 3431804097, -5.146567344665527, -1.726574182510376, 7.997580051422119, -0.5152634382247925, -0.43017807602882385, -1.751357913017273, 0.71142578125, 0.05810546875, -0.644287109375
373, 3431820764, -5.157724380493164, -1.731650471687317, 8.011739730834961, -0.5567047595977783, -0.4649984836578369, -1.752049207687378, 0.711181640625, 0.052978515625, -0.64306640625
374, 3431837431, -5.183194637298584, -1.7198100090026855, 8.003640174865723, -0.4505402147769928, -0.38050228357315063, -1.7150392532348633, 0.712646484375, 0.05712890625, -0.64453125
375, 3431854098, -5.1690993309021, -1.743198037147522, 7.990533351898193, -0.44450843334198, -0.49590033292770386, -1.6353965997695923, 0.7080078125, 0.0546875, -0.64111328125
376, 3431870765, -5.148930549621582, -1.7290302515029907, 7.998150825500488, -0.5720597505569458, -0.40346410870552063, -1.6558868885040283, 0.71044921875, 0.0546875, -0.64111328125
377, 3431887432, -5.141997814178467, -1.7241512537002563, 7.999013423919678, -0.5515183806419373, -0.19506631791591644, -1.6685266494750977, 0.7099609375, 0.05419921875, -0.642578125
378, 3431904099, -5.163087368011475, -1.709799885749817, 8.008805274963379, -0.697843611240387, -0.14588992297649384, -1.749462604522705, 0.713134765625, 0.05615234375, -0.6416015625
379, 3431920766, -5.17761754989624, -1.7145195007324219, 7.982165336608887, -0.6832187175750732, -0.3059692978858948, -1.7491552829742432, 0.7099609375, 0.05517578125, -0.64111328125
380, 3431937433, -5.173172473907471, -1.7186863422393799, 7.982303142547607, -0.6339142322540283, -0.3915669023990631, -1.731238842010498, 0.7099609375, 0.056640625, -0.642578125
381, 3431954100, -5.101089000701904, -1.7745954990386963, 8.01384449005127, -0.6482317447662354, -0.2421552687883377, -1.5880513191223145, 0.70849609375, 0.05712890625, -0.6416015625
382, 3431970767, -5.158804893493652, -1.6941978931427002, 7.991429805755615, -0.6273574233055115, 0.11436710506677628, -1.2247096300125122, 0.71044921875, 0.059814453125, -0.64208984375
383, 3431987434, -5.17022180557251, -1.66220223903656, 8.043896675109863, -1.0065789222717285, 0.1778353601694107, -1.6830742359161377, 0.711669921875, 0.0556640625, -0.642578125
384, 3432004101, -5.218880653381348, -1.7343016862869263, 7.966277599334717, -1.054590106010437, 0.16903740167617798, -1.7592722177505493, 0.711181640625, 0.05517578125, -0.6435546875
385, 3432020768, -5.174261093139648, -1.8243006467819214, 7.983392715454102, -0.9204307794570923, -0.09398578852415085, -1.8453052043914795, 0.712646484375, 0.0556640625, -0.64501953125
386, 3432037435, -5.165431499481201, -1.7746042013168335, 7.979427814483643, -0.4767419695854187, -0.2709823548793793, -1.4607434272766113, 0.71044921875, 0.056640625, -0.64013671875
387, 3432054102, -5.210752010345459, -1.7596826553344727, 7.975477695465088, -0.22719743847846985, -0.30931177735328674, -1.3628644943237305, 0.715576171875, 0.05615234375, -0.64501953125
388, 3432070769, -5.191501617431641, -1.7495276927947998, 7.985071659088135, -0.17598488926887512, -0.47210609912872314, -1.3961867094039917, 0.713623046875, 0.0546875, -0.64306640625
389, 3432087436, -5.191091537475586, -1.709986925125122, 7.979801177978516, -0.20779582858085632, -0.4106740653514862, -1.5005968809127808, 0.71142578125, 0.05615234375, -0.64013671875
390, 3432104103, -5.1727166175842285, -1.7428796291351318, 8.014131546020508, -0.24389693140983582, -0.3918743133544922, -1.5252491235733032, 0.7109375, 0.0556640625, -0.64111328125
391, 3432120770, -5.1876325607299805, -1.7184333801269531, 8.042999267578125, -0.33982929587364197, -0.3213753402233124, -1.60537850856781, 0.71044921875, 0.0556640625, -0.64013671875
392, 3432137437, -5.182533264160156, -1.743688702583313, 7.981398105621338, -0.2642718255519867, -0.24371764063835144, -1.5993977785110474, 0.711181640625, 0.05419921875, -0.639404296875
393, 3432154104, -5.186045169830322, -1.7522625923156738, 8.001211166381836, -0.22509723901748657, -0.2643742859363556, -1.5861048698425293, 0.712158203125, 0.05419921875, -0.6435546875
394, 3432170771, -5.173202991485596, -1.7370579242706299, 7.977905750274658, -0.1666746437549591, -0.3958699107170105, -1.5873726606369019, 0.713623046875, 0.05712890625, -0.640869140625
395, 3432187438, -5.189947605133057, -1.710088849067688, 8.010465621948242, -0.1757415235042572, -0.539172887802124, -1.5484541654586792, 0.713134765625, 0.05615234375, -0.64306640625
396, 3432204105, -5.211293697357178, -1.7254704236984253, 7.985742092132568, -0.17168191075325012, -0.6750738024711609, -1.6953941583633423, 0.712646484375, 0.05517578125, -0.640625
397, 3432220772, -5.192533493041992, -1.732560157775879, 7.9828267097473145, -0.1823752224445343, -0.796759843826294, -1.638303518295288, 0.71142578125, 0.056640625, -0.642578125
398, 3432237439, -5.17647123336792, -1.7445629835128784, 7.984309196472168, -0.16632886230945587, -0.9706059694290161, -1.6718945503234863, 0.71044921875, 0.0546875, -0.64208984375
399, 3432254106, -5.1696906089782715, -1.7234505414962769, 7.995723247528076, -0.1353374868631363, -0.9843472242355347, -1.6706522703170776, 0.712646484375, 0.05712890625, -0.64111328125
400, 3432270773, -5.168358325958252, -1.7263991832733154, 8.012739181518555, -0.23727604746818542, -0.7135186195373535, -1.7147573232650757, 0.713134765625, 0.05615234375, -0.64404296875
401, 3432287440, -5.193449974060059, -1.7248395681381226, 8.003149032592773, -0.19488701224327087, -0.716374397277832, -1.765534520149231, 0.712158203125, 0.0546875, -0.64306640625
402, 3432304107, -5.191064357757568, -1.727765679359436, 7.980406284332275, -0.18241362273693085, -0.808259904384613, -1.7374627590179443, 0.712158203125, 0.0556640625, -0.642578125
403, 3432320774, -5.175601482391357, -1.7400482892990112, 7.990426540374756, -0.22074301540851593, -0.9199952483177185, -1.6120630502700806, 0.714111328125, 0.05419921875, -0.642578125
404, 3432337441, -5.151838779449463, -1.7281243801116943, 7.981464385986328, -0.10464068502187729, -0.8033295273780823, -1.5739260911941528, 0.711669921875, 0.0537109375, -0.6435546875
405, 3432354108, -5.187774658203125, -1.7323994636535645, 8.00063419342041, -0.23212787508964539, -0.7711598873138428, -1.6703320741653442, 0.711669921875, 0.05517578125, -0.6416015625
406, 3432370775, -5.172853469848633, -1.7227832078933716, 7.995363712310791, -0.3011285364627838, -0.7316139340400696, -1.6541064977645874, 0.712158203125, 0.05615234375, -0.64501953125
407, 3432387442, -5.172548770904541, -1.723245620727539, 8.010241508483887, -0.34533604979515076, -0.7199859023094177, -1.6323487758636475, 0.711669921875, 0.0576171875, -0.64306640625
408, 3432404109, -5.17508602142334, -1.7225314378738403, 8.01422119140625, -0.38643160462379456, -0.7891272306442261, -1.715090274810791, 0.711669921875, 0.0546875, -0.64404296875
409, 3432420776, -5.177100658416748, -1.7402411699295044, 7.999879360198975, -0.39562657475471497, -0.6733707189559937, -1.61082124710083, 0.710693359375, 0.05419921875, -0.6416015625
410, 3432437443, -5.181515693664551, -1.7154545783996582, 8.005331993103027, -0.2141990214586258, -0.742089569568634, -1.643899917602539, 0.7109375, 0.0576171875, -0.6416015625
411, 3432454110, -5.17073917388916, -1.7258888483047485, 7.982864856719971, -0.14153577387332916, -0.8795784711837769, -1.510521650314331, 0.712158203125, 0.0546875, -0.640625
412, 3432470777, -5.168956756591797, -1.7315245866775513, 7.9775919914245605, -0.2694583535194397, -0.9295616745948792, -1.6289035081863403, 0.710693359375, 0.0546875, -0.64208984375
413, 3432487444, -5.154526710510254, -1.7041367292404175, 8.014398574829102, -0.13628515601158142, -0.8144581317901611, -1.63845694065094, 0.712158203125, 0.05615234375, -0.6435546875
414, 3432504111, -5.1579461097717285, -1.7237478494644165, 7.998614311218262, -0.2948918342590332, -0.5102562308311462, -1.603073239326477, 0.711181640625, 0.0546875, -0.6416015625
415, 3432520778, -5.159960746765137, -1.7425974607467651, 7.994582653045654, -0.40735721588134766, -0.4512317478656769, -1.6494451761245728, 0.712158203125, 0.056640625, -0.64111328125
416, 3432537445, -5.17909574508667, -1.726044774055481, 7.986720561981201, -0.32898229360580444, -0.5073747634887695, -1.5479546785354614, 0.711669921875, 0.05615234375, -0.64208984375
417, 3432554112, -5.199624538421631, -1.7286643981933594, 7.9821085929870605, -0.2678224742412567, -0.6193906664848328, -1.5271975994110107, 0.7099609375, 0.056640625, -0.64111328125
418, 3432570779, -5.18125057220459, -1.717093586921692, 7.986894130706787, -0.2700091302394867, -0.7319725751876831, -1.5398740768432617, 0.7109375, 0.05615234375, -0.64306640625
419, 3432587446, -5.153012275695801, -1.7343789339065552, 8.011258125305176, -0.25169602036476135, -0.6966782808303833, -1.5706477165222168, 0.708984375, 0.05517578125, -0.640625
420, 3432604113, -5.177632808685303, -1.7143572568893433, 7.999027729034424, -0.170324444770813, -0.5305030345916748, -1.5755267143249512, 0.711181640625, 0.0546875, -0.642578125
421, 3432620780, -5.189996719360352, -1.7056092023849487, 8.001866340637207, -0.33366942405700684, -0.5922039747238159, -1.6449244022369385, 0.711669921875, 0.0546875, -0.64013671875
422, 3432637447, -5.184959411621094, -1.7396639585494995, 8.001439094543457, -0.3026396632194519, -0.6957305669784546, -1.676287055015564, 0.713134765625, 0.05712890625, -0.642578125
423, 3432654114, -5.158604145050049, -1.7304362058639526, 7.982947826385498, -0.22708220779895782, -0.6775839328765869, -1.5848498344421387, 0.7099609375, 0.05517578125, -0.640625
424, 3432670781, -5.168000221252441, -1.7296916246414185, 8.000056266784668, -0.21266226470470428, -0.7215738296508789, -1.5524241924285889, 0.711181640625, 0.0537109375, -0.6435546875
425, 3432687448, -5.177915096282959, -1.7172523736953735, 8.019243240356445, -0.3014870882034302, -0.6181625723838806, -1.6047382354736328, 0.710693359375, 0.05419921875, -0.64111328125
426, 3432704115, -5.185982704162598, -1.7111167907714844, 8.008550643920898, -0.26410531997680664, -0.5837005972862244, -1.6631861925125122, 0.711181640625, 0.0556640625, -0.6416015625
427, 3432720782, -5.164107799530029, -1.7055593729019165, 7.990721702575684, -0.24463969469070435, -0.6195199489593506, -1.6249079704284668, 0.7099609375, 0.05615234375, -0.64208984375
428, 3432737449, -5.17505407333374, -1.7314738035202026, 8.01279067993164, -0.3143831193447113, -0.5645295977592468, -1.623704433441162, 0.713134765625, 0.05419921875, -0.64208984375
429, 3432754116, -5.170353412628174, -1.7185159921646118, 7.989017009735107, -0.33135151863098145, -0.49998554587364197, -1.6663237810134888, 0.711181640625, 0.0537109375, -0.642578125
430, 3432770783, -5.177344799041748, -1.711477279663086, 7.980324745178223, -0.3780178129673004, -0.4684050381183624, -1.6357293128967285, 0.710693359375, 0.0537109375, -0.64306640625
431, 3432787450, -5.1797871589660645, -1.7104499340057373, 7.998814105987549, -0.26880529522895813, -0.5454865097999573, -1.634487271308899, 0.711181640625, 0.052978515625, -0.638916015625
432, 3432804117, -5.1751813888549805, -1.7223339080810547, 7.9945454597473145, -0.2548207640647888, -0.545051097869873, -1.569443941116333, 0.7109375, 0.0546875, -0.6416015625
433, 3432820784, -5.170671463012695, -1.7265595197677612, 7.999748706817627, -0.3343737721443176, -0.5448204874992371, -1.5105730295181274, 0.711669921875, 0.05322265625, -0.64111328125
434, 3432837451, -5.158975601196289, -1.7232202291488647, 8.014167785644531, -0.2563191056251526, -0.4189213216304779, -1.625049114227295, 0.713134765625, 0.0576171875, -0.640625
435, 3432854118, -5.173295021057129, -1.710202693939209, 8.012214660644531, -0.32461532950401306, -0.4552273154258728, -1.5578925609588623, 0.70849609375, 0.0546875, -0.642578125
436, 3432870785, -5.177430152893066, -1.7122952938079834, 7.976382255554199, -0.2739918529987335, -0.3019225001335144, -1.5206899642944336, 0.711181640625, 0.053466796875, -0.64404296875
437, 3432887452, -5.187172889709473, -1.7040284872055054, 7.980508327484131, -0.3408922553062439, -0.48734575510025024, -1.6650562286376953, 0.7099609375, 0.05419921875, -0.64208984375
438, 3432904119, -5.180065155029297, -1.7324143648147583, 7.9720869064331055, -0.3405592739582062, -0.5789878964424133, -1.591650128364563, 0.710693359375, 0.0546875, -0.64306640625
439, 3432920786, -5.166705131530762, -1.7258392572402954, 7.984955787658691, -0.2511581480503082, -0.49665582180023193, -1.5996156930923462, 0.711181640625, 0.05419921875, -0.64208984375
440, 3432937453, -5.1891865730285645, -1.7117265462875366, 7.991288185119629, -0.2182714343070984, -0.543552815914154, -1.6062493324279785, 0.711669921875, 0.0537109375, -0.640625
441, 3432954120, -5.178670406341553, -1.7131861448287964, 7.982669830322266, -0.20568276941776276, -0.637884259223938, -1.5475449562072754, 0.712646484375, 0.0537109375, -0.6416015625
442, 3432970787, -5.180825233459473, -1.7087016105651855, 7.995408058166504, -0.1672765463590622, -0.5935230851173401, -1.5349689722061157, 0.713134765625, 0.0546875, -0.64111328125
443, 3432987454, -5.177175045013428, -1.712098479270935, 8.0071439743042, -0.20780865848064423, -0.7017367482185364, -1.544535517692566, 0.710693359375, 0.0537109375, -0.642578125
444, 3433004121, -5.181660175323486, -1.709279179573059, 8.016403198242188, -0.1725911796092987, -0.6371927857398987, -1.5620675086975098, 0.71044921875, 0.05419921875, -0.6396484375
445, 3433020788, -5.166598796844482, -1.718093991279602, 8.010435104370117, -0.26585984230041504, -0.557396411895752, -1.5943267345428467, 0.711669921875, 0.0546875, -0.6416015625
446, 3433037455, -5.174158096313477, -1.6912078857421875, 7.990182876586914, -0.47188839316368103, -0.5610334277153015, -1.601357340812683, 0.70947265625, 0.052490234375, -0.6416015625
447, 3433054122, -5.1511054039001465, -1.7268002033233643, 8.003986358642578, -0.3313003182411194, -0.3895563781261444, -1.61530339717865, 0.710693359375, 0.05419921875, -0.64306640625
448, 3433070789, -5.232209205627441, -1.700084924697876, 7.9925079345703125, -0.4005442261695862, -0.39827749133110046, -1.5396819114685059, 0.712158203125, 0.052978515625, -0.6435546875
449, 3433087456, -5.174810409545898, -1.706702709197998, 7.992731094360352, -0.31746944785118103, -0.682015061378479, -1.542934775352478, 0.7099609375, 0.052978515625, -0.6416015625
450, 3433104123, -5.1861653327941895, -1.716675043106079, 8.00049877166748, -0.2729673683643341, -0.6795562505722046, -1.5405399799346924, 0.710693359375, 0.052001953125, -0.6416015625
451, 3433120790, -5.181809902191162, -1.703658938407898, 7.99098539352417, -0.23312678933143616, -0.6611406803131104, -1.5488768815994263, 0.712646484375, 0.0537109375, -0.642578125
452, 3433137457, -5.155313968658447, -1.7215466499328613, 8.020092964172363, -0.2454977035522461, -0.5650674104690552, -1.4651360511779785, 0.711669921875, 0.0537109375, -0.642578125
453, 3433154124, -5.182758331298828, -1.70792555809021, 7.990269660949707, -0.3122187852859497, -0.5246761441230774, -1.5523600578308105, 0.711181640625, 0.052978515625, -0.640380859375
454, 3433170791, -5.169203758239746, -1.6726893186569214, 8.02161979675293, -0.37196046113967896, -0.5504938364028931, -1.5641804933547974, 0.711181640625, 0.0556640625, -0.6416015625
455, 3433187458, -5.179152488708496, -1.7154453992843628, 7.994880676269531, -0.4507579207420349, -0.5572555065155029, -1.4726150035858154, 0.711669921875, 0.052490234375, -0.6435546875
456, 3433204125, -5.180154323577881, -1.708889365196228, 8.008625030517578, -0.327612042427063, -0.6308664083480835, -1.551220417022705, 0.71142578125, 0.05517578125, -0.639404296875
457, 3433220792, -5.1778082847595215, -1.7340022325515747, 7.982618808746338, -0.3569001853466034, -0.6423793435096741, -1.5399253368377686, 0.712158203125, 0.052978515625, -0.6435546875
458, 3433237459, -5.180378437042236, -1.710762858390808, 8.01705551147461, -0.23381835222244263, -0.6972673535346985, -1.470732569694519, 0.711181640625, 0.05322265625, -0.642578125
459, 3433254126, -5.1711907386779785, -1.713487148284912, 7.997943878173828, -0.12484912574291229, -0.6202628016471863, -1.5612863302230835, 0.710693359375, 0.05419921875, -0.64306640625
460, 3433270793, -5.182989120483398, -1.7049826383590698, 7.991629600524902, -0.13021495938301086, -0.6777247786521912, -1.5127756595611572, 0.70947265625, 0.052490234375, -0.6435546875
461, 3433287460, -5.173079013824463, -1.7057501077651978, 8.013458251953125, -0.1272823065519333, -0.6723974347114563, -1.6178007125854492, 0.709716796875, 0.052490234375, -0.6435546875
462, 3433304127, -5.1925835609436035, -1.7123452425003052, 8.007852554321289, -0.13345497846603394, -0.6193279027938843, -1.5531411170959473, 0.711669921875, 0.05322265625, -0.64208984375
463, 3433320794, -5.178432941436768, -1.7201402187347412, 7.9978437423706055, -0.15539225935935974, -0.6085706353187561, -1.559288501739502, 0.711669921875, 0.0537109375, -0.64453125
464, 3433337461, -5.167558670043945, -1.703803539276123, 8.025525093078613, -0.17754721641540527, -0.5207701921463013, -1.5763463973999023, 0.711181640625, 0.0537109375, -0.64111328125
465, 3433354128, -5.1656718254089355, -1.7090636491775513, 8.007479667663574, -0.1102626696228981, -0.5219867825508118, -1.508139729499817, 0.710693359375, 0.0537109375, -0.64404296875
466, 3433370795, -5.171464920043945, -1.7030398845672607, 8.02758502960205, -0.16047635674476624, -0.41997143626213074, -1.5325229167938232, 0.711669921875, 0.052978515625, -0.64306640625
467, 3433387462, -5.190513610839844, -1.6952271461486816, 7.990573406219482, -0.2394018918275833, -0.46721407771110535, -1.5168609619140625, 0.710693359375, 0.052490234375, -0.642578125
468, 3433404129, -5.197292804718018, -1.7000887393951416, 8.01662826538086, -0.129228875041008, -0.47026193141937256, -1.4691827297210693, 0.7099609375, 0.052978515625, -0.64208984375
469, 3433420796, -5.190989017486572, -1.6981650590896606, 7.989391326904297, -0.19100670516490936, -0.6722565293312073, -1.499802827835083, 0.708984375, 0.052001953125, -0.640625
470, 3433437463, -5.1777520179748535, -1.7065984010696411, 7.989081859588623, -0.30453500151634216, -0.7564583420753479, -1.5994107723236084, 0.7109375, 0.05517578125, -0.642578125
471, 3433454130, -5.167405605316162, -1.713003396987915, 8.002734184265137, -0.2278633862733841, -0.6938608884811401, -1.609399676322937, 0.7099609375, 0.0546875, -0.6435546875
472, 3433470797, -5.173407077789307, -1.7097920179367065, 8.0101900100708, -0.16296079754829407, -0.5655283331871033, -1.5049508810043335, 0.710693359375, 0.051025390625, -0.639892578125
473, 3433487464, -5.1776838302612305, -1.6960598230361938, 8.002880096435547, -0.20026569068431854, -0.5250987410545349, -1.5782160758972168, 0.712158203125, 0.052001953125, -0.64404296875
474, 3433504131, -5.182269096374512, -1.6745892763137817, 7.99727201461792, -0.1947205513715744, -0.540197491645813, -1.5747328996658325, 0.711669921875, 0.052490234375, -0.64208984375
475, 3433520798, -5.180757999420166, -1.6943820714950562, 8.009363174438477, -0.19154459238052368, -0.6986376643180847, -1.6048662662506104, 0.710205078125, 0.0537109375, -0.645751953125
476, 3433537465, -5.1519551277160645, -1.701781988143921, 8.027547836303711, -0.22996366024017334, -0.6136803030967712, -1.583915114402771, 0.710205078125, 0.052490234375, -0.64111328125
477, 3433554132, -5.168113708496094, -1.714603304862976, 8.00646686553955, -0.1803390234708786, -0.6164336800575256, -1.5431652069091797, 0.710693359375, 0.050537109375, -0.640625
478, 3433570799, -5.182706832885742, -1.691063642501831, 7.996038913726807, -0.2045174241065979, -0.6169843077659607, -1.5778961181640625, 0.710693359375, 0.052978515625, -0.640625
479, 3433587466, -5.179145336151123, -1.6938581466674805, 7.981985092163086, -0.18231120705604553, -0.6595398187637329, -1.5555617809295654, 0.711181640625, 0.052490234375, -0.6416015625
480, 3433604133, -5.180588245391846, -1.7008330821990967, 7.974212169647217, -0.13068880140781403, -0.6608332991600037, -1.6396865844726562, 0.711669921875, 0.052001953125, -0.64306640625
481, 3433620800, -5.176793575286865, -1.695949912071228, 8.003453254699707, -0.25800955295562744, -0.6343369483947754, -1.568560242652893, 0.712158203125, 0.050537109375, -0.640869140625
482, 3433637467, -5.205817699432373, -1.6775985956192017, 8.013957977294922, -0.16640570759773254, -0.5689604878425598, -1.4138978719711304, 0.710205078125, 0.052490234375, -0.64404296875
483, 3433654134, -5.194604873657227, -1.695515513420105, 7.99460506439209, -0.1677888184785843, -0.6174325942993164, -1.6747889518737793, 0.711181640625, 0.051025390625, -0.64111328125
484, 3433670801, -5.176693439483643, -1.6792333126068115, 8.005749702453613, -0.2365332990884781, -0.6041395664215088, -1.543485403060913, 0.711181640625, 0.051025390625, -0.6435546875
485, 3433687468, -5.172247886657715, -1.67876136302948, 8.014535903930664, -0.26268383860588074, -0.6543404459953308, -1.581763505935669, 0.712158203125, 0.052001953125, -0.64208984375
486, 3433704135, -5.1810102462768555, -1.674852967262268, 8.018664360046387, -0.23640522360801697, -0.5843665599822998, -1.6022921800613403, 0.709716796875, 0.050537109375, -0.6435546875
487, 3433720802, -5.183554649353027, -1.7027193307876587, 7.984186172485352, -0.20048338174819946, -0.7194734811782837, -1.5739258527755737, 0.711669921875, 0.052001953125, -0.642578125
488, 3433737469, -5.191844463348389, -1.675085425376892, 8.003854751586914, -0.2342153787612915, -0.7059500813484192, -1.5979124307632446, 0.711181640625, 0.051513671875, -0.6416015625
489, 3433754136, -5.14963436126709, -1.6997662782669067, 7.978490829467773, -0.3048478364944458, -0.7383559346199036, -1.6261838674545288, 0.711181640625, 0.052490234375, -0.64306640625
490, 3433770803, -5.193294525146484, -1.6733604669570923, 8.006534576416016, -0.25470542907714844, -0.537392795085907, -1.6514298915863037, 0.711669921875, 0.052001953125, -0.64306640625
491, 3433787470, -5.178407669067383, -1.6919752359390259, 7.990964889526367, -0.23303717374801636, -0.649563729763031, -1.6144967079162598, 0.711181640625, 0.050048828125, -0.6435546875
492, 3433804137, -5.1810526847839355, -1.6871098279953003, 7.990994453430176, -0.2548079490661621, -0.6176759004592896, -1.5648592710494995, 0.711669921875, 0.051025390625, -0.6416015625
493, 3433820804, -5.182353496551514, -1.6960142850875854, 7.9987711906433105, -0.187600240111351, -0.641482949256897, -1.6038161516189575, 0.709716796875, 0.051025390625, -0.6416015625
494, 3433837471, -5.200387954711914, -1.6853355169296265, 8.024763107299805, -0.21856598556041718, -0.7556771039962769, -1.5649616718292236, 0.710205078125, 0.052001953125, -0.6435546875
495, 3433854138, -5.177730560302734, -1.6791170835494995, 8.044529914855957, -0.21816898882389069, -0.7873727679252625, -1.593673586845398, 0.713134765625, 0.050048828125, -0.642578125
496, 3433870805, -5.1885986328125, -1.6914743185043335, 8.013833999633789, -0.21792566776275635, -0.7594806551933289, -1.5804829597473145, 0.709716796875, 0.051025390625, -0.64111328125
497, 3433887472, -5.1854963302612305, -1.6820437908172607, 7.99403190612793, -0.08436823636293411, -0.6692726612091064, -1.582480788230896, 0.710205078125, 0.052001953125, -0.6435546875
498, 3433904139, -5.1839728355407715, -1.6993584632873535, 8.021750450134277, -0.2041972577571869, -0.6882516741752625, -1.6028940677642822, 0.710205078125, 0.052001953125, -0.642578125
499, 3433920806, -5.185459613800049, -1.6743521690368652, 8.000516891479492, -0.19486142694950104, -0.7580334544181824, -1.5932893753051758, 0.712646484375, 0.051025390625, -0.6435546875
500, 3433937473, -5.169270992279053, -1.6932637691497803, 8.00206184387207, -0.2336902767419815, -0.7541916370391846, -1.5664856433868408, 0.710205078125, 0.051513671875, -0.642578125
501, 3433954140, -5.1478753089904785, -1.696181058883667, 8.000099182128906, -0.2655268609523773, -0.5683202147483826, -1.558135747909546, 0.711181640625, 0.051513671875, -0.64306640625
502, 3433970807, -5.199660778045654, -1.674734354019165, 8.002843856811523, -0.33766499161720276, -0.5500199198722839, -1.5703786611557007, 0.712158203125, 0.050048828125, -0.64404296875
503, 3433987474, -5.185695648193359, -1.6851660013198853, 8.017741203308105, -0.39978861808776855, -0.5473817586898804, -1.693037748336792, 0.712646484375, 0.049560546875, -0.6435546875
504, 3434004141, -5.167749404907227, -1.6978577375411987, 8.010275840759277, -0.4475434422492981, -0.6329537630081177, -1.6918978691101074, 0.711181640625, 0.051025390625, -0.64208984375
505, 3434020808, -5.183576583862305, -1.6726040840148926, 8.026412963867188, -0.4397059977054596, -0.6202627420425415, -1.6674764156341553, 0.712158203125, 0.049560546875, -0.64208984375
506, 3434037475, -5.176012992858887, -1.6711139678955078, 8.011337280273438, -0.3461812436580658, -0.7203699350357056, -1.6703705787658691, 0.710693359375, 0.049560546875, -0.6416015625
507, 3434054142, -5.178300857543945, -1.6855686902999878, 7.9989142417907715, -0.26221004128456116, -0.6443899273872375, -1.6344488859176636, 0.710205078125, 0.049560546875, -0.64306640625
508, 3434070809, -5.1670379638671875, -1.6913124322891235, 8.009681701660156, -0.254910409450531, -0.6481293439865112, -1.6060060262680054, 0.712158203125, 0.050048828125, -0.64306640625
509, 3434087476, -5.153846263885498, -1.6897618770599365, 8.003155708312988, -0.18834298849105835, -0.573353111743927, -1.5507594347000122, 0.710693359375, 0.050048828125, -0.6455078125
510, 3434104143, -5.172534465789795, -1.6832257509231567, 8.033748626708984, -0.19902350008487701, -0.6107988357543945, -1.5145814418792725, 0.709716796875, 0.049560546875, -0.64453125
511, 3434120810, -5.168999195098877, -1.676619291305542, 8.02089786529541, -0.12677006423473358, -0.6344137787818909, -1.5430755615234375, 0.710205078125, 0.050537109375, -0.64501953125
512, 3434137477, -5.175920009613037, -1.6763372421264648, 8.001184463500977, -0.1432134062051773, -0.49349263310432434, -1.512263298034668, 0.711669921875, 0.052001953125, -0.640869140625
513, 3434154144, -5.184951305389404, -1.6711647510528564, 8.006381034851074, -0.08947796374559402, -0.4961819648742676, -1.5718642473220825, 0.711669921875, 0.051025390625, -0.642578125
514, 3434170811, -5.156546115875244, -1.6894962787628174, 8.010172843933105, -0.15011604130268097, -0.47425761818885803, -1.582736849784851, 0.710693359375, 0.049072265625, -0.6416015625
515, 3434187478, -5.176912307739258, -1.6610040664672852, 8.001387596130371, -0.1939905732870102, -0.5054538249969482, -1.4817074537277222, 0.708740234375, 0.048828125, -0.6416015625
516, 3434204145, -5.182369709014893, -1.672520637512207, 8.00541877746582, -0.34686002135276794, -0.3594614565372467, -1.569264531135559, 0.711181640625, 0.049560546875, -0.6435546875
517, 3434220812, -5.181975364685059, -1.678333044052124, 8.000070571899414, -0.2341897338628769, -0.5212056636810303, -1.5723636150360107, 0.710693359375, 0.051025390625, -0.64111328125
518, 3434237479, -5.169981002807617, -1.6893640756607056, 8.055807113647461, -0.22443129122257233, -0.5068625211715698, -1.5139284133911133, 0.711181640625, 0.051025390625, -0.64453125
519, 3434254146, -5.170663356781006, -1.6712130308151245, 8.000375747680664, -0.11334900557994843, -0.5579342246055603, -1.4741390943527222, 0.712158203125, 0.050048828125, -0.64453125
520, 3434270813, -5.180559158325195, -1.6768258810043335, 7.993602752685547, -0.006684914231300354, -0.5548734664916992, -1.3462034463882446, 0.711669921875, 0.050537109375, -0.6455078125
521, 3434287480, -5.177913188934326, -1.6570936441421509, 8.03985595703125, 0.04568665102124214, -0.5297219157218933, -1.3505833148956299, 0.708740234375, 0.050048828125, -0.6416015625
522, 3434304147, -5.187371253967285, -1.6452277898788452, 8.022903442382812, -0.29717135429382324, -0.4239029586315155, -1.6169809103012085, 0.712158203125, 0.048583984375, -0.64208984375
523, 3434320814, -5.188385486602783, -1.649643898010254, 8.041489601135254, -0.5145847797393799, -0.37033405900001526, -1.5819300413131714, 0.711669921875, 0.050048828125, -0.64306640625
524, 3434337481, -5.17949914932251, -1.6852595806121826, 8.015064239501953, -0.5898604393005371, -0.3228224515914917, -1.5849266052246094, 0.709716796875, 0.049560546875, -0.6416015625
525, 3434354148, -5.213323593139648, -1.691532850265503, 7.989652156829834, -0.7936990261077881, -0.41976651549339294, -1.8211781978607178, 0.713134765625, 0.050048828125, -0.6455078125
526, 3434370815, -5.153292179107666, -1.699983835220337, 8.003190994262695, -0.3480381965637207, -0.38267940282821655, -1.5279768705368042, 0.710205078125, 0.049072265625, -0.64453125
527, 3434387482, -5.17306661605835, -1.6847530603408813, 7.997934818267822, -0.25544825196266174, -0.45812150835990906, -1.3865562677383423, 0.711181640625, 0.050048828125, -0.642578125
528, 3434404149, -5.181602954864502, -1.6698448657989502, 8.020904541015625, -0.1023099347949028, -0.5736476182937622, -1.4649312496185303, 0.70947265625, 0.052001953125, -0.642578125
529, 3434420816, -5.1722235679626465, -1.665583610534668, 8.031709671020508, -0.1604507565498352, -0.5223838090896606, -1.4980995655059814, 0.712646484375, 0.049072265625, -0.6435546875
530, 3434437483, -5.187163352966309, -1.6495107412338257, 7.987990379333496, -0.22051255404949188, -0.4801484942436218, -1.5541785955429077, 0.709716796875, 0.049072265625, -0.64453125
531, 3434454150, -5.189597129821777, -1.6546462774276733, 8.00818157196045, -0.20505528151988983, -0.4861675202846527, -1.6153804063796997, 0.714111328125, 0.049560546875, -0.64306640625
532, 3434470817, -5.190794944763184, -1.6763834953308105, 8.008983612060547, -0.22393183410167694, -0.5090908408164978, -1.5330995321273804, 0.708740234375, 0.04736328125, -0.64306640625
533, 3434487484, -5.176871299743652, -1.6802399158477783, 8.013032913208008, -0.1786229908466339, -0.5456529855728149, -1.616840124130249, 0.709228515625, 0.0478515625, -0.64306640625
534, 3434504151, -5.185211181640625, -1.6554032564163208, 7.999485492706299, -0.10621587187051773, -0.6403943300247192, -1.539797067642212, 0.713623046875, 0.048583984375, -0.640869140625
535, 3434520818, -5.178313255310059, -1.6751989126205444, 7.989633560180664, -0.07947620749473572, -0.6202244162559509, -1.5799193382263184, 0.710693359375, 0.04833984375, -0.6416015625
536, 3434537485, -5.171119213104248, -1.6667368412017822, 8.01739501953125, -0.005340247415006161, -0.5488288998603821, -1.578741192817688, 0.712646484375, 0.050048828125, -0.64453125
537, 3434554152, -5.174534797668457, -1.6701918840408325, 8.02064323425293, -0.11870204657316208, -0.5255341529846191, -1.454660415649414, 0.710205078125, 0.049560546875, -0.6416015625
538, 3434570819, -5.171401500701904, -1.6470872163772583, 8.015849113464355, -0.04200482740998268, -0.5425281524658203, -1.4511131048202515, 0.710693359375, 0.048828125, -0.6435546875
539, 3434587486, -5.176775932312012, -1.656225323677063, 8.029577255249023, -0.04560340568423271, -0.5475226044654846, -1.4840123653411865, 0.709716796875, 0.049072265625, -0.6435546875
540, 3434604153, -5.189517021179199, -1.6439425945281982, 7.995109558105469, -0.17899437248706818, -0.5576781630516052, -1.575181245803833, 0.712158203125, 0.04833984375, -0.64306640625
541, 3434620820, -5.1554975509643555, -1.671386957168579, 8.019978523254395, -0.2898460626602173, -0.6759703159332275, -1.622564435005188, 0.713134765625, 0.04736328125, -0.6435546875
542, 3434637487, -5.180180072784424, -1.6724861860275269, 7.994180679321289, -0.07386703044176102, -0.5567048788070679, -1.5812768936157227, 0.709716796875, 0.049072265625, -0.6435546875
543, 3434654154, -5.156589984893799, -1.636252999305725, 8.018745422363281, 0.08345257490873337, -0.4347371459007263, -1.5084214210510254, 0.710205078125, 0.049560546875, -0.6416015625
544, 3434670821, -5.1862664222717285, -1.6522475481033325, 8.000515937805176, 0.05357535928487778, -0.3960748016834259, -1.3392879962921143, 0.712646484375, 0.04638671875, -0.6435546875
545, 3434687488, -5.193598747253418, -1.6333565711975098, 8.003154754638672, 0.005013686139136553, -0.5334356427192688, -1.3569480180740356, 0.710693359375, 0.0478515625, -0.64306640625
546, 3434704155, -5.193190574645996, -1.637840747833252, 7.992858409881592, -0.20130300521850586, -0.6110933423042297, -1.5252232551574707, 0.710205078125, 0.046875, -0.64306640625
547, 3434720822, -5.18644380569458, -1.6647584438323975, 8.024042129516602, -0.3603578507900238, -0.6036913394927979, -1.4932587146759033, 0.711181640625, 0.048828125, -0.6435546875
548, 3434737489, -5.2003068923950195, -1.6482213735580444, 7.991988658905029, -0.3842545449733734, -0.5244969129562378, -1.5976178646087646, 0.710693359375, 0.0478515625, -0.64208984375
549, 3434754156, -5.1903076171875, -1.640343189239502, 8.018767356872559, -0.3868158161640167, -0.5751588940620422, -1.6542986631393433, 0.712158203125, 0.048583984375, -0.642578125
550, 3434770823, -5.181351661682129, -1.661461353302002, 8.003314018249512, -0.3155228793621063, -0.5586002469062805, -1.6301076412200928, 0.712158203125, 0.048583984375, -0.6435546875
551, 3434787490, -5.173888683319092, -1.6813328266143799, 7.984691143035889, -0.22034603357315063, -0.7539353966712952, -1.460961103439331, 0.711181640625, 0.04736328125, -0.64306640625
552, 3434804157, -5.189420223236084, -1.672364354133606, 7.992956638336182, -0.11480891704559326, -0.6362322568893433, -1.4146020412445068, 0.711181640625, 0.048828125, -0.642578125
553, 3434820824, -5.1756792068481445, -1.6460237503051758, 8.002392768859863, -0.014829752966761589, -0.7287197113037109, -1.4502168893814087, 0.708740234375, 0.04638671875, -0.64111328125
554, 3434837491, -5.177933692932129, -1.64882230758667, 7.9829535484313965, 0.024658627808094025, -0.7239813804626465, -1.4084807634353638, 0.712158203125, 0.0458984375, -0.641845703125
555, 3434854158, -5.171050548553467, -1.654118299484253, 8.049833297729492, 0.03323888033628464, -0.6023082137107849, -1.4103248119354248, 0.712158203125, 0.048583984375, -0.641845703125
556, 3434870825, -5.163907527923584, -1.648603916168213, 8.018521308898926, -0.0749683752655983, -0.37540534138679504, -1.3773102760314941, 0.711181640625, 0.046875, -0.64306640625
557, 3434887492, -5.184326648712158, -1.629780888557434, 8.000733375549316, -0.10739404708147049, -0.30174317955970764, -1.3110244274139404, 0.711669921875, 0.049560546875, -0.642578125
558, 3434904159, -5.1862287521362305, -1.6474380493164062, 8.01220703125, -0.12502840161323547, -0.27566951513290405, -1.3800251483917236, 0.713134765625, 0.04833984375, -0.640869140625
559, 3434920826, -5.187497615814209, -1.6406372785568237, 8.015409469604492, -0.25178566575050354, -0.3341689109802246, -1.391806960105896, 0.712158203125, 0.046875, -0.64404296875
560, 3434937493, -5.199651718139648, -1.6369857788085938, 8.020391464233398, -0.4208166301250458, -0.3704620599746704, -1.4084038734436035, 0.711181640625, 0.04638671875, -0.642578125
561, 3434954160, -5.199230194091797, -1.634281039237976, 8.022457122802734, -0.4466353952884674, -0.36801254749298096, -1.5077179670333862, 0.712158203125, 0.046875, -0.642333984375
562, 3434970827, -5.198134422302246, -1.6568318605422974, 8.023520469665527, -0.45352408289909363, -0.3618946671485901, -1.5422431230545044, 0.714111328125, 0.048583984375, -0.640869140625
563, 3434987494, -5.173567295074463, -1.6454756259918213, 8.012971878051758, -0.37326663732528687, -0.44575056433677673, -1.523597002029419, 0.712158203125, 0.046875, -0.641845703125
564, 3435004161, -5.172078609466553, -1.654599666595459, 7.999759674072266, -0.3395731747150421, -0.4413965046405792, -1.529026985168457, 0.713623046875, 0.04736328125, -0.641845703125
565, 3435020828, -5.184083938598633, -1.6321760416030884, 8.00483512878418, -0.37306177616119385, -0.2618130147457123, -1.4408680200576782, 0.710205078125, 0.04541015625, -0.64306640625
566, 3435037495, -5.190995216369629, -1.6425769329071045, 8.003564834594727, -0.27853813767433167, -0.18163245916366577, -1.4380762577056885, 0.713134765625, 0.04736328125, -0.6435546875
567, 3435054162, -5.203003883361816, -1.6587021350860596, 7.99954891204834, -0.23520143330097198, -0.36918145418167114, -1.3841230869293213, 0.711669921875, 0.04541015625, -0.642578125
568, 3435070829, -5.185437202453613, -1.6345148086547852, 7.99561071395874, -0.07791382819414139, -0.495644211769104, -1.3827784061431885, 0.711669921875, 0.04541015625, -0.640380859375
569, 3435087496, -5.204013824462891, -1.621668815612793, 8.001118659973145, -0.14645341038703918, -0.5175685882568359, -1.4662119150161743, 0.712158203125, 0.0458984375, -0.641845703125
570, 3435104163, -5.228784084320068, -1.6334537267684937, 7.983657360076904, -0.4928780496120453, -0.5452815890312195, -1.6216681003570557, 0.712158203125, 0.0439453125, -0.640869140625
571, 3435120830, -5.145843505859375, -1.6490174531936646, 8.030348777770996, -0.2911267578601837, -0.36135679483413696, -1.6738923788070679, 0.711669921875, 0.04736328125, -0.639404296875
572, 3435137497, -5.18960428237915, -1.653067708015442, 8.001429557800293, -0.3638412356376648, -0.41887012124061584, -1.5023258924484253, 0.711669921875, 0.04541015625, -0.64404296875
573, 3435154164, -5.1892781257629395, -1.6361948251724243, 7.997701168060303, -0.08590500056743622, -0.32514044642448425, -1.396225094795227, 0.712646484375, 0.046875, -0.64306640625
574, 3435170831, -5.2089972496032715, -1.6581223011016846, 8.007925033569336, -0.14190715551376343, -0.384549081325531, -1.4800297021865845, 0.71435546875, 0.04541015625, -0.64453125
575, 3435187498, -5.193141460418701, -1.6442712545394897, 8.000176429748535, -0.08826136589050293, -0.35665687918663025, -1.3634408712387085, 0.711181640625, 0.0439453125, -0.641357421875
576, 3435204165, -5.19827127456665, -1.652941107749939, 8.023609161376953, 0.015566116198897362, -0.4075876772403717, -1.3294013738632202, 0.711669921875, 0.0458984375, -0.640380859375
577, 3435220832, -5.198677062988281, -1.629180908203125, 8.045536994934082, 0.005935742519795895, -0.343107670545578, -1.2831448316574097, 0.712890625, 0.0458984375, -0.64306640625
578, 3435237499, -5.191515922546387, -1.6205744743347168, 7.999260902404785, -0.059165339916944504, -0.2903840243816376, -1.3068495988845825, 0.71435546875, 0.0458984375, -0.640380859375
579, 3435254166, -5.191988468170166, -1.635854959487915, 8.019928932189941, -0.027239108458161354, -0.1654324233531952, -1.4031533002853394, 0.711181640625, 0.04638671875, -0.639404296875
580, 3435270833, -5.1888580322265625, -1.6320197582244873, 7.986633777618408, 0.0218796506524086, -0.09375528991222382, -1.316774606704712, 0.712646484375, 0.04736328125, -0.642333984375
581, 3435287500, -5.207481861114502, -1.6180442571640015, 8.002184867858887, 0.015514891594648361, -0.23103934526443481, -1.2053463459014893, 0.71435546875, 0.04443359375, -0.641357421875
582, 3435304167, -5.214101791381836, -1.6231297254562378, 7.994345664978027, 0.04833757132291794, -0.38428014516830444, -1.2116471529006958, 0.712158203125, 0.0439453125, -0.640380859375
583, 3435320834, -5.208550453186035, -1.6045981645584106, 8.005451202392578, -0.08858152478933334, -0.3996477723121643, -1.2737836837768555, 0.710693359375, 0.041748046875, -0.641845703125
584, 3435337501, -5.205284118652344, -1.6248122453689575, 8.015335083007812, -0.20305749773979187, -0.4286156892776489, -1.4090826511383057, 0.712158203125, 0.04541015625, -0.639404296875
585, 3435354168, -5.2015461921691895, -1.6217164993286133, 8.002814292907715, -0.21765673160552979, -0.5027901530265808, -1.5187947750091553, 0.71337890625, 0.04541015625, -0.641357421875
586, 3435370835, -5.202483177185059, -1.6404306888580322, 7.993413925170898, -0.1391409933567047, -0.38876232504844666, -1.4120538234710693, 0.710693359375, 0.043701171875, -0.638916015625
587, 3435387502, -5.213704586029053, -1.6438877582550049, 7.98777961730957, 0.0017480666283518076, -0.46465274691581726, -1.2189853191375732, 0.712646484375, 0.04638671875, -0.640380859375
588, 3435404169, -5.2131028175354, -1.6259576082229614, 7.991694927215576, 0.14496147632598877, -0.5297346711158752, -1.198828101158142, 0.71337890625, 0.043212890625, -0.640380859375
589, 3435420836, -5.184108734130859, -1.6120190620422363, 8.009123802185059, 0.05326801538467407, -0.5022522211074829, -1.1013845205307007, 0.711181640625, 0.043212890625, -0.642578125
590, 3435437503, -5.208491325378418, -1.6286588907241821, 8.005159378051758, -0.03232322633266449, -0.4619121849536896, -1.2729127407073975, 0.71484375, 0.04345703125, -0.640380859375
591, 3435454170, -5.206363677978516, -1.6177878379821777, 8.00806713104248, -0.19383691251277924, -0.33533427119255066, -1.2993451356887817, 0.71240234375, 0.0439453125, -0.641357421875
592, 3435470837, -5.220747470855713, -1.6077250242233276, 8.003561973571777, -0.17219416797161102, -0.44963088631629944, -1.3829447031021118, 0.71240234375, 0.0439453125, -0.642333984375
593, 3435487504, -5.181515216827393, -1.6138129234313965, 8.019652366638184, -0.34073853492736816, -0.3643662631511688, -1.3468693494796753, 0.7138671875, 0.04443359375, -0.640869140625
594, 3435504171, -5.196860313415527, -1.6238933801651, 8.012462615966797, -0.0578334741294384, -0.2708927094936371, -1.2696726322174072, 0.713134765625, 0.044921875, -0.638427734375
595, 3435520838, -5.22721004486084, -1.6115901470184326, 7.997372150421143, 0.06469127535820007, -0.27946019172668457, -1.1683872938156128, 0.712646484375, 0.04541015625, -0.639404296875
596, 3435537505, -5.222675323486328, -1.6220506429672241, 7.985635757446289, 0.28297552466392517, -0.442280113697052, -1.1174180507659912, 0.7158203125, 0.042236328125, -0.641357421875
597, 3435554172, -5.20016622543335, -1.62320876121521, 8.006730079650879, 0.5695815682411194, -0.5037761926651001, -1.005605936050415, 0.7119140625, 0.041748046875, -0.642333984375
598, 3435570839, -5.219834327697754, -1.6025395393371582, 7.976629734039307, 0.62900310754776, -0.4324575960636139, -0.9634730219841003, 0.71435546875, 0.042236328125, -0.639892578125
599, 3435587506, -5.213931560516357, -1.5958857536315918, 8.011781692504883, 0.6388511061668396, -0.5192846655845642, -0.9810815453529358, 0.7119140625, 0.040771484375, -0.638671875
600, 3435604173, -5.242331027984619, -1.5820029973983765, 8.016613960266113, 0.4103730618953705, -0.44978466629981995, -1.1756484508514404, 0.711181640625, 0.043701171875, -0.639404296875
601, 3435620840, -5.239986419677734, -1.5880423784255981, 8.013032913208008, 0.24666951596736908, -0.6109269857406616, -1.353285551071167, 0.71435546875, 0.040771484375, -0.641357421875
602, 3435637507, -5.258542060852051, -1.5595299005508423, 7.996408939361572, -0.09014390408992767, -0.5316940546035767, -1.6900156736373901, 0.7138671875, 0.039794921875, -0.6396484375
603, 3435654174, -5.289466857910156, -1.570590615272522, 8.024762153625488, -0.28205984830856323, -0.49972936511039734, -2.059709310531616, 0.71533203125, 0.038818359375, -0.640625
604, 3435670841, -5.286861896514893, -1.5744102001190186, 8.033758163452148, -0.5949061512947083, -0.6957178115844727, -2.529317855834961, 0.71337890625, 0.041748046875, -0.641357421875
605, 3435687508, -5.255456447601318, -1.590189814567566, 7.993467330932617, -0.19799897074699402, -0.9659444689750671, -2.6262876987457275, 0.712890625, 0.040771484375, -0.640380859375
606, 3435704175, -5.222833156585693, -1.6160833835601807, 8.003317832946777, -0.5824071168899536, -0.7318700551986694, -3.0352582931518555, 0.71435546875, 0.040771484375, -0.64013671875
607, 3435720842, -5.1885528564453125, -1.63950777053833, 8.059679985046387, -0.5880547761917114, -0.496963232755661, -3.0396127700805664, 0.71484375, 0.039794921875, -0.63818359375
608, 3435737509, -5.1202239990234375, -1.7250291109085083, 8.026716232299805, -0.1976788192987442, 0.19553378224372864, -2.501810312271118, 0.712890625, 0.042724609375, -0.638916015625
609, 3435754176, -5.121840000152588, -1.664053201675415, 8.020986557006836, 0.22296494245529175, 1.1074738502502441, -1.7813760042190552, 0.71484375, 0.042236328125, -0.6376953125
610, 3435770843, -5.149871349334717, -1.696277141571045, 8.015796661376953, 0.9780784845352173, 2.100081205368042, -1.1030492782592773, 0.7138671875, 0.040771484375, -0.63818359375
611, 3435787510, -5.148167133331299, -1.7073721885681152, 8.048896789550781, 1.0659685134887695, 3.0879247188568115, -0.4225071370601654, 0.71240234375, 0.041259765625, -0.639892578125
612, 3435804177, -5.076197147369385, -1.7054214477539062, 8.063098907470703, 1.4263395071029663, 4.430120944976807, 0.8026573061943054, 0.71484375, 0.040283203125, -0.638671875
613, 3435820844, -5.011402130126953, -1.8199292421340942, 8.174052238464355, 1.9577134847640991, 7.138279914855957, 2.828519582748413, 0.7158203125, 0.040771484375, -0.635009765625
614, 3435837511, -5.152657985687256, -1.7720146179199219, 8.114339828491211, 1.4390310049057007, 10.653203964233398, 5.5382304191589355, 0.7177734375, 0.038818359375, -0.633056640625
615, 3435854178, -5.08564567565918, -1.6721965074539185, 8.069640159606934, 1.6177186965942383, 12.576929092407227, 8.37197208404541, 0.720947265625, 0.03662109375, -0.63232421875
616, 3435870845, -5.257282257080078, -1.243099331855774, 8.173742294311523, 0.7523802518844604, 15.359075546264648, 11.241355895996094, 0.7236328125, 0.0322265625, -0.628173828125
617, 3435887512, -5.0668511390686035, -1.677892804145813, 8.370022773742676, -9.059030532836914, 18.1846866607666, 19.358789443969727, 0.72802734375, 0.030029296875, -0.623779296875
618, 3435904179, -4.949835300445557, -1.7278656959533691, 8.396947860717773, -9.557204246520996, 23.80154800415039, 24.825969696044922, 0.732666015625, 0.026611328125, -0.618408203125
619, 3435920846, -4.996130466461182, -1.7663646936416626, 8.417217254638672, -11.247828483581543, 30.658294677734375, 28.57002830505371, 0.7392578125, 0.0224609375, -0.614013671875
620, 3435937513, -5.051116943359375, -1.8518319129943848, 8.401999473571777, -6.493065357208252, 41.77433776855469, 33.613983154296875, 0.7451171875, 0.015380859375, -0.603515625
621, 3435954180, -5.294215679168701, -1.7740346193313599, 8.389654159545898, -10.463434219360352, 50.81378173828125, 36.30018997192383, 0.752197265625, 0.006591796875, -0.594482421875
622, 3435970847, -5.695983409881592, -1.9261730909347534, 8.540674209594727, -12.119194984436035, 61.24666976928711, 37.93751525878906, 0.762939453125, 7.32421875E-4, -0.580322265625
623, 3435987514, -5.676630973815918, -2.1872475147247314, 8.837085723876953, -8.76759147644043, 69.2487564086914, 39.254119873046875, 0.776123046875, -0.005859375, -0.5654296875
624, 3436004181, -5.109330654144287, -2.525716543197632, 9.216635704040527, 0.34031766653060913, 73.12095642089844, 38.372806549072266, 0.790771484375, -0.015625, -0.55029296875
625, 3436020848, -3.054908037185669, -2.8686563968658447, 10.644662857055664, 7.812983512878418, 69.07728576660156, 35.232139587402344, 0.801025390625, -0.026123046875, -0.534423828125
626, 3436037515, -0.547804594039917, -3.6731317043304443, 11.552469253540039, 10.29599380493164, 59.817806243896484, 25.171525955200195, 0.809814453125, -0.0341796875, -0.517333984375
627, 3436054182, 0.3114757835865021, -4.187854290008545, 12.49592113494873, 7.508223056793213, 41.16762924194336, 5.124639987945557, 0.818359375, -0.039306640625, -0.506103515625
628, 3436070849, 1.4244885444641113, -4.37039041519165, 12.644797325134277, 8.311284065246582, 19.207761764526367, -16.80562400817871, 0.82275390625, -0.037109375, -0.50048828125
629, 3436087516, 1.7683405876159668, -3.335977554321289, 12.922285079956055, 10.540075302124023, 0.5560605525970459, -33.78054428100586, 0.82421875, -0.031982421875, -0.50048828125
630, 3436104183, 1.3803638219833374, -2.37349009513855, 13.134920120239258, 9.037840843200684, -18.81001853942871, -43.835289001464844, 0.8232421875, -0.0263671875, -0.50048828125
631, 3436120850, 0.5231966972351074, -1.559738039970398, 13.276524543762207, 6.876119136810303, -38.62358093261719, -46.66471862792969, 0.8173828125, -0.01416015625, -0.5126953125
632, 3436137517, -0.5060628652572632, -0.914605975151062, 13.38267993927002, 2.5751428604125977, -58.15658187866211, -43.92097091674805, 0.809326171875, -0.006103515625, -0.524169921875
633, 3436154184, -1.5250285863876343, -0.7580671310424805, 13.21199893951416, -2.214729070663452, -78.14356994628906, -36.675601959228516, 0.797607421875, 0.002197265625, -0.543212890625
634, 3436170851, -2.1747727394104004, -0.7064689993858337, 12.665162086486816, -5.484057426452637, -94.3469467163086, -26.480758666992188, 0.784912109375, 0.01171875, -0.561767578125
635, 3436187518, -2.777193307876587, -0.8884227871894836, 11.923090934753418, -10.20720100402832, -103.4608154296875, -17.478944778442383, 0.763671875, 0.01611328125, -0.58251953125
636, 3436204185, -3.9657695293426514, -1.5032505989074707, 11.84594440460205, -14.033101081848145, -107.00209045410156, -11.399992942810059, 0.74609375, 0.02099609375, -0.609375
637, 3436220852, -5.288871765136719, -2.0816540718078613, 11.661252975463867, -17.135848999023438, -113.39339447021484, -9.762672424316406, 0.729248046875, 0.02587890625, -0.6328125
638, 3436237519, -5.632379531860352, -2.4496474266052246, 10.962172508239746, -16.086776733398438, -118.90493774414062, -10.282244682312012, 0.701904296875, 0.02978515625, -0.657470703125
639, 3436254186, -5.846985816955566, -2.407007932662964, 10.446259498596191, -18.08315086364746, -118.76681518554688, -14.182456970214844, 0.68017578125, 0.037353515625, -0.680908203125
640, 3436270853, -6.456555366516113, -2.5155906677246094, 10.163189888000488, -23.36778450012207, -118.83464813232422, -21.306087493896484, 0.65283203125, 0.044189453125, -0.704345703125
641, 3436287520, -6.623678207397461, -2.5358738899230957, 9.56204891204834, -23.95285415649414, -120.13607788085938, -27.387372970581055, 0.62744140625, 0.051513671875, -0.725341796875
642, 3436304187, -6.204748630523682, -2.031407356262207, 8.700462341308594, -21.49517059326172, -117.47099304199219, -30.176115036010742, 0.6015625, 0.06201171875, -0.747802734375
643, 3436320854, -5.985019683837891, -1.474069356918335, 8.020357131958008, -21.401586532592773, -109.08039855957031, -29.412933349609375, 0.576171875, 0.07373046875, -0.765625
644, 3436337521, -6.587929725646973, -1.1014728546142578, 7.806520938873291, -24.736528396606445, -100.9134750366211, -25.72311782836914, 0.548583984375, 0.08251953125, -0.781982421875
645, 3436354188, -7.341739177703857, -0.9246306419372559, 7.627615928649902, -30.342811584472656, -98.76265716552734, -20.43727684020996, 0.526611328125, 0.09326171875, -0.796630859375
646, 3436370855, -7.521796226501465, -0.7501428723335266, 6.820171356201172, -35.21324157714844, -98.8661117553711, -13.00448989868164, 0.504638671875, 0.100830078125, -0.80810546875
647, 3436387522, -7.477432727813721, -0.4591837525367737, 5.7433762550354, -38.13068389892578, -94.21078491210938, -3.7771403789520264, 0.481201171875, 0.11279296875, -0.825439453125
648, 3436404189, -7.591905117034912, -0.26097890734672546, 4.655973434448242, -40.060237884521484, -84.2891616821289, 5.48612117767334, 0.457275390625, 0.123779296875, -0.835205078125
649, 3436420856, -7.803852558135986, -0.3083230257034302, 3.8044259548187256, -40.11003875732422, -70.1805648803711, 13.900437355041504, 0.43994140625, 0.1298828125, -0.845947265625
