sep=,
DeviceTag:,A,,,,,,,,,,,,,,,,,
FirmwareVersion:,2.2.1,,,,,,,,,,,,,,,,,
AppVersion:,2023.6.1,,,,,,,,,,,,,,,,,
SyncStatus:,Synced,,,,,,,,,,,,,,,,,
OutputRate:,60Hz,,,,,,,,,,,,,,,,,
FilterProfile:,General,,,,,,,,,,,,,,,,,
Measurement Mode:,Inertial Mode - Rate quantities (with mag),,,,,,,,,,,,,,,,,
StartTime:,2023-12-05 14:47:38.846 +0200,,,,,,,,,,,,,,,,,
 2023,,,,,,,,,,,,,,,,,,,

PacketCounter,SampleTimeFine,Acc_X,Acc_Y,Acc_Z,Gyr_X,Gyr_Y,Gyr_Z,Mag_X,Mag_Y,Mag_Z
1, 2216635766, -6.706425189971924, 1.7905486822128296, 7.047637462615967, -2.634957790374756, -1.5014677047729492, -2.4287755489349365, 1.1064453125, -0.578125, 0.080810546875
2, 2216652433, -6.706826686859131, 1.7996551990509033, 7.06019401550293, -2.51328444480896, -1.397377610206604, -2.3751296997070312, 1.10498046875, -0.57666015625, 0.08203125
3, 2216669100, -6.717898845672607, 1.7991321086883545, 7.038990020751953, -2.4892983436584473, -1.404843807220459, -2.4524033069610596, 1.10400390625, -0.57666015625, 0.081787109375
4, 2216685767, -6.715973854064941, 1.7959684133529663, 7.043564796447754, -2.622403860092163, -1.498637318611145, -2.3634748458862305, 1.10400390625, -0.57666015625, 0.080322265625
5, 2216702434, -6.721053600311279, 1.802109956741333, 7.018047332763672, -2.5330066680908203, -1.5527315139770508, -2.337991237640381, 1.10546875, -0.57666015625, 0.08154296875
6, 2216719101, -6.729524612426758, 1.799555778503418, 7.042228698730469, -2.5426368713378906, -1.6305173635482788, -2.3716464042663574, 1.10546875, -0.5771484375, 0.079833984375
7, 2216735768, -6.719759464263916, 1.8126624822616577, 7.043017864227295, -2.5602715015411377, -1.7357217073440552, -2.3428196907043457, 1.103515625, -0.5771484375, 0.082275390625
8, 2216752435, -6.707129955291748, 1.7962884902954102, 7.0450119972229, -2.6203970909118652, -1.7696199417114258, -2.262075185775757, 1.103515625, -0.57861328125, 0.08251953125
9, 2216769102, -6.693737983703613, 1.810084342956543, 7.057391166687012, -2.52579665184021, -1.6865578889846802, -2.3752453327178955, 1.10400390625, -0.5791015625, 0.08203125
10, 2216785769, -6.703007221221924, 1.785857081413269, 7.0438666343688965, -2.5223774909973145, -1.6290318965911865, -2.385272741317749, 1.10302734375, -0.578125, 0.081787109375
11, 2216802436, -6.698918342590332, 1.8091827630996704, 7.043451309204102, -2.5429441928863525, -1.5256460905075073, -2.326939344406128, 1.10400390625, -0.57666015625, 0.081787109375
12, 2216819103, -6.72500467300415, 1.7976057529449463, 7.032943248748779, -2.6192448139190674, -1.5593911409378052, -2.394531726837158, 1.1044921875, -0.57861328125, 0.080810546875
13, 2216835770, -6.695657730102539, 1.7946375608444214, 7.020510196685791, -2.7200050354003906, -1.5524241924285889, -2.4675917625427246, 1.10693359375, -0.57763671875, 0.080810546875
14, 2216852437, -6.702755928039551, 1.7883307933807373, 7.0322794914245605, -2.7147161960601807, -1.506142258644104, -2.578559160232544, 1.10595703125, -0.578125, 0.080810546875
15, 2216869104, -6.7177815437316895, 1.7787243127822876, 7.028478145599365, -2.572911262512207, -1.539950966835022, -2.4665801525115967, 1.10595703125, -0.576416015625, 0.08154296875
16, 2216885771, -6.705676555633545, 1.7796214818954468, 7.029700756072998, -2.4798858165740967, -1.62501060962677, -2.257157802581787, 1.10302734375, -0.57763671875, 0.0830078125
17, 2216902438, -6.709635257720947, 1.7810838222503662, 7.04511022567749, -2.5604374408721924, -1.5008273124694824, -2.3072304725646973, 1.10595703125, -0.576416015625, 0.080810546875
18, 2216919105, -6.702739715576172, 1.789646863937378, 7.0439581871032715, -2.5056519508361816, -1.5849266052246094, -2.305898427963257, 1.10546875, -0.5771484375, 0.08251953125
19, 2216935772, -6.706760883331299, 1.7712862491607666, 7.045578479766846, -2.5089685916900635, -1.6244597434997559, -2.261063575744629, 1.10693359375, -0.578125, 0.080810546875
20, 2216952439, -6.710687160491943, 1.7852864265441895, 7.032882213592529, -2.4491629600524902, -1.5713646411895752, -2.1155576705932617, 1.10400390625, -0.57666015625, 0.081787109375
21, 2216969106, -6.707713603973389, 1.79768967628479, 7.047477722167969, -2.3778958320617676, -1.6168144941329956, -2.1609818935394287, 1.1025390625, -0.57861328125, 0.081298828125
22, 2216985773, -6.714047908782959, 1.77986478805542, 7.053953647613525, -2.384542226791382, -1.7365025281906128, -2.0938379764556885, 1.10302734375, -0.57666015625, 0.08251953125
23, 2217002440, -6.718736171722412, 1.8001728057861328, 7.048985481262207, -2.369277238845825, -1.6910914182662964, -2.0377848148345947, 1.10546875, -0.5771484375, 0.08203125
24, 2217019107, -6.714257717132568, 1.7797317504882812, 7.021152496337891, -2.4254205226898193, -1.69538152217865, -1.9639818668365479, 1.10595703125, -0.578125, 0.0830078125
25, 2217035774, -6.7044878005981445, 1.813784122467041, 7.04644775390625, -2.3868863582611084, -1.6326943635940552, -1.9975347518920898, 1.10693359375, -0.578125, 0.080810546875
26, 2217052441, -6.706583499908447, 1.799818754196167, 7.046566486358643, -2.39688777923584, -1.7167425155639648, -2.0162572860717773, 1.10498046875, -0.5771484375, 0.079833984375
27, 2217069108, -6.7095794677734375, 1.795241117477417, 7.038336277008057, -2.352283000946045, -1.6104751825332642, -2.0314838886260986, 1.103515625, -0.5771484375, 0.081298828125
28, 2217085775, -6.693870544433594, 1.8107895851135254, 7.033222675323486, -2.4556689262390137, -1.6874799728393555, -2.117671251296997, 1.10302734375, -0.57763671875, 0.079345703125
29, 2217102442, -6.700684070587158, 1.8116801977157593, 7.033693313598633, -2.408310890197754, -1.7160252332687378, -2.1482651233673096, 1.1044921875, -0.5771484375, 0.080810546875
30, 2217119109, -6.698057174682617, 1.7946827411651611, 7.062954425811768, -2.46468448638916, -1.6785924434661865, -2.269503116607666, 1.10693359375, -0.5771484375, 0.079345703125
31, 2217135776, -6.695084571838379, 1.8003478050231934, 7.042413711547852, -2.3805596828460693, -1.5283995866775513, -2.2603721618652344, 1.10595703125, -0.57958984375, 0.080322265625
32, 2217152443, -6.710280895233154, 1.819714903831482, 7.0575385093688965, -2.431682586669922, -1.5228158235549927, -2.240867853164673, 1.10546875, -0.57666015625, 0.081298828125
33, 2217169110, -6.695337295532227, 1.8098700046539307, 7.044073581695557, -2.459536552429199, -1.4973825216293335, -2.3739516735076904, 1.10400390625, -0.57861328125, 0.081787109375
34, 2217185777, -6.705495834350586, 1.8125792741775513, 7.05160665512085, -2.554790496826172, -1.3811650276184082, -2.4590885639190674, 1.10498046875, -0.57666015625, 0.080322265625
35, 2217202444, -6.709920883178711, 1.7901777029037476, 7.032617568969727, -2.5558531284332275, -1.3984205722808838, -2.3803908824920654, 1.103515625, -0.5771484375, 0.081298828125
36, 2217219111, -6.7087721824646, 1.7916086912155151, 7.030711650848389, -2.6359825134277344, -1.3952903747558594, -2.4420814514160156, 1.107421875, -0.57861328125, 0.08056640625
37, 2217235778, -6.707047462463379, 1.7975983619689941, 7.036129951477051, -2.7755205631256104, -1.391679048538208, -2.5554563999176025, 1.10693359375, -0.57666015625, 0.080810546875
38, 2217252445, -6.699349403381348, 1.7826824188232422, 7.020351409912109, -2.7035486698150635, -1.3951495885849, -2.706264019012451, 1.103515625, -0.57666015625, 0.080322265625
39, 2217269112, -6.702669143676758, 1.7883217334747314, 7.036284923553467, -2.6925737857818604, -1.364017367362976, -2.581850051879883, 1.10302734375, -0.5791015625, 0.081787109375
40, 2217285779, -6.716035842895508, 1.7833882570266724, 7.02662467956543, -2.7324397563934326, -1.3288766145706177, -2.6299891471862793, 1.10302734375, -0.5771484375, 0.081787109375
41, 2217302446, -6.699862480163574, 1.7910953760147095, 7.045660018920898, -2.726882219314575, -1.3450639247894287, -2.702665328979492, 1.1044921875, -0.575439453125, 0.079833984375
42, 2217319113, -6.7138800621032715, 1.7876343727111816, 7.036223411560059, -2.7056617736816406, -1.3327442407608032, -2.652989625930786, 1.103515625, -0.576171875, 0.079833984375
43, 2217335780, -6.722719669342041, 1.7748924493789673, 7.041309833526611, -2.7258570194244385, -1.3186055421829224, -2.7338225841522217, 1.10693359375, -0.57666015625, 0.080322265625
44, 2217352447, -6.726866245269775, 1.780427098274231, 7.054837226867676, -2.786226749420166, -1.3891946077346802, -2.5890986919403076, 1.1064453125, -0.57666015625, 0.080322265625
45, 2217369114, -6.71199369430542, 1.7845044136047363, 7.037292003631592, -2.695071220397949, -1.5047719478607178, -2.5554306507110596, 1.103515625, -0.57861328125, 0.078369140625
46, 2217385781, -6.6996870040893555, 1.7819780111312866, 7.069058418273926, -2.6470344066619873, -1.472166895866394, -2.5151162147521973, 1.103515625, -0.57666015625, 0.081787109375
47, 2217402448, -6.7241902351379395, 1.7754042148590088, 7.03648567199707, -2.551025152206421, -1.5013397932052612, -2.4376630783081055, 1.10302734375, -0.5771484375, 0.081298828125
48, 2217419115, -6.722414970397949, 1.7838047742843628, 7.040262699127197, -2.5641133785247803, -1.5168099403381348, -2.41233229637146, 1.1044921875, -0.575439453125, 0.082275390625
49, 2217435782, -6.706741809844971, 1.7868261337280273, 7.043981075286865, -2.53902530670166, -1.4951542615890503, -2.4425809383392334, 1.1064453125, -0.575439453125, 0.08154296875
50, 2217452449, -6.697877883911133, 1.775558590888977, 7.035543918609619, -2.5268211364746094, -1.5813409090042114, -2.3496835231781006, 1.103515625, -0.575439453125, 0.079833984375
51, 2217469116, -6.709018230438232, 1.7736625671386719, 7.054840087890625, -2.5185351371765137, -1.5976178646087646, -2.423076868057251, 1.10595703125, -0.575439453125, 0.08203125
52, 2217485783, -6.723425388336182, 1.766517996788025, 7.05928897857666, -2.5418810844421387, -1.5554081201553345, -2.467668294906616, 1.103515625, -0.574951171875, 0.0849609375
53, 2217502450, -6.706409931182861, 1.7720139026641846, 7.04696798324585, -2.547964334487915, -1.5755268335342407, -2.340053081512451, 1.10498046875, -0.575927734375, 0.081787109375
54, 2217519117, -6.713505268096924, 1.7874335050582886, 7.031390190124512, -2.5257322788238525, -1.5876799821853638, -2.3487484455108643, 1.10791015625, -0.576416015625, 0.079833984375
55, 2217535784, -6.721730709075928, 1.780053734779358, 7.042994022369385, -2.488696336746216, -1.5387341976165771, -2.3203954696655273, 1.10693359375, -0.5771484375, 0.08154296875
56, 2217552451, -6.711674690246582, 1.7742552757263184, 7.043524742126465, -2.51241397857666, -1.6807438135147095, -2.2493457794189453, 1.10302734375, -0.576171875, 0.082275390625
57, 2217569118, -6.7109599113464355, 1.7652586698532104, 7.02993106842041, -2.388960599899292, -1.5426017045974731, -2.3178086280822754, 1.10400390625, -0.5771484375, 0.081298828125
58, 2217585785, -6.714254379272461, 1.7687197923660278, 7.0545501708984375, -2.432054042816162, -1.6127933263778687, -2.1683967113494873, 1.102783203125, -0.575927734375, 0.082763671875
59, 2217602452, -6.711446285247803, 1.7543375492095947, 7.039541721343994, -2.377396821975708, -1.6322078704833984, -2.066061496734619, 1.10400390625, -0.575439453125, 0.081298828125
60, 2217619119, -6.719017505645752, 1.7779959440231323, 7.048645496368408, -2.2489614486694336, -1.4706426858901978, -2.0392699241638184, 1.107421875, -0.57666015625, 0.08203125
61, 2217635786, -6.7291436195373535, 1.7886162996292114, 7.026264667510986, -2.126929998397827, -1.5363906621932983, -1.9703595638275146, 1.10498046875, -0.57763671875, 0.080322265625
62, 2217652453, -6.709477424621582, 1.7795830965042114, 7.028675079345703, -2.1475865840911865, -1.5030429363250732, -1.9596534967422485, 1.10498046875, -0.575439453125, 0.081298828125
63, 2217669120, -6.705940246582031, 1.7879163026809692, 7.0487565994262695, -2.2411625385284424, -1.4438135623931885, -2.133845567703247, 1.103515625, -0.57666015625, 0.081787109375
64, 2217685787, -6.720424652099609, 1.8031203746795654, 7.046959400177002, -2.264047384262085, -1.5701866149902344, -2.1942529678344727, 1.103271484375, -0.575927734375, 0.081298828125
65, 2217702454, -6.719815731048584, 1.7921723127365112, 7.049893379211426, -2.396888017654419, -1.525607705116272, -2.235297441482544, 1.1064453125, -0.5771484375, 0.080810546875
66, 2217719121, -6.702249050140381, 1.7595338821411133, 7.058770179748535, -2.421816825866699, -1.4811575412750244, -2.335789203643799, 1.10546875, -0.576416015625, 0.080810546875
67, 2217735788, -6.722074508666992, 1.7851860523223877, 7.056411266326904, -2.421539783477783, -1.5511435270309448, -2.3073842525482178, 1.10302734375, -0.57666015625, 0.08251953125
68, 2217752455, -6.726782321929932, 1.7800709009170532, 7.053948879241943, -2.497468948364258, -1.7007988691329956, -2.3293473720550537, 1.10546875, -0.574462890625, 0.080322265625
69, 2217769122, -6.718679428100586, 1.7663147449493408, 7.060177803039551, -2.440660238265991, -1.7032958269119263, -2.247501850128174, 1.1044921875, -0.575439453125, 0.081298828125
70, 2217785789, -6.711692810058594, 1.7863242626190186, 7.031192779541016, -2.5892910957336426, -1.702681303024292, -2.306513786315918, 1.1044921875, -0.576416015625, 0.08251953125
71, 2217802456, -6.708356857299805, 1.7645461559295654, 7.047754287719727, -2.538398027420044, -1.7304327487945557, -2.278160572052002, 1.10498046875, -0.574462890625, 0.080810546875
72, 2217819123, -6.7188401222229, 1.7916526794433594, 7.031682968139648, -2.5352094173431396, -1.8003424406051636, -2.336812973022461, 1.10546875, -0.57666015625, 0.08154296875
73, 2217835790, -6.707765579223633, 1.7885074615478516, 7.040411949157715, -2.4762232303619385, -1.8279658555984497, -2.249614715576172, 1.10400390625, -0.5771484375, 0.08349609375
74, 2217852457, -6.703221321105957, 1.7610433101654053, 7.047285556793213, -2.490553617477417, -1.6141636371612549, -2.226012706756592, 1.10400390625, -0.57666015625, 0.08349609375
75, 2217869124, -6.711627960205078, 1.7622891664505005, 7.042891502380371, -2.265507221221924, -1.457093596458435, -2.064255475997925, 1.1044921875, -0.574951171875, 0.080322265625
76, 2217885791, -6.7024617195129395, 1.7929198741912842, 7.013651371002197, -2.3683934211730957, -1.4101839065551758, -2.1311302185058594, 1.10546875, -0.575927734375, 0.08203125
77, 2217902458, -6.704656600952148, 1.7888075113296509, 7.040062427520752, -2.3166816234588623, -1.4239126443862915, -2.1668856143951416, 1.10302734375, -0.5771484375, 0.08349609375
78, 2217919125, -6.726935386657715, 1.7906733751296997, 7.059072971343994, -2.368880033493042, -1.4359118938446045, -2.224642038345337, 1.1064453125, -0.5771484375, 0.083984375
79, 2217935792, -6.716433048248291, 1.774593472480774, 7.04195499420166, -2.378267288208008, -1.5398480892181396, -2.2147297859191895, 1.10400390625, -0.574951171875, 0.079833984375
80, 2217952459, -6.7174553871154785, 1.7749104499816895, 7.062273979187012, -2.373682975769043, -1.586027979850769, -2.1210134029388428, 1.10498046875, -0.576416015625, 0.080322265625
81, 2217969126, -6.708853244781494, 1.7905466556549072, 7.050251007080078, -2.328552722930908, -1.4936814308166504, -2.1475095748901367, 1.101318359375, -0.57666015625, 0.080810546875
82, 2217985793, -6.6973748207092285, 1.7821245193481445, 7.038460731506348, -2.3309860229492188, -1.6398656368255615, -2.097961902618408, 1.102783203125, -0.575927734375, 0.081787109375
83, 2218002460, -6.699052333831787, 1.787324070930481, 7.041174411773682, -2.322188138961792, -1.485498070716858, -2.079648494720459, 1.10498046875, -0.5771484375, 0.080322265625
84, 2218019127, -6.698328018188477, 1.7655853033065796, 7.05643892288208, -2.2877261638641357, -1.4724100828170776, -2.090559482574463, 1.10595703125, -0.578125, 0.08203125
85, 2218035794, -6.702053546905518, 1.779660940170288, 7.052848815917969, -2.311495065689087, -1.4590147733688354, -2.1252267360687256, 1.10546875, -0.57666015625, 0.08203125
86, 2218052461, -6.707371711730957, 1.7753239870071411, 7.0206804275512695, -2.311302661895752, -1.5513099431991577, -2.161161184310913, 1.10498046875, -0.57666015625, 0.08251953125
87, 2218069128, -6.711531639099121, 1.7764140367507935, 7.036925315856934, -2.372760534286499, -1.59795081615448, -2.193190097808838, 1.10302734375, -0.5771484375, 0.08251953125
88, 2218085795, -6.727566242218018, 1.77524995803833, 7.054534435272217, -2.222874641418457, -1.42345130443573, -2.1094231605529785, 1.102783203125, -0.575927734375, 0.079345703125
89, 2218102462, -6.714970111846924, 1.7836793661117554, 7.043983459472656, -2.2066237926483154, -1.4204803705215454, -2.057007312774658, 1.10302734375, -0.576171875, 0.082275390625
90, 2218119129, -6.714820861816406, 1.7950196266174316, 7.047274112701416, -2.2934889793395996, -1.5335475206375122, -2.0843613147735596, 1.10400390625, -0.57763671875, 0.079345703125
91, 2218135796, -6.70651912689209, 1.764334797859192, 7.06569242477417, -2.2203903198242188, -1.66824471950531, -2.092979907989502, 1.10693359375, -0.575927734375, 0.08154296875
92, 2218152463, -6.707664489746094, 1.7904094457626343, 7.049302101135254, -2.1522610187530518, -1.5400148630142212, -1.990170955657959, 1.10546875, -0.5771484375, 0.079833984375
93, 2218169130, -6.712297439575195, 1.8071303367614746, 7.036001205444336, -2.225961208343506, -1.5648590326309204, -2.0106992721557617, 1.10302734375, -0.578125, 0.082275390625
94, 2218185797, -6.705180644989014, 1.7928695678710938, 7.03873348236084, -2.2692596912384033, -1.5923157930374146, -2.0997419357299805, 1.10302734375, -0.578125, 0.0830078125
95, 2218202464, -6.716837406158447, 1.790780782699585, 7.051915645599365, -2.254404306411743, -1.6817684173583984, -2.1417086124420166, 1.1044921875, -0.57666015625, 0.081298828125
96, 2218219131, -6.7046380043029785, 1.7889412641525269, 7.026522159576416, -2.2726402282714844, -1.628557801246643, -2.0061912536621094, 1.10400390625, -0.576171875, 0.078857421875
97, 2218235798, -6.7243452072143555, 1.7890821695327759, 7.034445285797119, -2.2853314876556396, -1.5610555410385132, -2.0796101093292236, 1.10595703125, -0.57861328125, 0.080810546875
98, 2218252465, -6.717591285705566, 1.7869096994400024, 7.0452399253845215, -2.4140186309814453, -1.605448603630066, -2.247354030609131, 1.10595703125, -0.575927734375, 0.08251953125
99, 2218269132, -6.704902648925781, 1.784896731376648, 7.05888557434082, -2.354203939437866, -1.5844271183013916, -2.147855281829834, 1.10302734375, -0.578125, 0.080322265625
100, 2218285799, -6.715597629547119, 1.7873210906982422, 7.0522260665893555, -2.2028329372406006, -1.5142099857330322, -2.047952890396118, 1.102783203125, -0.57666015625, 0.081298828125
101, 2218302466, -6.713362693786621, 1.7990995645523071, 7.047001361846924, -2.2122840881347656, -1.5035550594329834, -2.157229423522949, 1.10302734375, -0.57666015625, 0.079833984375
102, 2218319133, -6.709277629852295, 1.7969682216644287, 7.046302795410156, -2.2770841121673584, -1.5874110460281372, -2.1149044036865234, 1.107421875, -0.575927734375, 0.079345703125
103, 2218335800, -6.693763256072998, 1.8031988143920898, 7.035253524780273, -2.162198543548584, -1.5252106189727783, -2.010340690612793, 1.10546875, -0.57763671875, 0.078857421875
104, 2218352467, -6.716973304748535, 1.7795213460922241, 7.05175256729126, -2.0020551681518555, -1.3096543550491333, -1.966005563735962, 1.10546875, -0.576416015625, 0.0830078125
105, 2218369134, -6.711858749389648, 1.7757012844085693, 7.028059005737305, -2.0036561489105225, -1.3471770286560059, -1.9116166830062866, 1.10400390625, -0.5771484375, 0.081787109375
106, 2218385801, -6.709612846374512, 1.8030558824539185, 7.040116786956787, -2.177757978439331, -1.512557864189148, -1.992296576499939, 1.1044921875, -0.578125, 0.08251953125
107, 2218402468, -6.718996047973633, 1.7937477827072144, 7.035943031311035, -2.319883108139038, -1.6881331205368042, -2.0962586402893066, 1.10546875, -0.57861328125, 0.08203125
108, 2218419135, -6.707120895385742, 1.8183715343475342, 7.033076286315918, -2.2266781330108643, -1.5169888734817505, -2.041818618774414, 1.10546875, -0.578125, 0.080322265625
109, 2218435802, -6.708428382873535, 1.8024240732192993, 7.055155277252197, -2.2041397094726562, -1.4668521881103516, -2.1054794788360596, 1.10498046875, -0.57861328125, 0.08154296875
110, 2218452469, -6.712522506713867, 1.7885911464691162, 7.0346150398254395, -2.220953941345215, -1.4595011472702026, -2.1217432022094727, 1.10546875, -0.57666015625, 0.080322265625
111, 2218469136, -6.693715572357178, 1.8100472688674927, 7.039252758026123, -2.286830186843872, -1.646947979927063, -2.036670684814453, 1.1025390625, -0.5771484375, 0.082275390625
112, 2218485803, -6.705332279205322, 1.7907792329788208, 7.06118631362915, -2.341794729232788, -1.5577387809753418, -2.0964505672454834, 1.1044921875, -0.5771484375, 0.080810546875
113, 2218502470, -6.699050426483154, 1.783751368522644, 7.040778160095215, -2.177565813064575, -1.3990424871444702, -1.998584508895874, 1.10400390625, -0.578125, 0.080322265625
114, 2218519137, -6.704562187194824, 1.8017394542694092, 7.041824817657471, -2.172635793685913, -1.440791130065918, -1.9923352003097534, 1.10693359375, -0.578125, 0.08203125
115, 2218535804, -6.7241692543029785, 1.8036702871322632, 7.023314952850342, -2.199131727218628, -1.3971725702285767, -1.9607800245285034, 1.1044921875, -0.5791015625, 0.08154296875
116, 2218552471, -6.703608989715576, 1.8091517686843872, 7.058462142944336, -2.257208824157715, -1.5941345691680908, -1.9877632856369019, 1.10400390625, -0.5771484375, 0.080810546875
117, 2218569138, -6.709462642669678, 1.7965689897537231, 7.039467811584473, -2.3484413623809814, -1.5749119520187378, -2.0658819675445557, 1.10302734375, -0.57666015625, 0.080322265625
118, 2218585805, -6.722631454467773, 1.7896934747695923, 7.04128885269165, -2.3785746097564697, -1.6355116367340088, -2.0457377433776855, 1.1044921875, -0.57763671875, 0.081787109375
119, 2218602472, -6.705997467041016, 1.8029723167419434, 7.022435188293457, -2.3970799446105957, -1.6724454164505005, -1.8953783512115479, 1.1044921875, -0.57666015625, 0.08203125
120, 2218619139, -6.7109270095825195, 1.8155169486999512, 7.037320613861084, -2.3335087299346924, -1.7261805534362793, -1.96480131149292, 1.1044921875, -0.580078125, 0.080322265625
121, 2218635806, -6.713564395904541, 1.8125293254852295, 7.03051233291626, -2.3742587566375732, -1.6431059837341309, -2.045071601867676, 1.10595703125, -0.5771484375, 0.079833984375
122, 2218652473, -6.7034173011779785, 1.8101664781570435, 7.0477070808410645, -2.4093353748321533, -1.6407239437103271, -2.11489200592041, 1.10498046875, -0.57958984375, 0.08203125
123, 2218669140, -6.696252822875977, 1.796836018562317, 7.04383659362793, -2.34183931350708, -1.5108225345611572, -2.061572551727295, 1.103515625, -0.580078125, 0.08447265625
124, 2218685807, -6.700468063354492, 1.8269786834716797, 7.023714542388916, -2.197671890258789, -1.4303795099258423, -2.040576696395874, 1.10302734375, -0.57958984375, 0.080810546875
125, 2218702474, -6.699533939361572, 1.8091633319854736, 7.047573566436768, -2.21460223197937, -1.5105088949203491, -1.9690148830413818, 1.1044921875, -0.5791015625, 0.079833984375
126, 2218719141, -6.702413082122803, 1.8321770429611206, 7.053229331970215, -2.2019238471984863, -1.51125168800354, -2.067098617553711, 1.1044921875, -0.581787109375, 0.079345703125
127, 2218735808, -6.703067779541016, 1.8158915042877197, 7.033956050872803, -2.2834746837615967, -1.5945827960968018, -2.1211671829223633, 1.103515625, -0.580078125, 0.080810546875
128, 2218752475, -6.689324855804443, 1.817284107208252, 7.058000564575195, -2.3174753189086914, -1.474587082862854, -2.157024621963501, 1.1044921875, -0.58056640625, 0.079833984375
129, 2218769142, -6.7037458419799805, 1.8054038286209106, 7.043544292449951, -2.2405412197113037, -1.5296266078948975, -2.2119975090026855, 1.10302734375, -0.57763671875, 0.081787109375
130, 2218785809, -6.710586071014404, 1.8225071430206299, 7.0424909591674805, -2.4085288047790527, -1.4296497106552124, -2.3102142810821533, 1.1044921875, -0.57763671875, 0.081787109375
131, 2218802476, -6.713765621185303, 1.8073843717575073, 7.03306770324707, -2.490386962890625, -1.444838047027588, -2.2983558177948, 1.1025390625, -0.5791015625, 0.079833984375
132, 2218819143, -6.718565940856934, 1.8083717823028564, 7.039943218231201, -2.390279769897461, -1.48566472530365, -2.3082165718078613, 1.10546875, -0.578125, 0.08349609375
133, 2218835810, -6.712898254394531, 1.8057399988174438, 7.048919677734375, -2.3724277019500732, -1.4686834812164307, -2.249397039413452, 1.10498046875, -0.58056640625, 0.080810546875
134, 2218852477, -6.707582473754883, 1.8128324747085571, 7.041642189025879, -2.3711726665496826, -1.5206644535064697, -2.237666368484497, 1.10546875, -0.5791015625, 0.080322265625
135, 2218869144, -6.703924179077148, 1.805100917816162, 7.0434160232543945, -2.370532512664795, -1.662558913230896, -2.1586129665374756, 1.10595703125, -0.57763671875, 0.080810546875
136, 2218885811, -6.718319416046143, 1.8043723106384277, 7.0647430419921875, -2.368009328842163, -1.6245237588882446, -2.1233949661254883, 1.10400390625, -0.580078125, 0.081298828125
137, 2218902478, -6.692384719848633, 1.8102893829345703, 7.042880535125732, -2.219417095184326, -1.608925700187683, -2.0495920181274414, 1.1044921875, -0.580078125, 0.080810546875
138, 2218919145, -6.705613136291504, 1.822487711906433, 7.047686576843262, -2.2941806316375732, -1.484908938407898, -2.046787738800049, 1.1044921875, -0.58056640625, 0.081298828125
139, 2218935812, -6.7087836265563965, 1.817317008972168, 7.055690765380859, -2.2743308544158936, -1.4834619760513306, -2.0678670406341553, 1.10595703125, -0.57958984375, 0.080322265625
140, 2218952479, -6.699525356292725, 1.7973642349243164, 7.032943248748779, -2.213897705078125, -1.529167652130127, -2.1166203022003174, 1.1025390625, -0.5791015625, 0.081787109375
141, 2218969146, -6.702357292175293, 1.7992844581604004, 7.040386199951172, -2.0559957027435303, -1.4073795080184937, -1.8405797481536865, 1.1044921875, -0.57861328125, 0.08251953125
142, 2218985813, -6.6977219581604, 1.84235680103302, 7.057912826538086, -2.120065450668335, -1.5358400344848633, -1.9756994247436523, 1.10205078125, -0.5791015625, 0.082275390625
143, 2219002480, -6.6944193840026855, 1.8331542015075684, 7.032040119171143, -2.3189101219177246, -1.570160984992981, -2.035876750946045, 1.10400390625, -0.58154296875, 0.08154296875
144, 2219019147, -6.698635101318359, 1.8232049942016602, 7.053338050842285, -2.2707834243774414, -1.6224875450134277, -2.014848470687866, 1.1064453125, -0.580078125, 0.080810546875
145, 2219035814, -6.707711219787598, 1.8333258628845215, 7.049517631530762, -2.352731466293335, -1.6177622079849243, -2.0454049110412598, 1.1064453125, -0.5810546875, 0.08251953125
146, 2219052481, -6.694236755371094, 1.8236581087112427, 7.040624141693115, -2.3309860229492188, -1.6761335134506226, -2.103839874267578, 1.10546875, -0.57958984375, 0.080322265625
147, 2219069148, -6.715445041656494, 1.8377034664154053, 7.040031433105469, -2.3784337043762207, -1.7345945835113525, -2.129990577697754, 1.10400390625, -0.580078125, 0.080810546875
148, 2219085815, -6.7004194259643555, 1.826858401298523, 7.033934593200684, -2.327950954437256, -1.6476649045944214, -2.143155336380005, 1.103515625, -0.5810546875, 0.08251953125
149, 2219102482, -6.717032432556152, 1.8033772706985474, 7.04376745223999, -2.415316104888916, -1.7253227233886719, -2.2008352279663086, 1.10498046875, -0.57958984375, 0.080810546875
150, 2219119149, -6.713110446929932, 1.8187720775604248, 7.046570777893066, -2.3665366172790527, -1.6112819910049438, -2.2153189182281494, 1.10400390625, -0.57958984375, 0.08203125
151, 2219135816, -6.697288513183594, 1.825117826461792, 7.0550408363342285, -2.3219451904296875, -1.5383116006851196, -2.1744158267974854, 1.10498046875, -0.5791015625, 0.081298828125
152, 2219152483, -6.697119235992432, 1.8340173959732056, 7.045708179473877, -2.3368771076202393, -1.5619906187057495, -2.219827175140381, 1.10546875, -0.582275390625, 0.0810546875
153, 2219169150, -6.697273254394531, 1.8297284841537476, 7.0441460609436035, -2.3759751319885254, -1.6148936748504639, -2.15136456489563, 1.10498046875, -0.580078125, 0.080322265625
154, 2219185817, -6.695630073547363, 1.8041672706604004, 7.069016456604004, -2.301685333251953, -1.6932170391082764, -2.117875576019287, 1.10400390625, -0.580078125, 0.0830078125
155, 2219202484, -6.7137885093688965, 1.8287054300308228, 7.036002159118652, -2.3075249195098877, -1.6858534812927246, -1.9351290464401245, 1.10400390625, -0.58154296875, 0.080322265625
156, 2219219151, -6.705358982086182, 1.8497868776321411, 7.045807838439941, -2.3358912467956543, -1.7581326961517334, -2.039424180984497, 1.10546875, -0.5810546875, 0.079345703125
157, 2219235818, -6.6986260414123535, 1.8253452777862549, 7.042309761047363, -2.4552717208862305, -1.834881067276001, -2.0837597846984863, 1.10546875, -0.57958984375, 0.08154296875
158, 2219252485, -6.710597515106201, 1.8044599294662476, 7.0554704666137695, -2.4264450073242188, -1.7197519540786743, -2.122844696044922, 1.10498046875, -0.5791015625, 0.080322265625
159, 2219269152, -6.697176456451416, 1.8152881860733032, 7.028528690338135, -2.1754658222198486, -1.6017028093338013, -1.897619366645813, 1.10302734375, -0.582275390625, 0.080322265625
160, 2219285819, -6.702226161956787, 1.8195624351501465, 7.0572943687438965, -2.0914816856384277, -1.6107057332992554, -1.8583933115005493, 1.10205078125, -0.58056640625, 0.081787109375
161, 2219302486, -6.677530765533447, 1.8558404445648193, 7.053487777709961, -2.1762442588806152, -1.7002482414245605, -1.7848546504974365, 1.10498046875, -0.5810546875, 0.08251953125
162, 2219319153, -6.694276332855225, 1.8379558324813843, 7.057414531707764, -2.2722692489624023, -1.5408858060836792, -1.940994381904602, 1.10498046875, -0.582763671875, 0.08251953125
163, 2219335820, -6.690047740936279, 1.839302897453308, 7.032891273498535, -2.290121078491211, -1.6700632572174072, -1.928123950958252, 1.10595703125, -0.58056640625, 0.0810546875
164, 2219352487, -6.709140300750732, 1.8345662355422974, 7.038332939147949, -2.4075939655303955, -1.6428755521774292, -2.0474791526794434, 1.10595703125, -0.58154296875, 0.080322265625
165, 2219369154, -6.685540199279785, 1.8625733852386475, 7.047026634216309, -2.3970797061920166, -1.6676428318023682, -1.9776588678359985, 1.10302734375, -0.58056640625, 0.079833984375
166, 2219385821, -6.69127893447876, 1.8325210809707642, 7.052452564239502, -2.0964763164520264, -1.611653447151184, -1.9502919912338257, 1.10107421875, -0.581298828125, 0.082275390625
167, 2219402488, -6.692718029022217, 1.8541985750198364, 7.025867938995361, -1.8420783281326294, -1.283503532409668, -1.9188265800476074, 1.1025390625, -0.58056640625, 0.080810546875
168, 2219419155, -6.703921794891357, 1.809941291809082, 7.058538436889648, -1.6441688537597656, -1.1170467138290405, -1.8504664897918701, 1.1044921875, -0.581787109375, 0.08203125
169, 2219435822, -6.703010559082031, 1.829027771949768, 7.0388922691345215, -1.4901981353759766, -0.9092637300491333, -1.691616415977478, 1.1044921875, -0.581787109375, 0.079833984375
170, 2219452489, -6.712661266326904, 1.8431577682495117, 7.045431613922119, -0.9763432145118713, -0.6199041604995728, -1.569699764251709, 1.1044921875, -0.582275390625, 0.079833984375
171, 2219469156, -6.711113452911377, 1.8553849458694458, 7.035007953643799, -0.8747633099555969, -0.4954007863998413, -1.5968108177185059, 1.1044921875, -0.585205078125, 0.0810546875
172, 2219485823, -6.692342758178711, 1.8486768007278442, 7.040433883666992, -0.9346585869789124, -0.7853109240531921, -1.4462337493896484, 1.103515625, -0.583740234375, 0.08251953125
173, 2219502490, -6.7134108543396, 1.8441128730773926, 7.049415588378906, -1.1262670755386353, -0.9365410208702087, -1.2777918577194214, 1.10302734375, -0.582763671875, 0.080810546875
174, 2219519157, -6.6961140632629395, 1.878905177116394, 7.020353317260742, -1.4958072900772095, -1.1635336875915527, -1.4627028703689575, 1.10498046875, -0.582275390625, 0.0830078125
175, 2219535824, -6.701213836669922, 1.8836159706115723, 7.01613187789917, -1.7270898818969727, -1.3202450275421143, -1.6864938735961914, 1.105712890625, -0.585205078125, 0.08154296875
176, 2219552491, -6.705314636230469, 1.8944085836410522, 7.011270999908447, -1.972549319267273, -1.527029037475586, -1.975801944732666, 1.10400390625, -0.583740234375, 0.08154296875
177, 2219569158, -6.7039947509765625, 1.8805725574493408, 7.0356221199035645, -2.2182135581970215, -1.7295485734939575, -2.141016721725464, 1.10546875, -0.583740234375, 0.08203125
178, 2219585825, -6.702499866485596, 1.8437310457229614, 7.028379440307617, -2.268555164337158, -1.69618821144104, -2.011467695236206, 1.10498046875, -0.583740234375, 0.08349609375
179, 2219602492, -6.685884952545166, 1.890571117401123, 7.037250518798828, -2.123164653778076, -1.5272210836410522, -2.0295886993408203, 1.10498046875, -0.583251953125, 0.08203125
180, 2219619159, -6.705842018127441, 1.881972074508667, 7.028222560882568, -2.175926685333252, -1.4417132139205933, -2.0519487857818604, 1.106689453125, -0.585693359375, 0.08056640625
181, 2219635826, -6.690496921539307, 1.8764042854309082, 7.0278849601745605, -2.1878879070281982, -1.4584510326385498, -2.1587278842926025, 1.106689453125, -0.586181640625, 0.07958984375
182, 2219652493, -6.711604118347168, 1.8765153884887695, 7.023210048675537, -2.311353921890259, -1.4038063287734985, -2.2123093605041504, 1.106689453125, -0.585693359375, 0.08154296875
183, 2219669160, -6.71127986907959, 1.8736485242843628, 7.026268005371094, -2.3404886722564697, -1.4905823469161987, -2.272717237472534, 1.10498046875, -0.583740234375, 0.08154296875
184, 2219685827, -6.708158016204834, 1.8816168308258057, 7.026565074920654, -2.376307964324951, -1.533906102180481, -2.2893781661987305, 1.1025390625, -0.585693359375, 0.0830078125
185, 2219702494, -6.716548442840576, 1.8638306856155396, 7.002859115600586, -2.546632766723633, -1.612447738647461, -2.392059803009033, 1.106201171875, -0.584228515625, 0.08349609375
186, 2219719161, -6.699557304382324, 1.8711299896240234, 7.038212776184082, -2.5156030654907227, -1.6856744289398193, -2.3848118782043457, 1.106689453125, -0.585205078125, 0.085205078125
187, 2219735828, -6.696847438812256, 1.8488812446594238, 7.024305820465088, -2.5833740234375, -1.5440490245819092, -2.3342137336730957, 1.106201171875, -0.584716796875, 0.0830078125
188, 2219752495, -6.703062057495117, 1.871192216873169, 7.024325370788574, -2.553138256072998, -1.4340424537658691, -2.3155291080474854, 1.105224609375, -0.585693359375, 0.08349609375
189, 2219769162, -6.697097301483154, 1.8681217432022095, 7.033653736114502, -2.5286779403686523, -1.4855749607086182, -2.2072513103485107, 1.1044921875, -0.584228515625, 0.08154296875
190, 2219785829, -6.711266994476318, 1.8767064809799194, 7.0275421142578125, -2.5655860900878906, -1.6488944292068481, -2.0991404056549072, 1.10498046875, -0.583251953125, 0.08349609375
191, 2219802496, -6.7164082527160645, 1.8647571802139282, 7.026635646820068, -2.5467092990875244, -1.5909841060638428, -2.1734683513641357, 1.10546875, -0.583740234375, 0.08251953125
192, 2219819163, -6.703171730041504, 1.8717447519302368, 6.999391555786133, -2.4560465812683105, -1.6592191457748413, -2.196643829345703, 1.10546875, -0.583740234375, 0.08203125
193, 2219835830, -6.704526901245117, 1.8857715129852295, 7.0217671394348145, -2.3564581871032715, -1.5715185403823853, -2.175863027572632, 1.10498046875, -0.582275390625, 0.08203125
194, 2219852497, -6.702720642089844, 1.881531834602356, 7.010432243347168, -2.4074785709381104, -1.6040594577789307, -2.2356557846069336, 1.10546875, -0.583251953125, 0.08154296875
195, 2219869164, -6.702443599700928, 1.88239324092865, 7.016626358032227, -2.5566723346710205, -1.5909069776535034, -2.3047714233398438, 1.10302734375, -0.584228515625, 0.08154296875
196, 2219885831, -6.711587905883789, 1.867004156112671, 7.013803005218506, -2.5199058055877686, -1.5859383344650269, -2.3046822547912598, 1.1025390625, -0.583740234375, 0.08349609375
197, 2219902498, -6.713525295257568, 1.8797290325164795, 7.035183906555176, -2.4702682495117188, -1.5075252056121826, -2.277148485183716, 1.10400390625, -0.583740234375, 0.0830078125
198, 2219919165, -6.700968265533447, 1.876425862312317, 7.030156135559082, -2.5227231979370117, -1.5372999906539917, -2.2284460067749023, 1.104736328125, -0.586669921875, 0.08056640625
199, 2219935832, -6.701551914215088, 1.8640080690383911, 7.014853477478027, -2.4889650344848633, -1.6000380516052246, -2.322866916656494, 1.103515625, -0.583740234375, 0.0830078125
200, 2219952499, -6.705044269561768, 1.8611313104629517, 7.021773815155029, -2.552049398422241, -1.6167248487472534, -2.302236318588257, 1.1044921875, -0.583251953125, 0.079833984375
201, 2219969166, -6.690486907958984, 1.8701419830322266, 7.024099349975586, -2.4581916332244873, -1.5893704891204834, -2.2161130905151367, 1.10498046875, -0.583740234375, 0.08203125
202, 2219985833, -6.697644233703613, 1.8659342527389526, 7.007439136505127, -2.4096429347991943, -1.5977586507797241, -2.178449869155884, 1.105224609375, -0.585205078125, 0.08203125
203, 2220002500, -6.697842597961426, 1.8767921924591064, 7.02040433883667, -2.4733285903930664, -1.451650857925415, -2.2633299827575684, 1.105712890625, -0.583740234375, 0.08349609375
204, 2220019167, -6.6968674659729, 1.8805232048034668, 7.025017738342285, -2.442119836807251, -1.4288301467895508, -2.222900629043579, 1.10546875, -0.583740234375, 0.08447265625
205, 2220035834, -6.708006858825684, 1.866212010383606, 7.033272743225098, -2.5464532375335693, -1.490953803062439, -2.227792739868164, 1.10498046875, -0.583740234375, 0.0830078125
206, 2220052501, -6.708120346069336, 1.8607680797576904, 7.02050256729126, -2.571732759475708, -1.5651665925979614, -2.2516252994537354, 1.106689453125, -0.584716796875, 0.08203125
207, 2220069168, -6.703343391418457, 1.8717832565307617, 7.046851634979248, -2.398578405380249, -1.5342520475387573, -2.164977788925171, 1.10302734375, -0.585205078125, 0.080322265625
208, 2220085835, -6.710083484649658, 1.8631447553634644, 7.023011684417725, -2.4140868186950684, -1.579163908958435, -2.1599831581115723, 1.10302734375, -0.582763671875, 0.0830078125
209, 2220102502, -6.702754020690918, 1.8796931505203247, 7.010331630706787, -2.3284120559692383, -1.5341624021530151, -2.1744544506073, 1.10400390625, -0.585693359375, 0.08203125
210, 2220119169, -6.70347785949707, 1.87123441696167, 7.035339832305908, -2.3162331581115723, -1.473139762878418, -2.221888780593872, 1.106201171875, -0.583251953125, 0.0810546875
211, 2220135836, -6.705966472625732, 1.8759946823120117, 7.026040077209473, -2.370084047317505, -1.4899804592132568, -2.280273199081421, 1.10498046875, -0.584228515625, 0.083984375
212, 2220152503, -6.696627140045166, 1.8832992315292358, 7.023567199707031, -2.443272113800049, -1.5961833000183105, -2.3473269939422607, 1.106201171875, -0.583740234375, 0.08154296875
213, 2220169170, -6.698334217071533, 1.8641793727874756, 7.032345771789551, -2.5314698219299316, -1.617442011833191, -2.286292314529419, 1.10498046875, -0.583740234375, 0.08154296875
214, 2220185837, -6.707848072052002, 1.8773239850997925, 7.000753879547119, -2.5544698238372803, -1.5916885137557983, -2.251189708709717, 1.103515625, -0.583251953125, 0.0830078125
215, 2220202504, -6.706639289855957, 1.866784930229187, 7.022007942199707, -2.5946948528289795, -1.7213530540466309, -2.4094767570495605, 1.1025390625, -0.584228515625, 0.080810546875
216, 2220219171, -6.7120137214660645, 1.8654627799987793, 7.0229973793029785, -2.704176187515259, -1.6857640743255615, -2.403559923171997, 1.1044921875, -0.585693359375, 0.08056640625
217, 2220235838, -6.707320690155029, 1.8576298952102661, 7.044922351837158, -2.494997262954712, -1.624600887298584, -2.3132753372192383, 1.107666015625, -0.584716796875, 0.08203125
218, 2220252505, -6.693572044372559, 1.8560796976089478, 7.036417007446289, -2.3202030658721924, -1.5758596658706665, -2.181151866912842, 1.10498046875, -0.584228515625, 0.08056640625
219, 2220269172, -6.698329925537109, 1.8849214315414429, 7.026443004608154, -2.2114388942718506, -1.3490594625473022, -2.2161645889282227, 1.10400390625, -0.583251953125, 0.0810546875
220, 2220285839, -6.686120986938477, 1.8780543804168701, 7.02168083190918, -2.370391607284546, -1.5008786916732788, -2.4320027828216553, 1.10302734375, -0.584716796875, 0.08203125
221, 2220302506, -6.694613933563232, 1.860058307647705, 7.008265972137451, -2.452979326248169, -1.5528082847595215, -2.2329277992248535, 1.103515625, -0.583740234375, 0.0810546875
222, 2220319173, -6.698775291442871, 1.8485358953475952, 7.021536827087402, -2.4038286209106445, -1.5525649785995483, -2.2818994522094727, 1.107666015625, -0.582763671875, 0.08203125
223, 2220335840, -6.702709197998047, 1.8748167753219604, 7.027400016784668, -2.283256769180298, -1.4315321445465088, -2.195302963256836, 1.10546875, -0.584228515625, 0.08251953125
224, 2220352507, -6.706437587738037, 1.8773151636123657, 7.037441253662109, -2.2534878253936768, -1.3232262134552002, -2.274155855178833, 1.10498046875, -0.584228515625, 0.0810546875
225, 2220369174, -6.706356525421143, 1.8720712661743164, 7.037600994110107, -2.2396128177642822, -1.4187514781951904, -2.323366403579712, 1.10302734375, -0.586181640625, 0.08251953125
226, 2220385841, -6.7148895263671875, 1.8677443265914917, 7.007260799407959, -2.330576181411743, -1.4248600006103516, -2.276110887527466, 1.10400390625, -0.584228515625, 0.0830078125
227, 2220402508, -6.703943729400635, 1.8724664449691772, 7.047734260559082, -2.2094922065734863, -1.4775710105895996, -2.252431869506836, 1.10546875, -0.583251953125, 0.08349609375
228, 2220419175, -6.711045265197754, 1.8714592456817627, 7.030793190002441, -2.3941855430603027, -1.4767258167266846, -2.228893995285034, 1.10498046875, -0.585205078125, 0.0810546875
229, 2220435842, -6.711916446685791, 1.8789430856704712, 7.042459011077881, -2.3632071018218994, -1.5161309242248535, -2.257721185684204, 1.105712890625, -0.583740234375, 0.0830078125
230, 2220452509, -6.705162048339844, 1.8721346855163574, 7.031889915466309, -2.3224191665649414, -1.4603081941604614, -2.2011427879333496, 1.10400390625, -0.584228515625, 0.08251953125
231, 2220469176, -6.693162441253662, 1.8663753271102905, 7.0438551902771, -2.119527816772461, -1.3295937776565552, -2.186722755432129, 1.103515625, -0.582763671875, 0.083984375
232, 2220485843, -6.712749004364014, 1.8577600717544556, 7.017036437988281, -1.817528486251831, -1.0500952005386353, -2.073348045349121, 1.10498046875, -0.585205078125, 0.08251953125
233, 2220502510, -6.723635673522949, 1.82974374294281, 7.044553279876709, -1.8000221252441406, -1.1373958587646484, -2.036299228668213, 1.10498046875, -0.583740234375, 0.08203125
234, 2220519177, -6.6971940994262695, 1.9356913566589355, 7.018999099731445, -1.8267618417739868, -1.173932433128357, -1.9589362144470215, 1.106201171875, -0.585205078125, 0.08349609375
235, 2220535844, -6.709455490112305, 1.8893542289733887, 6.986944198608398, -2.0287692546844482, -1.4017189741134644, -1.9945887327194214, 1.106201171875, -0.585693359375, 0.0810546875
236, 2220552511, -6.716124057769775, 1.8803890943527222, 7.026967525482178, -2.0507445335388184, -1.6681933403015137, -1.9987250566482544, 1.10400390625, -0.586181640625, 0.0830078125
237, 2220569178, -6.707285404205322, 1.875252604484558, 7.001278877258301, -2.016385316848755, -1.5651406049728394, -2.0725536346435547, 1.106201171875, -0.585693359375, 0.0830078125
238, 2220585845, -6.681551933288574, 1.8756769895553589, 7.0240559577941895, -2.18900203704834, -1.5518221855163574, -1.999724268913269, 1.10400390625, -0.5869140625, 0.0830078125
239, 2220602512, -6.7037787437438965, 1.8953357934951782, 7.006548881530762, -2.1312966346740723, -1.5217399597167969, -1.9821926355361938, 1.10546875, -0.584716796875, 0.08251953125
240, 2220619179, -6.704532623291016, 1.9007031917572021, 7.028822898864746, -2.1944448947906494, -1.43117356300354, -2.2633941173553467, 1.105224609375, -0.585693359375, 0.08203125
241, 2220635846, -6.693253993988037, 1.8795965909957886, 7.0094170570373535, -2.2288172245025635, -1.397659420967102, -2.2500884532928467, 1.106201171875, -0.584228515625, 0.08349609375
242, 2220652513, -6.714907169342041, 1.8765480518341064, 7.00736665725708, -2.263125419616699, -1.383649230003357, -2.1234846115112305, 1.10498046875, -0.585205078125, 0.083984375
243, 2220669180, -6.701086521148682, 1.8789767026901245, 7.028754234313965, -2.1927926540374756, -1.3332306146621704, -2.0058200359344482, 1.10400390625, -0.585693359375, 0.0830078125
244, 2220685847, -6.703392028808594, 1.894683599472046, 7.008770942687988, -2.203460454940796, -1.3732633590698242, -2.0659077167510986, 1.1044921875, -0.585205078125, 0.0830078125
245, 2220702514, -6.7111053466796875, 1.9032182693481445, 7.029378414154053, -2.0161163806915283, -1.3287997245788574, -2.0309977531433105, 1.107177734375, -0.586181640625, 0.08349609375
246, 2220719181, -6.70688533782959, 1.9039431810379028, 7.021949291229248, -2.1410422325134277, -1.3600856065750122, -2.1639273166656494, 1.105224609375, -0.587890625, 0.0830078125
247, 2220735848, -6.7043890953063965, 1.8649096488952637, 7.020269393920898, -2.319063663482666, -1.4001951217651367, -2.1506214141845703, 1.105712890625, -0.586669921875, 0.0830078125
248, 2220752515, -6.710123538970947, 1.907289743423462, 7.003044128417969, -2.30702543258667, -1.4405094385147095, -2.157959461212158, 1.105712890625, -0.585205078125, 0.08349609375
249, 2220769182, -6.707533836364746, 1.898518681526184, 6.981961250305176, -2.412255048751831, -1.4334659576416016, -2.137277126312256, 1.10400390625, -0.586669921875, 0.0830078125
250, 2220785849, -6.7035908699035645, 1.8986258506774902, 7.007453441619873, -2.5834250450134277, -1.6128829717636108, -2.201155424118042, 1.105712890625, -0.585693359375, 0.08154296875
251, 2220802516, -6.693267345428467, 1.8977018594741821, 7.013514518737793, -2.747385263442993, -1.7324817180633545, -2.348236560821533, 1.1044921875, -0.585693359375, 0.08154296875
252, 2220819183, -6.692609786987305, 1.8855313062667847, 6.996225833892822, -2.844802141189575, -1.7661620378494263, -2.4421963691711426, 1.10498046875, -0.586181640625, 0.08349609375
253, 2220835850, -6.710187911987305, 1.8832894563674927, 7.005451202392578, -2.8635637760162354, -1.9787604808807373, -2.4640440940856934, 1.106201171875, -0.585693359375, 0.08203125
254, 2220852517, -6.691776752471924, 1.8878915309906006, 6.992406368255615, -3.024949789047241, -2.0602855682373047, -2.5151419639587402, 1.105712890625, -0.586669921875, 0.08203125
255, 2220869184, -6.712284564971924, 1.8833727836608887, 7.009002685546875, -3.247316598892212, -2.2270443439483643, -2.4471211433410645, 1.104736328125, -0.586181640625, 0.08447265625
256, 2220885851, -6.699265956878662, 1.8885046243667603, 7.035829544067383, -3.005176544189453, -1.9395346641540527, -2.4894394874572754, 1.10498046875, -0.583251953125, 0.08447265625
257, 2220902518, -6.705893039703369, 1.8752145767211914, 7.027085781097412, -2.6252763271331787, -1.655425786972046, -2.4224748611450195, 1.103515625, -0.583740234375, 0.0830078125
258, 2220919185, -6.697911739349365, 1.8741168975830078, 7.027472972869873, -2.489938735961914, -1.635293960571289, -2.309048891067505, 1.106201171875, -0.58740234375, 0.0830078125
259, 2220935852, -6.701505184173584, 1.8661670684814453, 7.020048141479492, -2.449918746948242, -1.6265215873718262, -2.202282190322876, 1.105712890625, -0.584228515625, 0.08203125
260, 2220952519, -6.7129034996032715, 1.8758140802383423, 7.037765026092529, -2.3008272647857666, -1.6133055686950684, -2.2158827781677246, 1.105224609375, -0.585693359375, 0.0830078125
261, 2220969186, -6.699594497680664, 1.870896816253662, 7.011208534240723, -2.280695676803589, -1.4985861778259277, -2.142118215560913, 1.105712890625, -0.584228515625, 0.0849609375
262, 2220985853, -6.698319435119629, 1.8880800008773804, 7.0233659744262695, -2.259411334991455, -1.4111956357955933, -2.2203264236450195, 1.10498046875, -0.586181640625, 0.08349609375
263, 2221002520, -6.697695255279541, 1.8907560110092163, 7.025866985321045, -2.367727279663086, -1.5496065616607666, -2.119873523712158, 1.10400390625, -0.584716796875, 0.08251953125
264, 2221019187, -6.696300506591797, 1.8767184019088745, 7.015202522277832, -2.2892885208129883, -1.4123482704162598, -2.1452555656433105, 1.108154296875, -0.585693359375, 0.0830078125
265, 2221035854, -6.70630407333374, 1.8800402879714966, 7.042698383331299, -2.346520185470581, -1.3790004253387451, -2.1930360794067383, 1.108642578125, -0.586669921875, 0.08154296875
266, 2221052521, -6.70011568069458, 1.88737952709198, 7.037420749664307, -2.4699223041534424, -1.462689995765686, -2.36592173576355, 1.103515625, -0.585205078125, 0.08154296875
267, 2221069188, -6.717255592346191, 1.880943775177002, 7.02262544631958, -2.4685776233673096, -1.4799275398254395, -2.3601207733154297, 1.105712890625, -0.583740234375, 0.08154296875
268, 2221085855, -6.702215671539307, 1.8807661533355713, 7.029421806335449, -2.4313113689422607, -1.4200448989868164, -2.3386316299438477, 1.10595703125, -0.582763671875, 0.083984375
269, 2221102522, -6.708471775054932, 1.8735566139221191, 7.008121490478516, -2.32026743888855, -1.4372568130493164, -2.3236098289489746, 1.103515625, -0.585693359375, 0.0830078125
270, 2221119189, -6.713520526885986, 1.8608429431915283, 7.010622024536133, -2.1833417415618896, -1.4156779050827026, -2.2484748363494873, 1.104736328125, -0.586669921875, 0.085205078125
271, 2221135856, -6.712596416473389, 1.897769808769226, 7.016305923461914, -2.2251927852630615, -1.435181975364685, -2.2138335704803467, 1.107177734375, -0.586669921875, 0.08154296875
272, 2221152523, -6.707618713378906, 1.873346209526062, 7.028773784637451, -2.1344213485717773, -1.4281128644943237, -2.118913173675537, 1.104736328125, -0.5869140625, 0.0810546875
273, 2221169190, -6.708314895629883, 1.8927066326141357, 7.006764888763428, -1.4955382347106934, -0.9265522956848145, -2.009111166000366, 1.105224609375, -0.585693359375, 0.085205078125
274, 2221185857, -6.709615707397461, 1.884889841079712, 7.013725280761719, -1.105431318283081, -0.6984456181526184, -1.8254555463790894, 1.10498046875, -0.586181640625, 0.08203125
275, 2221202524, -6.709618091583252, 1.901024341583252, 7.030910491943359, -1.561286211013794, -1.1108866930007935, -1.8861960172653198, 1.10400390625, -0.5869140625, 0.08203125
276, 2221219191, -6.705933570861816, 1.898572564125061, 7.034240245819092, -1.771527886390686, -1.227475643157959, -1.9798102378845215, 1.106201171875, -0.586181640625, 0.083984375
277, 2221235858, -6.714061260223389, 1.900680661201477, 7.012061595916748, -1.8863627910614014, -1.3261104822158813, -2.0187289714813232, 1.107177734375, -0.586181640625, 0.079345703125
278, 2221252525, -6.706374645233154, 1.887493371963501, 7.016192436218262, -1.9924631118774414, -1.4272931814193726, -2.021533727645874, 1.10400390625, -0.586669921875, 0.0830078125
279, 2221269192, -6.6970014572143555, 1.8991514444351196, 7.008289813995361, -2.076920986175537, -1.4654817581176758, -2.0701465606689453, 1.105224609375, -0.5888671875, 0.083984375
280, 2221285859, -6.70871114730835, 1.885836124420166, 7.017665863037109, -2.0114166736602783, -1.4086086750030518, -2.152324914932251, 1.105224609375, -0.586181640625, 0.08349609375
281, 2221302526, -6.712235450744629, 1.8869786262512207, 7.001626491546631, -1.7915953397750854, -1.3827015161514282, -1.94656503200531, 1.104248046875, -0.587890625, 0.08251953125
282, 2221319193, -6.709035396575928, 1.8871400356292725, 7.024687767028809, -1.4636119604110718, -1.2957593202590942, -1.6039440631866455, 1.106689453125, -0.586181640625, 0.083984375
283, 2221335860, -6.717574119567871, 1.8917449712753296, 6.996890068054199, -1.282389521598816, -1.142390489578247, -1.442660927772522, 1.107177734375, -0.58837890625, 0.08349609375
284, 2221352527, -6.7060041427612305, 1.9118422269821167, 7.005939960479736, -0.9537143707275391, -0.972706139087677, -1.2955669164657593, 1.105224609375, -0.5869140625, 0.08251953125
285, 2221369194, -6.703490257263184, 1.9104604721069336, 6.994997978210449, -0.7491330504417419, -0.7650513052940369, -1.3240357637405396, 1.105224609375, -0.58837890625, 0.08154296875
286, 2221385861, -6.705943584442139, 1.9163179397583008, 7.006662368774414, -0.7531286478042603, -0.8623796701431274, -1.2631416320800781, 1.104736328125, -0.586669921875, 0.0849609375
287, 2221402528, -6.726751327514648, 1.904809832572937, 7.0008745193481445, -1.0326037406921387, -0.932540774345398, -1.331946849822998, 1.106201171875, -0.586669921875, 0.08447265625
288, 2221419195, -6.718838214874268, 1.9496400356292725, 6.9902873039245605, -1.0448445081710815, -1.1849714517593384, -1.1805917024612427, 1.108154296875, -0.58984375, 0.085205078125
289, 2221435862, -6.712953090667725, 1.9709105491638184, 6.984429836273193, -1.534584879875183, -1.3879138231277466, -1.4450558423995972, 1.107666015625, -0.58935546875, 0.083740234375
290, 2221452529, -6.703616619110107, 1.976589322090149, 6.988915920257568, -2.0486958026885986, -1.6397122144699097, -1.9110658168792725, 1.106201171875, -0.58837890625, 0.0810546875
291, 2221469196, -6.7139081954956055, 1.9639317989349365, 6.988183975219727, -2.681765079498291, -1.717459797859192, -2.321650981903076, 1.105224609375, -0.5888671875, 0.0810546875
292, 2221485863, -6.693657398223877, 1.9343817234039307, 6.998437404632568, -2.8789446353912354, -1.8008801937103271, -2.6254172325134277, 1.104248046875, -0.59033203125, 0.086181640625
293, 2221502530, -6.688375473022461, 1.9328570365905762, 6.99139928817749, -2.9068236351013184, -1.5718002319335938, -2.5186758041381836, 1.107177734375, -0.58935546875, 0.083740234375
294, 2221519197, -6.722769260406494, 1.9259238243103027, 6.9953389167785645, -2.832969903945923, -1.545829176902771, -2.4306328296661377, 1.105224609375, -0.58935546875, 0.0830078125
295, 2221535864, -6.709407329559326, 1.9405426979064941, 6.996796131134033, -2.7961387634277344, -1.6230002641677856, -2.414381504058838, 1.105712890625, -0.5888671875, 0.084228515625
296, 2221552531, -6.724117755889893, 1.929429531097412, 6.99568510055542, -2.8047831058502197, -1.5157469511032104, -2.327810525894165, 1.106201171875, -0.5888671875, 0.08349609375
297, 2221569198, -6.700937271118164, 1.9386087656021118, 6.998262882232666, -2.9562816619873047, -1.6760053634643555, -2.411832571029663, 1.105712890625, -0.58984375, 0.08349609375
298, 2221585865, -6.723049163818359, 1.9550820589065552, 6.99946928024292, -2.9759137630462646, -1.7348248958587646, -2.557696580886841, 1.105224609375, -0.58740234375, 0.08349609375
299, 2221602532, -6.723726272583008, 1.916350245475769, 7.005388259887695, -2.9927031993865967, -1.8137760162353516, -2.6465728282928467, 1.105224609375, -0.58935546875, 0.084228515625
300, 2221619199, -6.714833736419678, 1.9278168678283691, 7.0176191329956055, -2.946587085723877, -1.7122730016708374, -2.5954883098602295, 1.108154296875, -0.58984375, 0.085693359375
301, 2221635866, -6.710407257080078, 1.9067926406860352, 7.008055686950684, -2.8628721237182617, -1.5882818698883057, -2.6219334602355957, 1.108154296875, -0.58935546875, 0.083251953125
302, 2221652533, -6.711508274078369, 1.9022548198699951, 7.021782398223877, -2.7165987491607666, -1.4411499500274658, -2.5271413326263428, 1.106689453125, -0.587890625, 0.0830078125
303, 2221669200, -6.729598045349121, 1.9166040420532227, 7.021505832672119, -2.6656548976898193, -1.4587715864181519, -2.533749580383301, 1.105224609375, -0.587890625, 0.08349609375
304, 2221685867, -6.708100318908691, 1.9189280271530151, 6.9998626708984375, -2.6842753887176514, -1.5788054466247559, -2.4543371200561523, 1.105224609375, -0.58837890625, 0.08203125
305, 2221702534, -6.708362102508545, 1.923782467842102, 7.005252838134766, -2.881223678588867, -1.7706570625305176, -2.5215957164764404, 1.106201171875, -0.5888671875, 0.083984375
306, 2221719201, -6.7191901206970215, 1.9119142293930054, 6.999863624572754, -2.850526809692383, -1.7258604764938354, -2.587766170501709, 1.108154296875, -0.58935546875, 0.083251953125
307, 2221735868, -6.719728946685791, 1.8922394514083862, 7.005827903747559, -2.8348004817962646, -1.745044469833374, -2.562627077102661, 1.105224609375, -0.58837890625, 0.08349609375
308, 2221752535, -6.692168235778809, 1.9124772548675537, 7.02156925201416, -2.800262212753296, -1.7466835975646973, -2.4525184631347656, 1.104736328125, -0.587890625, 0.0830078125
309, 2221769202, -6.715708255767822, 1.9072129726409912, 6.995334148406982, -2.8543436527252197, -1.6245113611221313, -2.402433156967163, 1.107177734375, -0.5888671875, 0.085693359375
310, 2221785869, -6.722198009490967, 1.9105820655822754, 6.988076210021973, -2.9075024127960205, -1.8557425737380981, -2.4484076499938965, 1.10302734375, -0.587890625, 0.0849609375
311, 2221802536, -6.705455780029297, 1.9243229627609253, 7.003500461578369, -3.240391254425049, -2.1327056884765625, -2.624969244003296, 1.104248046875, -0.587890625, 0.08447265625
312, 2221819203, -6.719760894775391, 1.90719735622406, 7.012363433837891, -3.0713727474212646, -2.0154762268066406, -2.5873568058013916, 1.106201171875, -0.58984375, 0.08203125
313, 2221835870, -6.707043647766113, 1.8931533098220825, 7.025163650512695, -2.8425354957580566, -1.8616974353790283, -2.4254329204559326, 1.106689453125, -0.5888671875, 0.08349609375
314, 2221852537, -6.706713676452637, 1.915483832359314, 6.99631929397583, -2.6069631576538086, -1.66067636013031, -2.325594902038574, 1.105712890625, -0.587890625, 0.083984375
315, 2221869204, -6.724859714508057, 1.8889354467391968, 7.018871784210205, -2.4423632621765137, -1.4525090456008911, -2.371723175048828, 1.107666015625, -0.58837890625, 0.08203125
316, 2221885871, -6.705121040344238, 1.9084471464157104, 7.002254009246826, -2.461329460144043, -1.538657307624817, -2.3180134296417236, 1.10400390625, -0.586669921875, 0.083984375
317, 2221902538, -6.715784549713135, 1.899458408355713, 7.024559497833252, -2.4624948501586914, -1.5373640060424805, -2.3740029335021973, 1.105712890625, -0.586669921875, 0.08349609375
318, 2221919205, -6.702511310577393, 1.9001824855804443, 7.011258602142334, -2.5788650512695312, -1.5932066440582275, -2.3411295413970947, 1.106689453125, -0.587890625, 0.08203125
319, 2221935872, -6.708376407623291, 1.904412865638733, 7.01549768447876, -2.5398197174072266, -1.6311066150665283, -2.373964548110962, 1.106201171875, -0.587158203125, 0.0830078125
320, 2221952539, -6.7189741134643555, 1.9100816249847412, 6.999364376068115, -2.6403112411499023, -1.7310346364974976, -2.3666651248931885, 1.106689453125, -0.58740234375, 0.083984375
321, 2221969206, -6.696094989776611, 1.892922043800354, 7.008432388305664, -2.7179431915283203, -1.7184971570968628, -2.396836996078491, 1.104736328125, -0.586669921875, 0.08447265625
322, 2221985873, -6.707876205444336, 1.8905011415481567, 7.004493713378906, -2.8139774799346924, -1.689477562904358, -2.4327197074890137, 1.105712890625, -0.585205078125, 0.085693359375
323, 2222002540, -6.710109710693359, 1.9014867544174194, 6.987061500549316, -2.850949287414551, -1.7441864013671875, -2.4868264198303223, 1.105712890625, -0.586669921875, 0.085693359375
324, 2222019207, -6.703875541687012, 1.8811105489730835, 7.014617443084717, -3.0049591064453125, -1.798792839050293, -2.5432770252227783, 1.105224609375, -0.586181640625, 0.0830078125
325, 2222035874, -6.697649955749512, 1.8935455083847046, 7.025743007659912, -2.935702323913574, -1.7644462585449219, -2.5709517002105713, 1.106689453125, -0.58740234375, 0.083984375
326, 2222052541, -6.700994491577148, 1.886117935180664, 7.021753787994385, -2.4787588119506836, -1.5384397506713867, -2.436241626739502, 1.106201171875, -0.586669921875, 0.08251953125
327, 2222069208, -6.714967727661133, 1.876716136932373, 7.003277778625488, -2.2763030529022217, -1.3748514652252197, -2.273050546646118, 1.10400390625, -0.586181640625, 0.08349609375
328, 2222085875, -6.712277412414551, 1.8940061330795288, 7.005331993103027, -2.345393657684326, -1.457285761833191, -2.2311863899230957, 1.105224609375, -0.5869140625, 0.083984375
329, 2222102542, -6.695705413818359, 1.9067085981369019, 6.997323036193848, -2.487889289855957, -1.5235073566436768, -2.2305073738098145, 1.106201171875, -0.585693359375, 0.08349609375
330, 2222119209, -6.714544773101807, 1.8852509260177612, 7.014709949493408, -2.435255527496338, -1.6018952131271362, -2.273101568222046, 1.107177734375, -0.586669921875, 0.0830078125
331, 2222135876, -6.707943439483643, 1.8917986154556274, 7.0070977210998535, -2.4359216690063477, -1.4771101474761963, -2.2390623092651367, 1.108642578125, -0.587890625, 0.08203125
332, 2222152543, -6.688934803009033, 1.898991584777832, 6.991456985473633, -2.24357008934021, -1.4626133441925049, -2.2468101978302, 1.10400390625, -0.5869140625, 0.083984375
333, 2222169210, -6.723233699798584, 1.8669557571411133, 7.0030341148376465, -1.9687970876693726, -1.4081350564956665, -2.044546604156494, 1.104736328125, -0.58740234375, 0.0830078125
334, 2222185877, -6.702832221984863, 1.8804880380630493, 7.012609004974365, -1.9505865573883057, -1.3827528953552246, -1.9832556247711182, 1.105224609375, -0.58740234375, 0.08251953125
335, 2222202544, -6.708418369293213, 1.8984216451644897, 7.007699489593506, -2.059260845184326, -1.5154905319213867, -1.9910928010940552, 1.106201171875, -0.58740234375, 0.08349609375
336, 2222219211, -6.701854228973389, 1.9018224477767944, 7.015239715576172, -2.1722002029418945, -1.5998587608337402, -1.909593105316162, 1.106201171875, -0.586669921875, 0.083984375
337, 2222235878, -6.710505962371826, 1.9004369974136353, 7.018422603607178, -2.100945472717285, -1.6423503160476685, -1.9870715141296387, 1.104736328125, -0.58740234375, 0.08251953125
338, 2222252545, -6.704614162445068, 1.9144349098205566, 6.994147777557373, -2.1025593280792236, -1.5080116987228394, -2.0331616401672363, 1.106201171875, -0.587158203125, 0.085205078125
339, 2222269212, -6.695028305053711, 1.902171015739441, 7.0066819190979, -2.1405303478240967, -1.4329922199249268, -2.138032913208008, 1.105224609375, -0.58935546875, 0.08154296875
340, 2222285879, -6.704607963562012, 1.91342294216156, 6.978634834289551, -2.349158525466919, -1.5897034406661987, -2.2048821449279785, 1.105224609375, -0.58837890625, 0.08251953125
341, 2222302546, -6.71273136138916, 1.9165266752243042, 7.022720813751221, -2.4430928230285645, -1.581161379814148, -2.2865352630615234, 1.106689453125, -0.586669921875, 0.08251953125
342, 2222319213, -6.699592590332031, 1.8944095373153687, 7.020467758178711, -2.4855971336364746, -1.609514832496643, -2.305847406387329, 1.107177734375, -0.5888671875, 0.08251953125
343, 2222335880, -6.7185378074646, 1.9132823944091797, 7.007279396057129, -2.4521727561950684, -1.645078182220459, -2.2428786754608154, 1.106201171875, -0.585205078125, 0.08251953125
344, 2222352547, -6.699167728424072, 1.9119833707809448, 7.01755952835083, -2.5087897777557373, -1.6718562841415405, -2.3025307655334473, 1.106201171875, -0.5869140625, 0.08056640625
345, 2222369214, -6.7049880027771, 1.8947200775146484, 6.997866630554199, -2.3105342388153076, -1.586220145225525, -2.1663219928741455, 1.105712890625, -0.58740234375, 0.08251953125
346, 2222385881, -6.704317092895508, 1.9139823913574219, 7.003148555755615, -2.2961018085479736, -1.5265425443649292, -2.191615104675293, 1.105224609375, -0.586181640625, 0.08349609375
347, 2222402548, -6.707585334777832, 1.8888658285140991, 7.016750812530518, -2.3971951007843018, -1.5394771099090576, -2.183342218399048, 1.10400390625, -0.5869140625, 0.0830078125
348, 2222419215, -6.718677520751953, 1.8916376829147339, 7.010200500488281, -2.332650899887085, -1.514530062675476, -2.1727893352508545, 1.106689453125, -0.58740234375, 0.083984375
349, 2222435882, -6.701238632202148, 1.9088388681411743, 7.018716812133789, -2.4335010051727295, -1.5152857303619385, -2.287816047668457, 1.107666015625, -0.58740234375, 0.08251953125
350, 2222452549, -6.711466312408447, 1.9041708707809448, 7.011099338531494, -2.3565855026245117, -1.5750737190246582, -2.1775124073028564, 1.105712890625, -0.58740234375, 0.08447265625
351, 2222469216, -6.712948799133301, 1.905861496925354, 7.006961345672607, -2.4085030555725098, -1.524737000465393, -2.3224573135375977, 1.105224609375, -0.586669921875, 0.08447265625
352, 2222485883, -6.700835227966309, 1.906264305114746, 7.0071258544921875, -2.5343124866485596, -1.5260686874389648, -2.3471732139587402, 1.105712890625, -0.58740234375, 0.0830078125
353, 2222502550, -6.703640460968018, 1.9038759469985962, 7.015295505523682, -2.562652826309204, -1.4667624235153198, -2.3212788105010986, 1.106201171875, -0.586669921875, 0.0810546875
354, 2222519217, -6.705694198608398, 1.888218879699707, 7.025470733642578, -2.585231065750122, -1.520472526550293, -2.3465206623077393, 1.108154296875, -0.586181640625, 0.08251953125
355, 2222535884, -6.70139741897583, 1.87820303440094, 7.021872043609619, -2.620896816253662, -1.455173134803772, -2.387949228286743, 1.107666015625, -0.58935546875, 0.08154296875
356, 2222552551, -6.699700832366943, 1.9168964624404907, 7.014824390411377, -2.534210205078125, -1.4566327333450317, -2.393545389175415, 1.10498046875, -0.585205078125, 0.083984375
357, 2222569218, -6.706603050231934, 1.9029587507247925, 6.990959644317627, -2.6720964908599854, -1.6518657207489014, -2.4107699394226074, 1.106689453125, -0.587158203125, 0.084228515625
358, 2222585885, -6.693601608276367, 1.9298063516616821, 7.02696418762207, -2.6731979846954346, -1.6055324077606201, -2.4597673416137695, 1.106201171875, -0.587890625, 0.08056640625
359, 2222602552, -6.7303643226623535, 1.8901028633117676, 7.007970809936523, -2.475454568862915, -1.428330659866333, -2.4878640174865723, 1.105712890625, -0.586669921875, 0.08251953125
360, 2222619219, -6.709192752838135, 1.9183586835861206, 7.011291980743408, -2.540472984313965, -1.4545711278915405, -2.511338472366333, 1.106689453125, -0.587158203125, 0.0810546875
361, 2222635886, -6.710798263549805, 1.8736310005187988, 6.986900806427002, -2.614288568496704, -1.5363011360168457, -2.4447455406188965, 1.107666015625, -0.58837890625, 0.0830078125
362, 2222652553, -6.723433017730713, 1.8871591091156006, 7.024547576904297, -2.6360976696014404, -1.611679196357727, -2.4360880851745605, 1.10498046875, -0.586181640625, 0.0830078125
363, 2222669220, -6.712544918060303, 1.91456937789917, 7.008816719055176, -2.7317099571228027, -1.6982247829437256, -2.478912591934204, 1.104736328125, -0.58740234375, 0.083984375
364, 2222685887, -6.716360569000244, 1.8953571319580078, 7.006559371948242, -2.7423646450042725, -1.6645182371139526, -2.484624147415161, 1.106201171875, -0.585205078125, 0.0830078125
365, 2222702554, -6.727395534515381, 1.8806891441345215, 7.009146690368652, -2.7177631855010986, -1.7337491512298584, -2.5360028743743896, 1.106689453125, -0.58837890625, 0.0830078125
366, 2222719221, -6.72111177444458, 1.8969773054122925, 7.002073764801025, -2.7418265342712402, -1.707393765449524, -2.526923179626465, 1.106201171875, -0.587890625, 0.084228515625
367, 2222735888, -6.722163677215576, 1.887899398803711, 7.029420852661133, -2.7641351222991943, -1.7512041330337524, -2.564138412475586, 1.105712890625, -0.587158203125, 0.083984375
368, 2222752555, -6.698873043060303, 1.8847599029541016, 7.025121212005615, -2.7794129848480225, -1.7418811321258545, -2.5473620891571045, 1.106201171875, -0.585693359375, 0.08203125
369, 2222769222, -6.708839416503906, 1.8869633674621582, 7.0162529945373535, -2.8206496238708496, -1.6004478931427002, -2.6408615112304688, 1.103515625, -0.586669921875, 0.0810546875
370, 2222785889, -6.706613063812256, 1.8884713649749756, 7.0209269523620605, -2.8885746002197266, -1.699044108390808, -2.7505476474761963, 1.10498046875, -0.585205078125, 0.08251953125
371, 2222802556, -6.708351135253906, 1.8718386888504028, 7.003520488739014, -2.733412742614746, -1.7143088579177856, -2.556044578552246, 1.10400390625, -0.586669921875, 0.08349609375
372, 2222819223, -6.709153175354004, 1.8864595890045166, 7.018710136413574, -2.723052978515625, -1.6281484365463257, -2.543687343597412, 1.106201171875, -0.585205078125, 0.083984375
373, 2222835890, -6.699257850646973, 1.8912869691848755, 7.0142364501953125, -2.6836860179901123, -1.8255321979522705, -2.52983021736145, 1.106689453125, -0.585205078125, 0.08154296875
374, 2222852557, -6.71613073348999, 1.8763772249221802, 7.012414932250977, -2.7486650943756104, -1.693332314491272, -2.5161149501800537, 1.10498046875, -0.583251953125, 0.08349609375
375, 2222869224, -6.702998638153076, 1.8653252124786377, 7.011818885803223, -2.7940635681152344, -1.645897626876831, -2.5905580520629883, 1.10498046875, -0.585693359375, 0.0830078125
376, 2222885891, -6.714856147766113, 1.8704568147659302, 7.029151439666748, -2.8039889335632324, -1.60809326171875, -2.6379542350769043, 1.1044921875, -0.584716796875, 0.08447265625
377, 2222902558, -6.707740783691406, 1.8686017990112305, 7.018439292907715, -2.7458348274230957, -1.582173228263855, -2.586587905883789, 1.10595703125, -0.583251953125, 0.08203125
378, 2222919225, -6.705413341522217, 1.865309476852417, 7.014518737792969, -2.754530429840088, -1.638175368309021, -2.53615665435791, 1.1044921875, -0.585693359375, 0.08154296875
379, 2222935892, -6.709114074707031, 1.8755306005477905, 7.004014492034912, -2.6946871280670166, -1.6265603303909302, -2.4472296237945557, 1.106689453125, -0.584228515625, 0.0810546875
380, 2222952559, -6.716098785400391, 1.8857390880584717, 7.03521203994751, -2.6830971240997314, -1.7307016849517822, -2.3510797023773193, 1.106689453125, -0.584228515625, 0.08251953125
381, 2222969226, -6.718770503997803, 1.8873236179351807, 7.029582977294922, -2.553612232208252, -1.68703293800354, -2.319411039352417, 1.1025390625, -0.585693359375, 0.08154296875
382, 2222985893, -6.710659503936768, 1.8700871467590332, 7.029422760009766, -2.5923514366149902, -1.5910099744796753, -2.292503595352173, 1.1044921875, -0.585205078125, 0.08349609375
383, 2223002560, -6.716925144195557, 1.8650860786437988, 7.018776893615723, -2.5617313385009766, -1.7284349203109741, -2.3314478397369385, 1.10546875, -0.584716796875, 0.08203125
384, 2223019227, -6.706791877746582, 1.8593944311141968, 7.027573585510254, -2.657241106033325, -1.741625428199768, -2.3252620697021484, 1.106689453125, -0.584716796875, 0.0830078125
385, 2223035894, -6.705879211425781, 1.8666143417358398, 7.016463279724121, -2.7116425037384033, -1.7298563718795776, -2.2719364166259766, 1.10498046875, -0.583251953125, 0.080810546875
386, 2223052561, -6.70809268951416, 1.88178288936615, 7.024575710296631, -2.6720197200775146, -1.7205462455749512, -2.2402405738830566, 1.1044921875, -0.584228515625, 0.08349609375
387, 2223069228, -6.723654747009277, 1.8778715133666992, 7.033067226409912, -2.6572797298431396, -1.6643518209457397, -2.31784725189209, 1.10546875, -0.584716796875, 0.0810546875
388, 2223085895, -6.686839580535889, 1.8830586671829224, 7.02262020111084, -2.8145670890808105, -1.732648253440857, -2.2915430068969727, 1.103515625, -0.583740234375, 0.08203125
389, 2223102562, -6.693531036376953, 1.8731790781021118, 7.035752773284912, -2.9072976112365723, -1.8511193990707397, -2.3237504959106445, 1.105712890625, -0.584716796875, 0.08251953125
390, 2223119229, -6.706868648529053, 1.8659687042236328, 7.012698650360107, -2.8802247047424316, -1.8147236108779907, -2.4027652740478516, 1.105224609375, -0.586669921875, 0.08349609375
391, 2223135896, -6.697323799133301, 1.8643581867218018, 7.018187999725342, -2.925239086151123, -1.7913904190063477, -2.3577001094818115, 1.105712890625, -0.584228515625, 0.080322265625
392, 2223152563, -6.710564613342285, 1.8666841983795166, 7.0347466468811035, -2.8233134746551514, -1.7504103183746338, -2.3684189319610596, 1.107666015625, -0.585205078125, 0.08349609375
393, 2223169230, -6.702234745025635, 1.8528074026107788, 7.039304256439209, -2.916991949081421, -1.9058154821395874, -2.3873343467712402, 1.107177734375, -0.584228515625, 0.08154296875
394, 2223185897, -6.704829692840576, 1.8742519617080688, 7.031659126281738, -2.9361376762390137, -1.8494418859481812, -2.5101726055145264, 1.10205078125, -0.582763671875, 0.08349609375
395, 2223202564, -6.687167644500732, 1.8808358907699585, 7.026657581329346, -3.00331974029541, -1.8362641334533691, -2.5386412143707275, 1.106689453125, -0.582275390625, 0.079345703125
396, 2223219231, -6.719498157501221, 1.8541009426116943, 7.052608966827393, -2.74564266204834, -1.6643130779266357, -2.5790066719055176, 1.10498046875, -0.582763671875, 0.08203125
397, 2223235898, -6.709682464599609, 1.8421838283538818, 7.025771617889404, -2.96441388130188, -1.8175925016403198, -2.640195608139038, 1.1064453125, -0.582275390625, 0.0810546875
398, 2223252565, -6.723633289337158, 1.8478044271469116, 7.031168460845947, -3.029649496078491, -1.7579659223556519, -2.621575117111206, 1.103515625, -0.583740234375, 0.08154296875
399, 2223269232, -6.700575828552246, 1.8542377948760986, 7.050742149353027, -3.046157121658325, -1.6722404956817627, -2.641847848892212, 1.10498046875, -0.584228515625, 0.08056640625
400, 2223285899, -6.696859359741211, 1.8651540279388428, 7.028243541717529, -3.041341543197632, -1.6137794256210327, -2.6436405181884766, 1.10498046875, -0.58056640625, 0.079833984375
401, 2223302566, -6.696793556213379, 1.8651551008224487, 7.035553932189941, -3.0826680660247803, -1.4071873426437378, -2.6697144508361816, 1.10400390625, -0.581787109375, 0.079345703125
402, 2223319233, -6.692784309387207, 1.8300111293792725, 7.062888145446777, -3.128898859024048, -1.3053768873214722, -2.807945966720581, 1.10595703125, -0.5810546875, 0.08154296875
403, 2223335900, -6.705378532409668, 1.85161292552948, 7.036699295043945, -3.270524501800537, -1.2095087766647339, -2.908156156539917, 1.106689453125, -0.581787109375, 0.08251953125
404, 2223352567, -6.692939758300781, 1.8289034366607666, 7.006766319274902, -3.101531744003296, -1.242997169494629, -2.8437397480010986, 1.10400390625, -0.581787109375, 0.080322265625
405, 2223369234, -6.6984782218933105, 1.8351292610168457, 7.039624214172363, -3.08353853225708, -1.2776254415512085, -2.6476356983184814, 1.10302734375, -0.582763671875, 0.08251953125
406, 2223385901, -6.693063735961914, 1.8234387636184692, 7.030163764953613, -3.024219274520874, -1.4271780252456665, -2.591813087463379, 1.10205078125, -0.58056640625, 0.080322265625
407, 2223402568, -6.709763050079346, 1.8369905948638916, 7.012489318847656, -2.8199586868286133, -1.4192383289337158, -2.569363832473755, 1.1064453125, -0.581787109375, 0.079833984375
408, 2223419235, -6.704067707061768, 1.8409812450408936, 7.0445027351379395, -2.6573305130004883, -1.4307512044906616, -2.4786691665649414, 1.107177734375, -0.580078125, 0.08154296875
409, 2223435902, -6.697446823120117, 1.835166335105896, 7.023637771606445, -2.5731284618377686, -1.5248647928237915, -2.3309476375579834, 1.10546875, -0.582763671875, 0.08154296875
410, 2223452569, -6.699282646179199, 1.843992829322815, 7.050113201141357, -2.6705596446990967, -1.5299619436264038, -2.4782466888427734, 1.10400390625, -0.57958984375, 0.080322265625
411, 2223469236, -6.701934337615967, 1.830352544784546, 7.031482219696045, -2.7607293128967285, -1.4877521991729736, -2.5216474533081055, 1.10546875, -0.58056640625, 0.079833984375
412, 2223485903, -6.713655471801758, 1.8163400888442993, 7.038729190826416, -2.6785380840301514, -1.1209912300109863, -2.540677785873413, 1.10498046875, -0.58056640625, 0.081298828125
413, 2223502570, -6.710144996643066, 1.8088099956512451, 7.021845817565918, -2.6705527305603027, -1.0318738222122192, -2.3263516426086426, 1.10400390625, -0.58056640625, 0.08349609375
414, 2223519237, -6.697484016418457, 1.8516069650650024, 7.008103847503662, -2.840589761734009, -1.1218748092651367, -2.543149471282959, 1.106689453125, -0.582275390625, 0.0810546875
415, 2223535904, -6.7086381912231445, 1.8481261730194092, 7.03989839553833, -2.996083974838257, -1.133797287940979, -2.5861399173736572, 1.10693359375, -0.5791015625, 0.08203125
416, 2223552571, -6.70444393157959, 1.8251240253448486, 7.02193021774292, -2.7901196479797363, -1.0605707168579102, -2.5636649131774902, 1.10546875, -0.581787109375, 0.08251953125
417, 2223569238, -6.710868835449219, 1.8381128311157227, 7.035107612609863, -2.7102208137512207, -1.136845350265503, -2.491680860519409, 1.1064453125, -0.58056640625, 0.08154296875
418, 2223585905, -6.7296833992004395, 1.8338779211044312, 7.026660919189453, -2.890470027923584, -1.5620800256729126, -2.635610580444336, 1.10400390625, -0.5810546875, 0.083984375
419, 2223602572, -6.711987018585205, 1.8178205490112305, 7.0060505867004395, -3.044517755508423, -2.0586464405059814, -2.6641438007354736, 1.10595703125, -0.5791015625, 0.0810546875
420, 2223619239, -6.707260608673096, 1.8327555656433105, 7.019147872924805, -2.9534263610839844, -2.273357629776001, -2.461956739425659, 1.10498046875, -0.58056640625, 0.081298828125
421, 2223635906, -6.710576057434082, 1.8224711418151855, 7.057985305786133, -2.7944865226745605, -2.177220344543457, -2.347839593887329, 1.108154296875, -0.57861328125, 0.0810546875
422, 2223652573, -6.699628829956055, 1.8311026096343994, 7.034456253051758, -2.7361276149749756, -2.013324737548828, -2.386911392211914, 1.10595703125, -0.580078125, 0.079833984375
423, 2223669240, -6.704063892364502, 1.8310492038726807, 7.012974739074707, -2.7721264362335205, -1.8222923278808594, -2.493204116821289, 1.10595703125, -0.57958984375, 0.080322265625
424, 2223685907, -6.708441734313965, 1.8300095796585083, 7.02663516998291, -2.66808819770813, -1.795091986656189, -2.47491717338562, 1.10400390625, -0.57861328125, 0.080322265625
425, 2223702574, -6.682613849639893, 1.8306061029434204, 7.043399810791016, -2.4059929847717285, -1.8273507356643677, -2.313416004180908, 1.10400390625, -0.580078125, 0.0830078125
426, 2223719241, -6.705581188201904, 1.8119871616363525, 7.016272068023682, -2.3893959522247314, -1.5715440511703491, -2.341052293777466, 1.107177734375, -0.580078125, 0.080322265625
427, 2223735908, -6.699918270111084, 1.7932220697402954, 7.015685081481934, -2.3112003803253174, -1.3745055198669434, -2.2630865573883057, 1.10498046875, -0.580078125, 0.079345703125
428, 2223752575, -6.689864635467529, 1.8369053602218628, 7.023585796356201, -2.1079766750335693, -1.1654419898986816, -2.017205238342285, 1.10498046875, -0.57958984375, 0.078369140625
429, 2223769242, -6.710381031036377, 1.8106099367141724, 7.028061866760254, -2.1199634075164795, -0.9777264595031738, -2.0675854682922363, 1.1044921875, -0.58056640625, 0.08154296875
430, 2223785909, -6.721472263336182, 1.7750953435897827, 7.0513200759887695, -2.0825304985046387, -0.9842961430549622, -2.0291662216186523, 1.10498046875, -0.57958984375, 0.079833984375
431, 2223802576, -6.712785720825195, 1.7697159051895142, 7.042977809906006, -1.9835624694824219, -1.1910288333892822, -1.878665804862976, 1.107177734375, -0.5810546875, 0.0810546875
432, 2223819243, -6.734837532043457, 1.7913447618484497, 7.035375595092773, -1.8547372817993164, -1.0227214097976685, -1.550586223602295, 1.10595703125, -0.58056640625, 0.080810546875
433, 2223835910, -6.721758842468262, 1.8323231935501099, 7.033952236175537, -1.7458641529083252, -1.089372158050537, -1.5295906066894531, 1.1064453125, -0.58154296875, 0.08154296875
434, 2223852577, -6.709640979766846, 1.844252586364746, 7.045568466186523, -1.757504940032959, -0.8847395181655884, -1.6249977350234985, 1.10546875, -0.582763671875, 0.08056640625
435, 2223869244, -6.69473934173584, 1.7349803447723389, 6.999972343444824, -1.7819141149520874, -1.0138275623321533, -1.3891944885253906, 1.10546875, -0.581787109375, 0.0810546875
436, 2223885911, -6.725961685180664, 1.7904165983200073, 6.997373104095459, -1.1125644445419312, -0.901464581489563, -0.549712598323822, 1.10498046875, -0.580078125, 0.08251953125
437, 2223902578, -6.751297950744629, 1.805201768875122, 7.016465663909912, -0.5620579123497009, -0.878041684627533, -0.19121159613132477, 1.107421875, -0.5791015625, 0.08251953125
438, 2223919245, -6.726027011871338, 1.8514883518218994, 7.01965856552124, -0.42253273725509644, -1.1300708055496216, -0.01614880934357643, 1.10693359375, -0.5810546875, 0.08203125
439, 2223935912, -6.705255508422852, 1.833870768547058, 7.033754825592041, -0.327637642621994, -1.1947555541992188, -0.12166032940149307, 1.10546875, -0.583740234375, 0.0810546875
440, 2223952579, -6.712619781494141, 1.827120065689087, 7.017684459686279, 0.15281175076961517, -0.4414604902267456, 0.28653568029403687, 1.10498046875, -0.584716796875, 0.08251953125
441, 2223969246, -6.694157600402832, 1.8485569953918457, 7.055554389953613, 1.9000333547592163, 0.49091222882270813, 0.8694679737091064, 1.105712890625, -0.587158203125, 0.086669921875
442, 2223985913, -6.699343204498291, 1.920554280281067, 7.17543363571167, 4.760882377624512, 2.1386799812316895, 1.5053417682647705, 1.106201171875, -0.584716796875, 0.08447265625
443, 2224002580, -6.777070999145508, 1.7297576665878296, 7.248877048492432, 9.992011070251465, 5.08661413192749, 2.774810552597046, 1.107666015625, -0.59033203125, 0.085693359375
444, 2224019247, -6.949079990386963, 1.5053846836090088, 7.2232747077941895, 16.323226928710938, 9.136429786682129, 6.390794277191162, 1.10888671875, -0.595458984375, 0.0869140625
445, 2224035914, -6.922544479370117, 2.0611391067504883, 6.923939228057861, 22.670734405517578, 5.122200965881348, 12.376222610473633, 1.110107421875, -0.6015625, 0.091064453125
446, 2224052581, -6.579875946044922, 2.39667010307312, 6.755825042724609, 19.36587905883789, -1.291957974433899, 11.336783409118652, 1.109619140625, -0.607177734375, 0.092041015625
447, 2224069248, -6.561749458312988, 2.4177234172821045, 6.708503723144531, 12.436503410339355, 0.01096864603459835, 6.6846184730529785, 1.108642578125, -0.6103515625, 0.091552734375
448, 2224085915, -6.628274440765381, 2.305262327194214, 6.930525779724121, 7.51231575012207, 3.4857678413391113, 2.657952308654785, 1.109130859375, -0.614013671875, 0.093017578125
449, 2224102582, -6.818925857543945, 1.7360870838165283, 7.25482702255249, 9.448511123657227, 8.589345932006836, 3.6980724334716797, 1.1123046875, -0.617431640625, 0.095703125
450, 2224119249, -7.374556541442871, 0.4748263955116272, 7.6051130294799805, 16.230871200561523, 12.671133995056152, 12.963644027709961, 1.115478515625, -0.62353515625, 0.098388671875
451, 2224135916, -7.1756815910339355, 0.5854390263557434, 7.326031684875488, 30.73674201965332, 16.192501068115234, 26.017314910888672, 1.115234375, -0.63134765625, 0.105224609375
452, 2224152583, -6.9182305335998535, -1.285202145576477, 9.618032455444336, 48.94343948364258, 34.11360168457031, 39.703147888183594, 1.115966796875, -0.646240234375, 0.112060546875
453, 2224169250, -3.6253318786621094, -0.22768379747867584, 13.74429702758789, 39.60193634033203, 57.90739059448242, 78.42467498779297, 1.121826171875, -0.66796875, 0.12744140625
454, 2224185917, 3.8410990238189697, -21.099040985107422, 29.947744369506836, -139.97142028808594, 66.66854095458984, 62.56145477294922, 1.125244140625, -0.677734375, 0.140869140625
455, 2224202584, -2.9400365352630615, -35.939308166503906, 37.78251266479492, -92.6901626586914, -17.611583709716797, -17.328004837036133, 1.12646484375, -0.670654296875, 0.14404296875
456, 2224219251, -6.06329870223999, -25.197067260742188, 37.954612731933594, -24.06528663635254, -154.83729553222656, -170.12794494628906, 1.117431640625, -0.64208984375, 0.113525390625
457, 2224235918, -3.989805221557617, -13.838570594787598, 30.999439239501953, -2.9914891719818115, -244.5951690673828, -248.7313995361328, 1.091796875, -0.592529296875, 0.05859375
458, 2224252585, -6.2417778968811035, -5.0031938552856445, 26.076128005981445, -5.439505577087402, -253.58506774902344, -244.37315368652344, 1.058837890625, -0.54345703125, -0.002197265625
459, 2224269252, -7.6432204246521, -0.9743090867996216, 22.612449645996094, -42.469688415527344, -213.9248504638672, -202.91490173339844, 1.025390625, -0.501220703125, -0.05322265625
460, 2224285919, -16.188663482666016, -0.5554564595222473, 25.03382682800293, -62.351985931396484, -181.86907958984375, -161.36029052734375, 0.9931640625, -0.455810546875, -0.0927734375
461, 2224302586, -23.64248275756836, 0.3500186502933502, 24.635498046875, -47.99163055419922, -236.6266632080078, -124.87144470214844, 0.953369140625, -0.424072265625, -0.141357421875
462, 2224319253, -19.12239646911621, 2.2228899002075195, 18.151931762695312, -70.50989532470703, -290.47271728515625, -136.57630920410156, 0.89599609375, -0.39111328125, -0.192626953125
463, 2224335920, -16.507474899291992, 2.8161725997924805, 12.960453033447266, -89.28422546386719, -288.9096984863281, -161.6961212158203, 0.826171875, -0.347412109375, -0.238525390625
464, 2224352587, -15.126233100891113, 5.903601169586182, 9.992008209228516, -81.2200927734375, -266.9954833984375, -171.48703002929688, 0.750732421875, -0.3037109375, -0.276123046875
465, 2224369254, -15.981120109558105, 10.044984817504883, 7.900005340576172, -72.73326873779297, -244.30223083496094, -178.659912109375, 0.673583984375, -0.26611328125, -0.302001953125
466, 2224385921, -19.720266342163086, 15.250974655151367, 5.013030529022217, -58.98573303222656, -234.73207092285156, -170.0416717529297, 0.599365234375, -0.232666015625, -0.32080078125
467, 2224402588, -22.356157302856445, 15.673965454101562, -3.353264093399048, -33.682655334472656, -234.96588134765625, -135.53131103515625, 0.526611328125, -0.2138671875, -0.333251953125
468, 2224419255, -22.232942581176758, 13.901167869567871, -13.52694034576416, 35.694618225097656, -204.19781494140625, -96.14356994628906, 0.4580078125, -0.214599609375, -0.349853515625
469, 2224435922, -21.9179744720459, 14.944146156311035, -21.115785598754883, 81.56861877441406, -135.96853637695312, -61.00859069824219, 0.411865234375, -0.232177734375, -0.364013671875
470, 2224452589, -22.527273178100586, 15.54810905456543, -24.33477020263672, 59.13261795043945, -59.73531723022461, -25.769174575805664, 0.38623046875, -0.250244140625, -0.37255859375
471, 2224469256, -20.675474166870117, 14.731184005737305, -24.128448486328125, 4.793091297149658, 19.977495193481445, 20.63347816467285, 0.38525390625, -0.25390625, -0.3720703125
472, 2224485923, -19.734237670898438, 12.814316749572754, -21.149948120117188, -44.0969123840332, 100.2106704711914, 64.58627319335938, 0.41162109375, -0.249267578125, -0.364501953125
473, 2224502590, -19.551471710205078, 11.363612174987793, -16.000036239624023, -67.01390838623047, 165.95252990722656, 98.01123809814453, 0.4619140625, -0.234130859375, -0.354248046875
474, 2224519257, -19.82682228088379, 11.090422630310059, -9.829195976257324, -68.78771209716797, 209.99876403808594, 123.01557159423828, 0.524169921875, -0.22412109375, -0.336181640625
475, 2224535924, -19.31038475036621, 10.666149139404297, -4.032254219055176, -61.34422302246094, 239.0983123779297, 145.0614776611328, 0.60009765625, -0.22021484375, -0.312744140625
476, 2224552591, -19.05756950378418, 9.981806755065918, 1.6241836547851562, -44.891319274902344, 260.32415771484375, 166.09164428710938, 0.677001953125, -0.2236328125, -0.2802734375
477, 2224569258, -18.64579200744629, 9.268024444580078, 7.300324440002441, -25.734413146972656, 268.85711669921875, 186.5707244873047, 0.759033203125, -0.24169921875, -0.241455078125
478, 2224585925, -18.47334098815918, 7.787421703338623, 11.992303848266602, -7.165693283081055, 267.4144592285156, 206.46722412109375, 0.837158203125, -0.26953125, -0.196533203125
479, 2224602592, -18.83238983154297, 5.202414035797119, 14.634247779846191, 22.906204223632812, 254.6001434326172, 209.01638793945312, 0.908935546875, -0.3095703125, -0.15234375
480, 2224619259, -17.567468643188477, 1.0411607027053833, 16.665267944335938, 74.4403305053711, 242.3070526123047, 190.09742736816406, 0.967529296875, -0.357421875, -0.10595703125
481, 2224635926, -14.17848014831543, 0.3564557731151581, 21.006961822509766, 119.1719970703125, 238.86753845214844, 173.71347045898438, 1.017578125, -0.412109375, -0.056640625
482, 2224652593, -10.490988731384277, 0.35138148069381714, 25.6784725189209, 108.68446350097656, 221.4258575439453, 178.99098205566406, 1.055419921875, -0.4677734375, -0.008544921875
483, 2224669260, -7.674887180328369, -3.461667537689209, 26.14043617248535, 80.52113342285156, 176.94383239746094, 196.01785278320312, 1.0859375, -0.521240234375, 0.03515625
484, 2224685927, -5.541530132293701, -9.018563270568848, 26.715620040893555, 78.9029312133789, 151.21109008789062, 207.76199340820312, 1.103515625, -0.5771484375, 0.07373046875
485, 2224702594, -7.326515197753906, -11.066141128540039, 26.602602005004883, 78.06732940673828, 109.38016510009766, 194.99671936035156, 1.115478515625, -0.63037109375, 0.105224609375
486, 2224719261, -8.061745643615723, -13.02938175201416, 23.34387969970703, 64.65393829345703, 54.79643249511719, 156.35635375976562, 1.119384765625, -0.672607421875, 0.124267578125
487, 2224735928, -8.478187561035156, -14.988929748535156, 19.36472511291504, 63.79262924194336, 23.00790786743164, 93.80427551269531, 1.119384765625, -0.703369140625, 0.13232421875
488, 2224752595, -9.235034942626953, -13.621959686279297, 16.353178024291992, 74.69697570800781, 2.576197862625122, 17.958711624145508, 1.1201171875, -0.71923828125, 0.137451171875
489, 2224769262, -8.87535572052002, -9.30377197265625, 14.747636795043945, 75.89641571044922, -13.288012504577637, -39.230655670166016, 1.12109375, -0.71630859375, 0.140625
490, 2224785929, -6.609256744384766, -2.5589003562927246, 13.954666137695312, 48.483211517333984, -23.359691619873047, -79.39014434814453, 1.1220703125, -0.70556640625, 0.136962890625
491, 2224802596, -2.4485504627227783, -6.972569465637207, 14.790074348449707, -5.9603271484375, -40.85843276977539, -101.25166320800781, 1.12255859375, -0.681396484375, 0.126953125
492, 2224819263, 0.48837801814079285, -4.996623516082764, 14.782515525817871, -43.83384704589844, -16.925376892089844, -118.3763198852539, 1.127685546875, -0.6533203125, 0.12109375
493, 2224835930, -2.021381378173828, -3.84568190574646, 16.362974166870117, -114.56478118896484, 10.21681022644043, -122.05938720703125, 1.130126953125, -0.607666015625, 0.1171875
494, 2224852597, -10.50953197479248, -3.3342504501342773, 9.316350936889648, -61.93543243408203, 16.837989807128906, -55.32493209838867, 1.132080078125, -0.58203125, 0.12109375
495, 2224869264, -9.944453239440918, 2.1952595710754395, 5.296791076660156, -21.991413116455078, -10.518495559692383, -9.909692764282227, 1.131591796875, -0.57275390625, 0.118896484375
496, 2224885931, -6.890311241149902, 2.1676857471466064, 7.925749778747559, -5.725304126739502, -19.51238250732422, 2.425692319869995, 1.12744140625, -0.572265625, 0.1162109375
497, 2224902598, -7.103943824768066, 1.9236621856689453, 6.714232444763184, -2.461036443710327, -14.577657699584961, 1.5102603435516357, 1.12939453125, -0.5712890625, 0.11279296875
498, 2224919265, -6.875102996826172, 2.107377290725708, 6.708530426025391, -3.113957405090332, -18.151153564453125, 1.370991826057434, 1.126953125, -0.573486328125, 0.109130859375
499, 2224935932, -6.660980701446533, 2.6377012729644775, 6.784346580505371, -6.966755390167236, -20.817012786865234, -2.255368709564209, 1.123779296875, -0.574462890625, 0.10546875
500, 2224952599, -6.70963191986084, 1.954661250114441, 7.024372577667236, -9.058248519897461, -16.384618759155273, -5.235177993774414, 1.122802734375, -0.574951171875, 0.09912109375
501, 2224969266, -6.942259788513184, 1.4993544816970825, 7.018349647521973, -6.371355056762695, -11.443941116333008, -3.109140634536743, 1.11865234375, -0.572265625, 0.096435546875
502, 2224985933, -6.8651885986328125, 1.4776560068130493, 7.0719099044799805, -1.0964030027389526, -7.385320663452148, 1.39863920211792, 1.1201171875, -0.5712890625, 0.09716796875
503, 2225002600, -6.864406585693359, 1.698514461517334, 6.961057186126709, 2.3624963760375977, -2.8367605209350586, 3.9884800910949707, 1.11865234375, -0.573974609375, 0.094970703125
504, 2225019267, -6.884105682373047, 1.9682931900024414, 6.787654876708984, 2.683500289916992, -0.7498630285263062, 3.2768311500549316, 1.1181640625, -0.576416015625, 0.09619140625
505, 2225035934, -6.8915863037109375, 2.1424968242645264, 6.843664646148682, 0.06989066302776337, -1.6621235609054565, 0.4248954951763153, 1.120361328125, -0.578125, 0.094970703125
506, 2225052601, -6.866293430328369, 2.058881998062134, 6.879364490509033, -2.393071413040161, -2.9683837890625, -1.9618943929672241, 1.119873046875, -0.577392578125, 0.095458984375
507, 2225069268, -6.840775012969971, 1.9744793176651, 6.902703285217285, -3.6243767738342285, -3.58188796043396, -3.2066073417663574, 1.118896484375, -0.576904296875, 0.094970703125
508, 2225085935, -6.89501428604126, 1.8500620126724243, 6.892293930053711, -3.2880563735961914, -2.375398635864258, -3.37686824798584, 1.118408203125, -0.57861328125, 0.093505859375
509, 2225102602, -6.881670951843262, 1.8426365852355957, 6.862232685089111, -3.1696228981018066, -2.623432159423828, -2.990513324737549, 1.11767578125, -0.577392578125, 0.094482421875
510, 2225119269, -6.8994221687316895, 1.7844470739364624, 6.889801979064941, -2.637775421142578, -2.8807759284973145, -2.395005464553833, 1.1181640625, -0.575439453125, 0.093994140625
511, 2225135936, -6.855805397033691, 1.777866005897522, 6.883800983428955, -2.4496371746063232, -3.0709755420684814, -1.9528403282165527, 1.119384765625, -0.576904296875, 0.092041015625
512, 2225152603, -6.8731231689453125, 1.8710845708847046, 6.883161544799805, -2.3796632289886475, -3.0764567852020264, -1.833741307258606, 1.1181640625, -0.578125, 0.093017578125
513, 2225169270, -6.847164154052734, 1.9432854652404785, 6.878617286682129, -2.7768261432647705, -3.445112943649292, -1.9726898670196533, 1.11572265625, -0.576416015625, 0.093017578125
514, 2225185937, -6.83192777633667, 1.9153740406036377, 6.85070276260376, -3.0066494941711426, -3.8742289543151855, -2.576509952545166, 1.11669921875, -0.578125, 0.095458984375
515, 2225202604, -6.800068378448486, 1.911399483680725, 6.913097381591797, -3.2137155532836914, -4.47553825378418, -2.961712121963501, 1.11865234375, -0.576904296875, 0.092041015625
516, 2225219271, -6.805929660797119, 1.8633328676223755, 6.95468282699585, -3.0749199390411377, -3.9319465160369873, -3.2984676361083984, 1.1181640625, -0.577392578125, 0.093017578125
517, 2225235938, -6.818621635437012, 1.8461021184921265, 6.966153621673584, -1.872826099395752, -3.192840576171875, -3.163642168045044, 1.11767578125, -0.576416015625, 0.09130859375
518, 2225252605, -6.782238960266113, 1.9093728065490723, 6.955829620361328, -1.3272755146026611, -2.1857876777648926, -3.3589134216308594, 1.112548828125, -0.574462890625, 0.08984375
519, 2225269272, -6.793038368225098, 1.8504317998886108, 6.969212055206299, -1.394112229347229, -1.2805325984954834, -3.3522162437438965, 1.11669921875, -0.576904296875, 0.092041015625
520, 2225285939, -6.830078125, 1.7953320741653442, 6.956944942474365, -0.5888615846633911, -0.16050195693969727, -2.894042491912842, 1.1162109375, -0.575439453125, 0.08984375
521, 2225302606, -6.79520320892334, 1.919891357421875, 6.946618556976318, -0.5896811485290527, 0.3938528597354889, -2.8140032291412354, 1.11767578125, -0.576416015625, 0.092041015625
522, 2225319273, -6.831386089324951, 1.829623818397522, 6.904450416564941, -0.311501681804657, 0.28296270966529846, -2.1402101516723633, 1.11767578125, -0.578125, 0.092529296875
523, 2225335940, -6.807675838470459, 1.8783619403839111, 6.865880489349365, -0.6126558184623718, -0.4545741677284241, -1.3576651811599731, 1.118896484375, -0.578125, 0.092529296875
524, 2225352607, -6.8129143714904785, 1.9567631483078003, 6.857914924621582, -1.1484477519989014, -1.1346681118011475, -0.9937086701393127, 1.1162109375, -0.577392578125, 0.094970703125
525, 2225369274, -6.7981648445129395, 1.9789353609085083, 6.8788580894470215, -1.655476689338684, -1.6750320196151733, -1.0852484703063965, 1.1162109375, -0.57958984375, 0.094482421875
526, 2225385941, -6.75750207901001, 1.9842709302902222, 6.8643341064453125, -2.371185541152954, -2.121833086013794, -1.4141156673431396, 1.120361328125, -0.57861328125, 0.093017578125
527, 2225402608, -6.778489112854004, 1.9785001277923584, 6.89054012298584, -3.1800856590270996, -2.342806577682495, -1.9343352317810059, 1.1181640625, -0.578125, 0.091064453125
528, 2225419275, -6.78982400894165, 1.9961440563201904, 6.852168560028076, -3.888366460800171, -3.2912449836730957, -2.4682958126068115, 1.1181640625, -0.57861328125, 0.091064453125
529, 2225435942, -6.791426181793213, 2.011124610900879, 6.84439754486084, -4.8199262619018555, -4.553272247314453, -2.738240957260132, 1.11767578125, -0.5791015625, 0.092529296875
530, 2225452609, -6.739282608032227, 2.0801382064819336, 6.858691215515137, -6.421708106994629, -6.431889533996582, -3.4644391536712646, 1.1162109375, -0.57763671875, 0.09033203125
531, 2225469276, -6.7822771072387695, 1.9793126583099365, 6.900416851043701, -8.42883586883545, -7.533339500427246, -4.367671012878418, 1.114013671875, -0.575439453125, 0.08837890625
532, 2225485943, -6.7815446853637695, 1.8101184368133545, 6.959279537200928, -9.173500061035156, -7.80939245223999, -4.724136829376221, 1.11572265625, -0.574951171875, 0.0888671875
533, 2225502610, -6.806123733520508, 1.709154725074768, 7.031648635864258, -8.473363876342773, -6.62543249130249, -4.332864284515381, 1.112548828125, -0.574462890625, 0.087158203125
534, 2225519277, -6.779381275177002, 1.7765398025512695, 7.028647422790527, -7.503101825714111, -5.715245723724365, -3.9656155109405518, 1.114501953125, -0.573486328125, 0.087158203125
535, 2225535944, -6.775726318359375, 1.720945954322815, 7.06326150894165, -6.565432071685791, -4.856155872344971, -3.4189629554748535, 1.113037109375, -0.572021484375, 0.08203125
536, 2225552611, -6.761575698852539, 1.7894247770309448, 7.0168256759643555, -5.705229759216309, -4.406012535095215, -3.0153067111968994, 1.113525390625, -0.56884765625, 0.08056640625
537, 2225569278, -6.758414268493652, 1.7590878009796143, 7.022051811218262, -5.207190036773682, -4.0880303382873535, -2.9394288063049316, 1.112060546875, -0.56982421875, 0.08056640625
538, 2225585945, -6.752260208129883, 1.7570053339004517, 7.029728889465332, -4.652908802032471, -3.8148601055145264, -2.630330801010132, 1.111083984375, -0.5703125, 0.08251953125
539, 2225602612, -6.755403995513916, 1.7888394594192505, 7.034258842468262, -4.332503795623779, -3.658761978149414, -2.615159511566162, 1.113525390625, -0.568359375, 0.08154296875
540, 2225619279, -6.738897800445557, 1.8025825023651123, 7.0062456130981445, -4.163293361663818, -3.7088725566864014, -2.6276581287384033, 1.112060546875, -0.56787109375, 0.080810546875
541, 2225635946, -6.719550132751465, 1.7474015951156616, 7.025780200958252, -3.716262102127075, -3.5455918312072754, -2.396951675415039, 1.111572265625, -0.56884765625, 0.079833984375
542, 2225652613, -6.734485149383545, 1.7424979209899902, 7.022144794464111, -3.121816873550415, -2.814720869064331, -2.000774621963501, 1.111083984375, -0.5703125, 0.078857421875
543, 2225669280, -6.727906227111816, 1.7456202507019043, 7.063836097717285, -2.747845411300659, -2.463391065597534, -1.79876708984375, 1.1083984375, -0.56640625, 0.082275390625
544, 2225685947, -6.7266950607299805, 1.7694520950317383, 7.03889799118042, -2.578930377960205, -2.23703932762146, -1.6902977228164673, 1.1083984375, -0.5673828125, 0.080810546875
545, 2225702614, -6.719463348388672, 1.7852574586868286, 7.021897792816162, -2.591531753540039, -2.480372667312622, -1.7278586626052856, 1.111328125, -0.56787109375, 0.080810546875
546, 2225719281, -6.723752021789551, 1.7904149293899536, 7.0348429679870605, -2.4228720664978027, -2.2564661502838135, -1.7013877630233765, 1.10986328125, -0.56884765625, 0.079833984375
547, 2225735948, -6.727298259735107, 1.7714558839797974, 7.066137313842773, -2.387744188308716, -2.1641197204589844, -1.7861402034759521, 1.11083984375, -0.568359375, 0.079833984375
548, 2225752615, -6.715271472930908, 1.7803539037704468, 7.0384979248046875, -2.325620174407959, -2.1347544193267822, -1.672432541847229, 1.10986328125, -0.568359375, 0.079345703125
549, 2225769282, -6.719331741333008, 1.7534269094467163, 7.02754020690918, -1.9756869077682495, -1.967375636100769, -1.3898987770080566, 1.10986328125, -0.56982421875, 0.076171875
550, 2225785949, -6.720416069030762, 1.7745977640151978, 7.031407356262207, -1.6831258535385132, -1.7736154794692993, -1.0814834833145142, 1.109375, -0.56982421875, 0.080322265625
551, 2225802616, -6.7074408531188965, 1.7912592887878418, 7.0490899085998535, -1.4802860021591187, -1.7805179357528687, -1.0516061782836914, 1.11083984375, -0.57080078125, 0.077880859375
552, 2225819283, -6.713281631469727, 1.7768348455429077, 7.029750347137451, -1.0594948530197144, -1.5998458862304688, -0.6964604258537292, 1.1103515625, -0.5703125, 0.077880859375
553, 2225835950, -6.703458786010742, 1.7838730812072754, 7.0438103675842285, -0.5374441146850586, -1.3620449304580688, -0.21672187745571136, 1.111083984375, -0.5703125, 0.077880859375
554, 2225852617, -6.719979286193848, 1.800581693649292, 7.037851810455322, -0.24910911917686462, -1.3503782749176025, 0.026605188846588135, 1.112060546875, -0.5703125, 0.078369140625
555, 2225869284, -6.71645450592041, 1.7940040826797485, 7.041604518890381, -0.3981366455554962, -1.662405252456665, 0.040999531745910645, 1.10791015625, -0.56982421875, 0.081298828125
556, 2225885951, -6.688384056091309, 1.8578499555587769, 7.045145034790039, -0.5363427400588989, -1.7311369180679321, -0.0976100042462349, 1.10888671875, -0.5712890625, 0.078857421875
557, 2225902618, -6.698292255401611, 1.8792015314102173, 7.038229465484619, -0.9499237537384033, -1.8559987545013428, -0.5398260951042175, 1.110595703125, -0.574462890625, 0.08154296875
558, 2225919285, -6.710529327392578, 1.8760724067687988, 7.036318778991699, -1.726974606513977, -2.0585567951202393, -1.133387565612793, 1.110107421875, -0.572509765625, 0.076416015625
559, 2225935952, -6.693238735198975, 1.870622992515564, 7.0294904708862305, -2.255352020263672, -2.3375942707061768, -1.720738172531128, 1.110107421875, -0.573486328125, 0.077392578125
560, 2225952619, -6.70889949798584, 1.8627145290374756, 7.038084506988525, -2.376551628112793, -2.442145586013794, -1.875003695487976, 1.110595703125, -0.574951171875, 0.075439453125
561, 2225969286, -6.71044921875, 1.835694432258606, 7.0625786781311035, -2.297318458557129, -2.084195137023926, -1.8621073961257935, 1.1083984375, -0.576416015625, 0.077392578125
562, 2225985953, -6.705998420715332, 1.8238188028335571, 7.032442569732666, -2.174121141433716, -2.0077922344207764, -1.7968589067459106, 1.1083984375, -0.572509765625, 0.0751953125
563, 2226002620, -6.697369575500488, 1.8238707780838013, 7.045082092285156, -1.904189109802246, -1.8106131553649902, -1.5843632221221924, 1.111083984375, -0.57666015625, 0.078369140625
564, 2226019287, -6.689945697784424, 1.866981863975525, 7.028034210205078, -1.6625971794128418, -1.6561683416366577, -1.2875889539718628, 1.110595703125, -0.574951171875, 0.0751953125
565, 2226035954, -6.699934005737305, 1.8574358224868774, 7.046303749084473, -1.7532918453216553, -1.5811487436294556, -1.3694727420806885, 1.109130859375, -0.575927734375, 0.076904296875
566, 2226052621, -6.680669784545898, 1.8616065979003906, 7.023268699645996, -1.9544029235839844, -1.664249300956726, -1.5959147214889526, 1.108642578125, -0.5791015625, 0.076904296875
567, 2226069288, -6.685780048370361, 1.8629130125045776, 7.047984600067139, -2.249089479446411, -1.7431234121322632, -1.9444775581359863, 1.109619140625, -0.575927734375, 0.076904296875
568, 2226085955, -6.702281475067139, 1.8555283546447754, 7.028990268707275, -2.3532822132110596, -1.8227790594100952, -1.9936412572860718, 1.107421875, -0.576416015625, 0.076416015625
569, 2226102622, -6.681210517883301, 1.8476580381393433, 7.057346343994141, -2.336505889892578, -1.9050601720809937, -2.0205862522125244, 1.110107421875, -0.575439453125, 0.076416015625
570, 2226119289, -6.686709880828857, 1.853408932685852, 7.0485453605651855, -2.363858938217163, -1.7998244762420654, -2.100576162338257, 1.10791015625, -0.5771484375, 0.078369140625
571, 2226135956, -6.687582969665527, 1.8506708145141602, 7.057053089141846, -2.3560996055603027, -1.6959450244903564, -2.010392189025879, 1.110107421875, -0.57666015625, 0.076904296875
572, 2226152623, -6.701897144317627, 1.8529894351959229, 7.042501449584961, -2.1053380966186523, -1.5856821537017822, -1.8392478227615356, 1.10693359375, -0.57666015625, 0.077880859375
573, 2226169290, -6.6911773681640625, 1.859012246131897, 7.0399885177612305, -2.1001391410827637, -1.5750274658203125, -1.8258397579193115, 1.109619140625, -0.575927734375, 0.078369140625
574, 2226185957, -6.690878868103027, 1.8626399040222168, 7.0356831550598145, -1.9906448125839233, -1.5138771533966064, -1.9034206867218018, 1.10791015625, -0.57763671875, 0.078369140625
575, 2226202624, -6.683853626251221, 1.8522666692733765, 7.0384016036987305, -1.9387532472610474, -1.389219880104065, -1.7656370401382446, 1.109619140625, -0.57763671875, 0.077392578125
576, 2226219291, -6.7005767822265625, 1.8658825159072876, 7.049210071563721, -1.948204517364502, -1.5689444541931152, -1.8323071002960205, 1.110595703125, -0.57666015625, 0.076416015625
577, 2226235958, -6.679764270782471, 1.8446440696716309, 7.0246262550354, -2.037515878677368, -1.6006273031234741, -1.7585809230804443, 1.110595703125, -0.575439453125, 0.078857421875
578, 2226252625, -6.687188148498535, 1.8807272911071777, 7.045331954956055, -1.9728310108184814, -1.6358447074890137, -1.7423936128616333, 1.10693359375, -0.578125, 0.07470703125
579, 2226269292, -6.693629741668701, 1.8782482147216797, 7.045212745666504, -1.878448247909546, -1.6581151485443115, -1.601382851600647, 1.108642578125, -0.5771484375, 0.078369140625
580, 2226285959, -6.688449382781982, 1.8712431192398071, 7.020445346832275, -1.8242645263671875, -1.5568552017211914, -1.7063180208206177, 1.108642578125, -0.5771484375, 0.076416015625
581, 2226302626, -6.696074962615967, 1.8835113048553467, 7.031763553619385, -2.066317319869995, -1.734722375869751, -1.8258013725280762, 1.10791015625, -0.57666015625, 0.076171875
582, 2226319293, -6.692988872528076, 1.889975905418396, 7.02549934387207, -2.2094027996063232, -1.9181352853775024, -1.7842704057693481, 1.109619140625, -0.578125, 0.076416015625
583, 2226335960, -6.678223609924316, 1.9150241613388062, 7.056142330169678, -2.3075759410858154, -1.9873660802841187, -1.9215798377990723, 1.107666015625, -0.580078125, 0.077392578125
584, 2226352627, -6.684228420257568, 1.900224208831787, 7.04011344909668, -2.4698967933654785, -1.8736846446990967, -2.062629222869873, 1.110595703125, -0.5771484375, 0.076904296875
585, 2226369294, -6.675746440887451, 1.8840700387954712, 7.0373215675354, -2.473226547241211, -1.8657954931259155, -2.1927292346954346, 1.109130859375, -0.57861328125, 0.076416015625
586, 2226385961, -6.669017314910889, 1.9064780473709106, 7.026411056518555, -2.4807441234588623, -1.9462709426879883, -2.233158826828003, 1.109130859375, -0.57666015625, 0.07470703125
587, 2226402628, -6.670162200927734, 1.8724112510681152, 7.052253723144531, -2.500734567642212, -1.6739182472229004, -2.225308418273926, 1.110595703125, -0.5771484375, 0.076416015625
588, 2226419295, -6.675000190734863, 1.8837919235229492, 7.03835391998291, -2.5085463523864746, -1.7343511581420898, -2.215780735015869, 1.109130859375, -0.57861328125, 0.075927734375
589, 2226435962, -6.676473140716553, 1.8764513731002808, 7.04118013381958, -2.529228448867798, -1.601933479309082, -2.2650976181030273, 1.109130859375, -0.5771484375, 0.076416015625
590, 2226452629, -6.686446189880371, 1.8833231925964355, 7.042928695678711, -2.637660026550293, -1.5541660785675049, -2.3310890197753906, 1.108642578125, -0.578125, 0.076416015625
591, 2226469296, -6.691589832305908, 1.8664461374282837, 7.052523136138916, -2.6601736545562744, -1.6005377769470215, -2.362349271774292, 1.108642578125, -0.5771484375, 0.07568359375
592, 2226485963, -6.686840534210205, 1.8610254526138306, 7.062251091003418, -2.593696117401123, -1.4250011444091797, -2.4052891731262207, 1.107421875, -0.578125, 0.078369140625
593, 2226502630, -6.68332576751709, 1.8732624053955078, 7.025343418121338, -2.562281608581543, -1.4072386026382446, -2.2753682136535645, 1.110107421875, -0.5771484375, 0.077392578125
594, 2226519297, -6.689978122711182, 1.8946197032928467, 7.032955646514893, -2.3464560508728027, -1.5473527908325195, -2.2194936275482178, 1.108642578125, -0.57763671875, 0.075927734375
595, 2226535964, -6.691064834594727, 1.8642572164535522, 7.054419994354248, -2.2383577823638916, -1.3650543689727783, -2.0983970165252686, 1.109130859375, -0.5771484375, 0.077880859375
596, 2226552631, -6.681804180145264, 1.8684425354003906, 7.041652202606201, -1.9477437734603882, -1.4337862730026245, -1.8669224977493286, 1.107666015625, -0.5791015625, 0.076904296875
597, 2226569298, -6.681670665740967, 1.8682522773742676, 7.048966884613037, -1.8520417213439941, -1.3224350214004517, -1.749385952949524, 1.1064453125, -0.57958984375, 0.078369140625
598, 2226585965, -6.693975448608398, 1.9113165140151978, 7.013945579528809, -1.931044101715088, -1.4399845600128174, -1.8542828559875488, 1.108642578125, -0.57763671875, 0.07470703125
599, 2226602632, -6.6895527839660645, 1.8772478103637695, 7.048974990844727, -2.025439500808716, -1.5302306413650513, -1.8458943367004395, 1.1064453125, -0.57861328125, 0.077880859375
600, 2226619299, -6.685605049133301, 1.8991081714630127, 7.044378757476807, -2.0647037029266357, -1.6527875661849976, -1.968809723854065, 1.110107421875, -0.57861328125, 0.076904296875
601, 2226635966, -6.682651042938232, 1.8896793127059937, 7.029242515563965, -2.112203598022461, -1.554200530052185, -1.8777718544006348, 1.110107421875, -0.580078125, 0.077392578125
602, 2226652633, -6.699916362762451, 1.8847178220748901, 7.047440528869629, -2.1388142108917236, -1.4779423475265503, -1.9236546754837036, 1.107177734375, -0.5810546875, 0.077392578125
603, 2226669300, -6.662508487701416, 1.9097295999526978, 7.053496837615967, -2.1077585220336914, -1.4424687623977661, -1.9624192714691162, 1.107421875, -0.5791015625, 0.076904296875
604, 2226685967, -6.689568519592285, 1.8861976861953735, 7.043471813201904, -2.146049737930298, -1.460564136505127, -2.0166285037994385, 1.109619140625, -0.57958984375, 0.076904296875
605, 2226702634, -6.6813435554504395, 1.883143424987793, 7.031708717346191, -2.0060503482818604, -1.5859253406524658, -2.067354679107666, 1.109130859375, -0.57958984375, 0.077880859375
606, 2226719301, -6.688236236572266, 1.8857641220092773, 7.036575794219971, -1.6530052423477173, -1.2344679832458496, -1.967221736907959, 1.109130859375, -0.57763671875, 0.078369140625
607, 2226735968, -6.672774791717529, 1.8775274753570557, 7.038882732391357, -1.5819555521011353, -1.170654058456421, -1.8508507013320923, 1.112060546875, -0.57958984375, 0.074951171875
608, 2226752635, -6.679837703704834, 1.8929908275604248, 7.044036865234375, -1.6696661710739136, -1.2320092916488647, -1.7787506580352783, 1.109619140625, -0.580078125, 0.076416015625
609, 2226769302, -6.678253650665283, 1.9199388027191162, 7.044592380523682, -1.835726261138916, -1.4115670919418335, -1.9070833921432495, 1.110107421875, -0.5810546875, 0.076416015625
610, 2226785969, -6.688904762268066, 1.916232943534851, 7.047642230987549, -2.2716031074523926, -1.4532132148742676, -2.1642603874206543, 1.110595703125, -0.5810546875, 0.075927734375
611, 2226802636, -6.672842502593994, 1.915124773979187, 7.01641321182251, -2.415648937225342, -1.6037391424179077, -2.2093896865844727, 1.108642578125, -0.58056640625, 0.077392578125
612, 2226819303, -6.68173885345459, 1.8919545412063599, 7.039510250091553, -2.2891733646392822, -1.5172065496444702, -2.191896438598633, 1.111572265625, -0.58203125, 0.077392578125
613, 2226835970, -6.680762767791748, 1.9026820659637451, 7.03348970413208, -2.3450605869293213, -1.6955734491348267, -2.1802425384521484, 1.110107421875, -0.5810546875, 0.075927734375
614, 2226852637, -6.6732707023620605, 1.921181559562683, 7.027338027954102, -2.3804445266723633, -1.5055017471313477, -2.1816513538360596, 1.109619140625, -0.580078125, 0.07373046875
615, 2226869304, -6.677679538726807, 1.9324979782104492, 7.040056228637695, -2.4315929412841797, -1.6414154767990112, -2.2538535594940186, 1.108154296875, -0.580078125, 0.077880859375
616, 2226885971, -6.682803153991699, 1.9082776308059692, 7.0214738845825195, -2.45342755317688, -1.5835180282592773, -2.342102289199829, 1.110107421875, -0.58203125, 0.075927734375
617, 2226902638, -6.685374736785889, 1.90852952003479, 7.0370869636535645, -2.4032909870147705, -1.4378713369369507, -2.4199647903442383, 1.107666015625, -0.580078125, 0.075927734375
618, 2226919305, -6.676156044006348, 1.8787716627120972, 7.020359992980957, -2.2775964736938477, -1.3638249635696411, -2.2955894470214844, 1.111572265625, -0.582275390625, 0.077392578125
619, 2226935972, -6.690812110900879, 1.8998454809188843, 7.024936676025391, -2.2059192657470703, -1.3915764093399048, -2.1806142330169678, 1.109130859375, -0.58056640625, 0.077392578125
620, 2226952639, -6.677043437957764, 1.9182250499725342, 7.045331001281738, -2.277097225189209, -1.4242838621139526, -2.230353832244873, 1.109130859375, -0.58056640625, 0.078369140625
621, 2226969306, -6.684187889099121, 1.9005082845687866, 7.028689384460449, -2.4236786365509033, -1.5314857959747314, -2.3679451942443848, 1.108154296875, -0.580078125, 0.076904296875
622, 2226985973, -6.68123722076416, 1.90631103515625, 7.047786235809326, -2.515256881713867, -1.4887125492095947, -2.3411672115325928, 1.107177734375, -0.580078125, 0.079833984375
623, 2227002640, -6.688290119171143, 1.9190657138824463, 7.026602268218994, -2.608461380004883, -1.5330097675323486, -2.315721035003662, 1.110595703125, -0.57958984375, 0.079345703125
624, 2227019307, -6.67791748046875, 1.9036827087402344, 7.026202201843262, -2.715765953063965, -1.514466404914856, -2.47896409034729, 1.110107421875, -0.578125, 0.078369140625
625, 2227035974, -6.686821460723877, 1.8911715745925903, 7.02423620223999, -2.701896905899048, -1.6565271615982056, -2.536067485809326, 1.110595703125, -0.57958984375, 0.075439453125
626, 2227052641, -6.68772554397583, 1.891281247138977, 7.030589580535889, -2.6511197090148926, -1.5891656875610352, -2.478092908859253, 1.108642578125, -0.57861328125, 0.076904296875
627, 2227069308, -6.6917314529418945, 1.8881644010543823, 7.038717269897461, -2.567673444747925, -1.5179239511489868, -2.4680910110473633, 1.108642578125, -0.58056640625, 0.076904296875
628, 2227085975, -6.6888346672058105, 1.899316430091858, 7.031601905822754, -2.623931884765625, -1.6235765218734741, -2.4344489574432373, 1.108154296875, -0.57958984375, 0.077880859375
629, 2227102642, -6.683682918548584, 1.9108482599258423, 7.044895172119141, -2.6263134479522705, -1.6064798831939697, -2.298509359359741, 1.109130859375, -0.58056640625, 0.078369140625
630, 2227119309, -6.6953444480896, 1.890921711921692, 7.050296306610107, -2.5443146228790283, -1.60140860080719, -2.341615915298462, 1.111083984375, -0.58154296875, 0.077392578125
631, 2227135976, -6.6998291015625, 1.8853226900100708, 7.0395684242248535, -2.4792964458465576, -1.658691167831421, -2.3557791709899902, 1.108154296875, -0.58056640625, 0.078857421875
632, 2227152643, -6.686491966247559, 1.8940328359603882, 7.066406726837158, -2.498185634613037, -1.6367284059524536, -2.3018646240234375, 1.109130859375, -0.58056640625, 0.076904296875
633, 2227169310, -6.671015739440918, 1.9209644794464111, 7.047672271728516, -2.5517942905426025, -1.7059470415115356, -2.2890875339508057, 1.10693359375, -0.5791015625, 0.077392578125
634, 2227185977, -6.681007385253906, 1.891917109489441, 7.017389297485352, -2.595079183578491, -1.635921835899353, -2.379842758178711, 1.110107421875, -0.58056640625, 0.079345703125
635, 2227202644, -6.686491966247559, 1.887172818183899, 7.057134628295898, -2.591326951980591, -1.6830105781555176, -2.326683759689331, 1.109130859375, -0.5810546875, 0.078369140625
636, 2227219311, -6.681844234466553, 1.9003000259399414, 7.041399955749512, -2.5811970233917236, -1.7125294208526611, -2.370314836502075, 1.110107421875, -0.5791015625, 0.076904296875
637, 2227235978, -6.680893898010254, 1.8999040126800537, 7.0460662841796875, -2.64963436126709, -1.7751269340515137, -2.500850200653076, 1.110107421875, -0.578125, 0.077392578125
638, 2227252645, -6.684422969818115, 1.8841007947921753, 7.046670436859131, -2.6712896823883057, -1.6541708707809448, -2.454490900039673, 1.109619140625, -0.57763671875, 0.076416015625
639, 2227269312, -6.6859941482543945, 1.8889856338500977, 7.042324066162109, -2.6983494758605957, -1.6545677185058594, -2.5200464725494385, 1.1064453125, -0.58056640625, 0.076416015625
640, 2227285979, -6.686517238616943, 1.8757590055465698, 7.051845073699951, -2.6923177242279053, -1.6240758895874023, -2.4167890548706055, 1.1064453125, -0.57861328125, 0.078857421875
641, 2227302646, -6.690072536468506, 1.870117425918579, 7.0517578125, -2.657036304473877, -1.6407625675201416, -2.3863742351531982, 1.111083984375, -0.5771484375, 0.08056640625
642, 2227319313, -6.704992294311523, 1.8736944198608398, 7.028379440307617, -2.5655088424682617, -1.6361392736434937, -2.350938558578491, 1.110107421875, -0.578125, 0.077392578125
643, 2227335980, -6.682979106903076, 1.9023282527923584, 7.016854763031006, -2.5202255249023438, -1.543510913848877, -2.33276629447937, 1.112060546875, -0.580078125, 0.076416015625
644, 2227352647, -6.685905456542969, 1.9007424116134644, 7.051443576812744, -2.5483360290527344, -1.505719542503357, -2.4097073078155518, 1.109130859375, -0.5791015625, 0.078369140625
645, 2227369314, -6.682951927185059, 1.8980011940002441, 7.010753154754639, -2.595719575881958, -1.520472526550293, -2.485098123550415, 1.107421875, -0.5791015625, 0.076904296875
646, 2227385981, -6.683278560638428, 1.9002728462219238, 7.050824165344238, -2.669048309326172, -1.4221326112747192, -2.4725096225738525, 1.108642578125, -0.5791015625, 0.076416015625
647, 2227402648, -6.6848320960998535, 1.8846070766448975, 7.040359020233154, -2.6294515132904053, -1.458182454109192, -2.3910868167877197, 1.109619140625, -0.578125, 0.075439453125
648, 2227419315, -6.693427085876465, 1.9040555953979492, 7.067983627319336, -2.671264171600342, -1.5481470823287964, -2.446281909942627, 1.109130859375, -0.5791015625, 0.076416015625
649, 2227435982, -6.684158802032471, 1.8969240188598633, 7.0473480224609375, -2.699988842010498, -1.5966960191726685, -2.4815890789031982, 1.109619140625, -0.57763671875, 0.077392578125
650, 2227452649, -6.68007755279541, 1.886183261871338, 7.059530735015869, -2.7544028759002686, -1.5644111633300781, -2.401613712310791, 1.108154296875, -0.5791015625, 0.075439453125
651, 2227469316, -6.691175937652588, 1.8902488946914673, 7.055348873138428, -2.744208812713623, -1.5448302030563354, -2.4722917079925537, 1.107421875, -0.578125, 0.077392578125
652, 2227485983, -6.6901679039001465, 1.8898967504501343, 7.0569071769714355, -2.698042154312134, -1.6052634716033936, -2.550666570663452, 1.1064453125, -0.57861328125, 0.079833984375
653, 2227502650, -6.684708118438721, 1.8765902519226074, 7.058414459228516, -2.6112918853759766, -1.4732811450958252, -2.471958875656128, 1.110107421875, -0.57861328125, 0.077392578125
654, 2227519317, -6.693735599517822, 1.877460241317749, 7.044361591339111, -2.7176363468170166, -1.564884901046753, -2.4488048553466797, 1.109619140625, -0.580078125, 0.076904296875
655, 2227535984, -6.688523292541504, 1.887554407119751, 7.071190357208252, -2.640951633453369, -1.5458035469055176, -2.4766845703125, 1.110107421875, -0.578125, 0.07470703125
656, 2227552651, -6.68930721282959, 1.8780711889266968, 7.048788547515869, -2.653156042098999, -1.5953513383865356, -2.40403413772583, 1.109619140625, -0.57958984375, 0.077392578125
