sep=,
DeviceTag:,B,,,,,,,,,,,,,,,,,
FirmwareVersion:,2.2.1,,,,,,,,,,,,,,,,,
AppVersion:,2023.6.1,,,,,,,,,,,,,,,,,
SyncStatus:,Synced,,,,,,,,,,,,,,,,,
OutputRate:,60Hz,,,,,,,,,,,,,,,,,
FilterProfile:,General,,,,,,,,,,,,,,,,,
Measurement Mode:,Inertial Mode - Rate quantities (with mag),,,,,,,,,,,,,,,,,
StartTime:,2023-12-05 14:47:38.844 +0200,,,,,,,,,,,,,,,,,
 2023,,,,,,,,,,,,,,,,,,,

PacketCounter,SampleTimeFine,Acc_X,Acc_Y,Acc_Z,Gyr_X,Gyr_Y,Gyr_Z,Mag_X,Mag_Y,Mag_Z
1, 2216635766, -7.339990615844727, -1.39786696434021, 6.1897382736206055, -0.34563055634498596, -0.7335221171379089, -1.3690755367279053, 0.8818359375, 0.285888671875, -0.390869140625
2, 2216652433, -7.331273078918457, -1.3797556161880493, 6.188104629516602, -0.405141681432724, -0.6298930644989014, -1.3973392248153687, 0.878662109375, 0.287353515625, -0.389892578125
3, 2216669100, -7.33355712890625, -1.3881170749664307, 6.191613674163818, -0.4325985312461853, -0.6052921414375305, -1.4244630336761475, 0.880859375, 0.287353515625, -0.38916015625
4, 2216685767, -7.332067966461182, -1.389248251914978, 6.200934886932373, -0.4447261393070221, -0.6098512411117554, -1.4646751880645752, 0.88232421875, 0.287353515625, -0.389892578125
5, 2216702434, -7.338287353515625, -1.384825348854065, 6.200695991516113, -0.33706316351890564, -0.777563214302063, -1.463894009590149, 0.880859375, 0.286865234375, -0.391845703125
6, 2216719101, -7.32999324798584, -1.3985933065414429, 6.198792457580566, -0.34381207823753357, -0.7956328392028809, -1.357383370399475, 0.880859375, 0.287841796875, -0.393310546875
7, 2216735768, -7.3274922370910645, -1.4008612632751465, 6.193343639373779, -0.27250632643699646, -0.8219500184059143, -1.4524322748184204, 0.88037109375, 0.286376953125, -0.391845703125
8, 2216752435, -7.337776184082031, -1.398912787437439, 6.201987266540527, -0.30509844422340393, -0.7072945833206177, -1.4028459787368774, 0.87939453125, 0.287841796875, -0.38818359375
9, 2216769102, -7.316465854644775, -1.4067151546478271, 6.193137168884277, -0.38695669174194336, -0.6663144826889038, -1.496114730834961, 0.8798828125, 0.286376953125, -0.388671875
10, 2216785769, -7.333874702453613, -1.3802860975265503, 6.241266250610352, -0.6255133152008057, -0.1662520319223404, -1.7644203901290894, 0.8818359375, 0.287841796875, -0.391357421875
11, 2216802436, -7.335421562194824, -1.386598825454712, 6.210204124450684, -0.8532231450080872, 0.2655844986438751, -1.9658900499343872, 0.88330078125, 0.286376953125, -0.391357421875
12, 2216819103, -7.330638885498047, -1.410002589225769, 6.18048620223999, -0.9517423510551453, 0.37423357367515564, -2.1015989780426025, 0.8828125, 0.287841796875, -0.38916015625
13, 2216835770, -7.331376552581787, -1.430659532546997, 6.186980247497559, -0.8201953768730164, 0.19147412478923798, -1.8680236339569092, 0.88037109375, 0.287353515625, -0.38818359375
14, 2216852437, -7.336300849914551, -1.424025535583496, 6.195156097412109, -0.7458032965660095, 0.05773742496967316, -1.797934651374817, 0.879638671875, 0.288330078125, -0.389404296875
15, 2216869104, -7.346649646759033, -1.4028563499450684, 6.189910411834717, -0.6084681153297424, -0.11223486065864563, -1.623179316520691, 0.8798828125, 0.286376953125, -0.388671875
16, 2216885771, -7.344725608825684, -1.4055633544921875, 6.173476696014404, -0.5305670499801636, -0.34166061878204346, -1.5553439855575562, 0.880859375, 0.286865234375, -0.38720703125
17, 2216902438, -7.347289562225342, -1.4167197942733765, 6.179226875305176, -0.48729440569877625, -0.4385021924972534, -1.4821428060531616, 0.88232421875, 0.28955078125, -0.38916015625
18, 2216919105, -7.3362250328063965, -1.4291976690292358, 6.186772346496582, -0.36510908603668213, -0.5761705040931702, -1.4345803260803223, 0.8837890625, 0.288818359375, -0.38671875
19, 2216935772, -7.337645053863525, -1.4326220750808716, 6.171804428100586, -0.28699028491973877, -0.586044192314148, -1.3067470788955688, 0.8818359375, 0.287841796875, -0.390380859375
20, 2216952439, -7.330667018890381, -1.4186819791793823, 6.1871256828308105, -0.1560581773519516, -0.7051048278808594, -1.2298963069915771, 0.8818359375, 0.287841796875, -0.38720703125
21, 2216969106, -7.339426040649414, -1.4376041889190674, 6.153240203857422, -0.2052089273929596, -0.8514173030853271, -1.1653906106948853, 0.8818359375, 0.287841796875, -0.38916015625
22, 2216985773, -7.3431315422058105, -1.4103271961212158, 6.162861347198486, -0.1586962789297104, -0.811077356338501, -1.1525459289550781, 0.88232421875, 0.289306640625, -0.388671875
23, 2217002440, -7.354379177093506, -1.4176219701766968, 6.192976951599121, -0.19528405368328094, -0.8891961574554443, -1.1821541786193848, 0.8818359375, 0.286376953125, -0.38818359375
24, 2217019107, -7.331367015838623, -1.414156436920166, 6.175802707672119, -0.1623973250389099, -0.9507562518119812, -1.1430563926696777, 0.879150390625, 0.288330078125, -0.38818359375
25, 2217035774, -7.334541320800781, -1.4163880348205566, 6.175600528717041, -0.10257887095212936, -1.0494675636291504, -1.2274373769760132, 0.88134765625, 0.288818359375, -0.38916015625
26, 2217052441, -7.320894241333008, -1.4342296123504639, 6.175531387329102, 0.026605192571878433, -1.2789573669433594, -1.1036896705627441, 0.88037109375, 0.288818359375, -0.38818359375
27, 2217069108, -7.316956520080566, -1.4189960956573486, 6.190513610839844, 0.07168354094028473, -1.3778865337371826, -1.115919828414917, 0.88037109375, 0.289306640625, -0.3876953125
28, 2217085775, -7.3397674560546875, -1.404127597808838, 6.1849799156188965, -0.015431651845574379, -1.1286492347717285, -1.178939700126648, 0.8818359375, 0.289794921875, -0.389404296875
29, 2217102442, -7.3265533447265625, -1.403433084487915, 6.193821907043457, -0.23568809032440186, -0.874366283416748, -1.2751026153564453, 0.88232421875, 0.28955078125, -0.390380859375
30, 2217119109, -7.336692810058594, -1.4270387887954712, 6.159340858459473, -0.3235524296760559, -0.7255693674087524, -1.4406887292861938, 0.8818359375, 0.287353515625, -0.3876953125
31, 2217135776, -7.324917316436768, -1.4120612144470215, 6.207387924194336, -0.2795754373073578, -0.7722613215446472, -1.4638553857803345, 0.880126953125, 0.290283203125, -0.388916015625
32, 2217152443, -7.317009449005127, -1.4206273555755615, 6.214346408843994, -0.38531744480133057, -0.7306406497955322, -1.4383323192596436, 0.880126953125, 0.29052734375, -0.38720703125
33, 2217169110, -7.327884674072266, -1.40342378616333, 6.195341110229492, -0.46995463967323303, -0.5106532573699951, -1.4841407537460327, 0.88134765625, 0.288818359375, -0.390869140625
34, 2217185777, -7.344226360321045, -1.3964389562606812, 6.1926984786987305, -0.5935871005058289, -0.3383181393146515, -1.737578272819519, 0.88232421875, 0.28955078125, -0.388671875
35, 2217202444, -7.326096534729004, -1.4306946992874146, 6.1735124588012695, -0.7360706329345703, -0.18154282867908478, -1.9917973279953003, 0.8818359375, 0.2900390625, -0.38916015625
36, 2217219111, -7.34590482711792, -1.4310709238052368, 6.202324390411377, -0.751258909702301, -0.15397074818611145, -1.9684770107269287, 0.88134765625, 0.29052734375, -0.388671875
37, 2217235778, -7.339460372924805, -1.4284414052963257, 6.169206142425537, -0.853133499622345, -0.07928410917520523, -1.923987627029419, 0.878662109375, 0.2919921875, -0.388427734375
38, 2217252445, -7.331610679626465, -1.4260129928588867, 6.159862995147705, -0.7295778393745422, 0.05361378565430641, -2.002798080444336, 0.880859375, 0.29052734375, -0.38671875
39, 2217269112, -7.331339359283447, -1.4518342018127441, 6.160417556762695, -0.726632297039032, -0.04411787539720535, -2.02473521232605, 0.8818359375, 0.291015625, -0.389892578125
40, 2217285779, -7.32824182510376, -1.4255911111831665, 6.193601131439209, -0.9811072945594788, 0.49498462677001953, -2.173673152923584, 0.8818359375, 0.289306640625, -0.388671875
41, 2217302446, -7.334510326385498, -1.4434971809387207, 6.196898460388184, -1.3766953945159912, 0.8862314820289612, -2.2950899600982666, 0.8818359375, 0.291015625, -0.389892578125
42, 2217319113, -7.339476585388184, -1.4540764093399048, 6.158477306365967, -1.3253291845321655, 0.8254525065422058, -2.3410651683807373, 0.8818359375, 0.291015625, -0.38671875
43, 2217335780, -7.337289810180664, -1.465808391571045, 6.155066013336182, -1.5008400678634644, 0.2610638737678528, -2.3467888832092285, 0.881103515625, 0.29248046875, -0.388916015625
44, 2217352447, -7.359055995941162, -1.445705771446228, 6.192688941955566, -1.0757719278335571, 0.6020841598510742, -2.137930393218994, 0.881103515625, 0.29248046875, -0.38720703125
45, 2217369114, -7.355404853820801, -1.4689639806747437, 6.160494327545166, -0.8886838555335999, 0.34876173734664917, -1.9121417999267578, 0.879150390625, 0.291015625, -0.3857421875
46, 2217385781, -7.353490829467773, -1.4641566276550293, 6.180065155029297, -0.8042131066322327, 0.14260509610176086, -1.7974607944488525, 0.880615234375, 0.29150390625, -0.38671875
47, 2217402448, -7.362200736999512, -1.4783867597579956, 6.150698661804199, -0.5180808305740356, -0.17289851605892181, -1.5581870079040527, 0.88330078125, 0.291015625, -0.384765625
48, 2217419115, -7.346500396728516, -1.471321702003479, 6.1608476638793945, -0.3985207974910736, -0.349984735250473, -1.3791797161102295, 0.8828125, 0.29248046875, -0.38671875
49, 2217435782, -7.342265605926514, -1.4790009260177612, 6.168672561645508, -0.41854992508888245, -0.35112449526786804, -1.354732632637024, 0.88330078125, 0.29345703125, -0.38525390625
50, 2217452449, -7.351447582244873, -1.4718873500823975, 6.130102634429932, -0.4140037000179291, -0.459005206823349, -1.3031997680664062, 0.879150390625, 0.294921875, -0.38720703125
51, 2217469116, -7.345586776733398, -1.4763983488082886, 6.143964767456055, -0.2608013451099396, -0.5181449055671692, -1.181104063987732, 0.880859375, 0.29345703125, -0.3837890625
52, 2217485783, -7.346335411071777, -1.4625836610794067, 6.178241729736328, -0.17913523316383362, -0.5429892539978027, -1.0650017261505127, 0.88134765625, 0.29248046875, -0.384765625
53, 2217502450, -7.3476386070251465, -1.4664431810379028, 6.145321369171143, -0.2320510596036911, -0.469929039478302, -1.1377032995224, 0.880126953125, 0.29345703125, -0.382568359375
54, 2217519117, -7.363090515136719, -1.458192229270935, 6.141597747802734, -0.2502232491970062, -0.5567687749862671, -1.06218421459198, 0.88330078125, 0.29296875, -0.3857421875
55, 2217535784, -7.357609748840332, -1.4611132144927979, 6.151641368865967, -0.15874750912189484, -0.612450897693634, -1.0543211698532104, 0.88134765625, 0.29296875, -0.38525390625
56, 2217552451, -7.358636379241943, -1.464025616645813, 6.128509521484375, -0.14916837215423584, -0.6936944127082825, -1.070534110069275, 0.879150390625, 0.2939453125, -0.38330078125
57, 2217569118, -7.344422817230225, -1.4728797674179077, 6.1516947746276855, -0.12023882567882538, -0.7086393237113953, -1.0002399682998657, 0.8828125, 0.29248046875, -0.38525390625
58, 2217585785, -7.356934547424316, -1.4624934196472168, 6.161963939666748, -0.1810690015554428, -0.6823864579200745, -0.9735131859779358, 0.8818359375, 0.29296875, -0.384765625
59, 2217602452, -7.353424549102783, -1.4633296728134155, 6.144346237182617, -0.1074068546295166, -0.7093181610107422, -0.9449421763420105, 0.881103515625, 0.295166015625, -0.38427734375
60, 2217619119, -7.341820240020752, -1.4567197561264038, 6.173932075500488, -0.03884165361523628, -0.8726246356964111, -0.8901180028915405, 0.8818359375, 0.29150390625, -0.38427734375
61, 2217635786, -7.365349292755127, -1.4501101970672607, 6.142603397369385, -0.017749600112438202, -0.847601056098938, -0.8410057425498962, 0.8828125, 0.29248046875, -0.38623046875
62, 2217652453, -7.362054347991943, -1.4625376462936401, 6.157181262969971, -0.03077366203069687, -0.805212140083313, -0.9284603595733643, 0.880859375, 0.2900390625, -0.384765625
63, 2217669120, -7.352059364318848, -1.464166283607483, 6.137239456176758, 0.1223582774400711, -0.9441224336624146, -0.8227440118789673, 0.8818359375, 0.29248046875, -0.3857421875
64, 2217685787, -7.3555378913879395, -1.4612910747528076, 6.146474361419678, 0.10740045458078384, -1.0889239311218262, -0.6792232394218445, 0.88330078125, 0.29150390625, -0.384765625
65, 2217702454, -7.353075981140137, -1.4510051012039185, 6.153470993041992, -0.021886052563786507, -1.0575867891311646, -0.7775887846946716, 0.88232421875, 0.29345703125, -0.38427734375
66, 2217719121, -7.358704090118408, -1.428540825843811, 6.1376261711120605, -0.17713743448257446, -0.7379147410392761, -0.9930171966552734, 0.88134765625, 0.291015625, -0.38525390625
67, 2217735788, -7.347066402435303, -1.436582326889038, 6.1497650146484375, -0.33430978655815125, -0.6332740187644958, -1.2766906023025513, 0.8818359375, 0.2939453125, -0.38427734375
68, 2217752455, -7.368250846862793, -1.4604668617248535, 6.137793064117432, -0.2782692015171051, -0.7339575290679932, -1.3517357110977173, 0.88134765625, 0.291015625, -0.3857421875
69, 2217769122, -7.358985424041748, -1.461512804031372, 6.13144588470459, -0.2847619950771332, -0.7880643010139465, -1.2585952281951904, 0.884765625, 0.29248046875, -0.3876953125
70, 2217785789, -7.363575458526611, -1.46490478515625, 6.152902603149414, -0.19446441531181335, -0.8217322826385498, -1.183831810951233, 0.88134765625, 0.2919921875, -0.38525390625
71, 2217802456, -7.350794792175293, -1.4562232494354248, 6.167990207672119, -0.22801703214645386, -0.8757109642028809, -1.3442953824996948, 0.8818359375, 0.2919921875, -0.38671875
72, 2217819123, -7.348089694976807, -1.4502034187316895, 6.176870346069336, -0.21222680807113647, -0.7021081447601318, -1.2353774309158325, 0.88134765625, 0.29248046875, -0.38427734375
73, 2217835790, -7.356448173522949, -1.4772545099258423, 6.165253162384033, -0.2438841313123703, -0.7606076002120972, -1.1551200151443481, 0.8828125, 0.2939453125, -0.38427734375
74, 2217852457, -7.3514814376831055, -1.4632080793380737, 6.157851696014404, -0.1532023698091507, -0.7230977416038513, -1.0517343282699585, 0.88134765625, 0.29248046875, -0.384765625
75, 2217869124, -7.344569683074951, -1.4578883647918701, 6.158970355987549, -0.10718915611505508, -0.6926186680793762, -1.0629526376724243, 0.8837890625, 0.2900390625, -0.383056640625
76, 2217885791, -7.349713325500488, -1.4568512439727783, 6.150790214538574, -0.11777999997138977, -0.7492354512214661, -1.0603145360946655, 0.88134765625, 0.29150390625, -0.38525390625
77, 2217902458, -7.358419895172119, -1.4457738399505615, 6.157173156738281, -0.1720661073923111, -0.7458290457725525, -1.0781793594360352, 0.88330078125, 0.2919921875, -0.3876953125
78, 2217919125, -7.3493123054504395, -1.4617196321487427, 6.145867347717285, -0.17090073227882385, -0.7617857456207275, -1.0483533143997192, 0.88427734375, 0.29150390625, -0.38427734375
79, 2217935792, -7.364030361175537, -1.4439083337783813, 6.149359703063965, -0.18090248107910156, -0.7505418062210083, -1.109593391418457, 0.8818359375, 0.29248046875, -0.38427734375
80, 2217952459, -7.359094619750977, -1.455758810043335, 6.130075454711914, -0.1756518930196762, -0.7909970283508301, -1.116470456123352, 0.8818359375, 0.29150390625, -0.38525390625
81, 2217969126, -7.353227615356445, -1.4379793405532837, 6.1482834815979, -0.1527029126882553, -0.8341416120529175, -1.2045269012451172, 0.880859375, 0.29150390625, -0.38623046875
82, 2217985793, -7.350619316101074, -1.4617524147033691, 6.141360759735107, -0.24675272405147552, -0.8797065615653992, -1.1267539262771606, 0.8837890625, 0.29052734375, -0.38427734375
83, 2218002460, -7.352195739746094, -1.4476308822631836, 6.147594451904297, -0.13979412615299225, -0.7774991393089294, -1.1048165559768677, 0.8828125, 0.29248046875, -0.383056640625
84, 2218019127, -7.359582901000977, -1.4487227201461792, 6.151288032531738, -0.17661237716674805, -0.6015270948410034, -1.099425196647644, 0.8837890625, 0.291015625, -0.388671875
85, 2218035794, -7.3612236976623535, -1.4390400648117065, 6.139584064483643, -0.24107955396175385, -0.6536489725112915, -1.0299763679504395, 0.88232421875, 0.29150390625, -0.38427734375
86, 2218052461, -7.3448405265808105, -1.4500919580459595, 6.1826066970825195, -0.06462083756923676, -0.8147271275520325, -1.067614197731018, 0.881103515625, 0.29248046875, -0.38623046875
87, 2218069128, -7.348502159118652, -1.4505696296691895, 6.142969131469727, -0.11457841098308563, -0.8392513394355774, -1.02696692943573, 0.8818359375, 0.29248046875, -0.38623046875
88, 2218085795, -7.351813316345215, -1.4552749395370483, 6.137391567230225, -0.179634690284729, -0.7638603448867798, -1.0559219121932983, 0.8818359375, 0.291015625, -0.38427734375
89, 2218102462, -7.346546173095703, -1.4514110088348389, 6.162188529968262, -0.1393330693244934, -0.7317419052124023, -0.9858456254005432, 0.88232421875, 0.291015625, -0.38671875
90, 2218119129, -7.3539838790893555, -1.455637812614441, 6.14956521987915, -0.2072707712650299, -0.7376713752746582, -1.0428723096847534, 0.88427734375, 0.291015625, -0.3876953125
91, 2218135796, -7.37492036819458, -1.449041724205017, 6.167994976043701, -0.17356446385383606, -0.6641757488250732, -1.1219130754470825, 0.880859375, 0.291015625, -0.38720703125
92, 2218152463, -7.352071762084961, -1.4486130475997925, 6.133749961853027, -0.24971099197864532, -0.5559748411178589, -1.0588289499282837, 0.880126953125, 0.291015625, -0.3857421875
93, 2218169130, -7.334947109222412, -1.4500916004180908, 6.149383544921875, -0.25442376732826233, -0.5021113753318787, -1.1389583349227905, 0.8798828125, 0.289794921875, -0.384765625
94, 2218185797, -7.359203815460205, -1.4496028423309326, 6.141343116760254, -0.19528402388095856, -0.5606235265731812, -1.0688178539276123, 0.8818359375, 0.2919921875, -0.3857421875
95, 2218202464, -7.354522705078125, -1.4412676095962524, 6.138784885406494, -0.16695638000965118, -0.6676077842712402, -1.0905888080596924, 0.8828125, 0.2900390625, -0.3857421875
96, 2218219131, -7.350968837738037, -1.4525384902954102, 6.166725158691406, -0.2122652530670166, -0.7325104475021362, -1.0183480978012085, 0.8828125, 0.2919921875, -0.3857421875
97, 2218235798, -7.348895072937012, -1.4461536407470703, 6.1443634033203125, -0.14419949054718018, -0.8557716012001038, -1.031538724899292, 0.880859375, 0.289794921875, -0.3837890625
98, 2218252465, -7.3437604904174805, -1.4418158531188965, 6.144456386566162, -0.15183208882808685, -0.778907835483551, -1.0776927471160889, 0.8828125, 0.29052734375, -0.38525390625
99, 2218269132, -7.356576919555664, -1.4454689025878906, 6.146656513214111, -0.11324655264616013, -0.7230209708213806, -1.1000272035598755, 0.88134765625, 0.288818359375, -0.384765625
100, 2218285799, -7.334733963012695, -1.458196759223938, 6.14558219909668, -0.09749473631381989, -0.7437800168991089, -1.050837755203247, 0.88232421875, 0.29150390625, -0.381591796875
101, 2218302466, -7.345822334289551, -1.44504976272583, 6.173564910888672, -0.10510170459747314, -0.8460898399353027, -0.9995100498199463, 0.88232421875, 0.29296875, -0.38525390625
102, 2218319133, -7.346421718597412, -1.4514646530151367, 6.162571430206299, -0.1032191663980484, -0.9521392583847046, -1.0451644659042358, 0.8837890625, 0.29150390625, -0.3857421875
103, 2218335800, -7.349705696105957, -1.4262468814849854, 6.166452884674072, -0.0835486352443695, -0.9398196339607239, -0.9561092853546143, 0.88134765625, 0.29150390625, -0.38427734375
104, 2218352467, -7.344902038574219, -1.450806975364685, 6.168621063232422, -0.09858327358961105, -0.7020184397697449, -1.0251482725143433, 0.8828125, 0.2900390625, -0.3876953125
105, 2218369134, -7.338306427001953, -1.44329833984375, 6.157338619232178, -0.08498293906450272, -0.8099632859230042, -0.9312522411346436, 0.88037109375, 0.291015625, -0.38427734375
106, 2218385801, -7.351154327392578, -1.4396998882293701, 6.147567272186279, 0.08323486894369125, -0.784913957118988, -0.8853669762611389, 0.8818359375, 0.28955078125, -0.3857421875
107, 2218402468, -7.355381488800049, -1.4445441961288452, 6.15814208984375, 0.056187864392995834, -1.0980292558670044, -0.8603305220603943, 0.88427734375, 0.2900390625, -0.3857421875
108, 2218419135, -7.360488414764404, -1.4188865423202515, 6.169949531555176, 0.1447821706533432, -1.1290078163146973, -0.7852597236633301, 0.88427734375, 0.28955078125, -0.38623046875
109, 2218435802, -7.354545593261719, -1.4162182807922363, 6.173344135284424, 0.1537594497203827, -1.132055640220642, -0.8198881149291992, 0.88134765625, 0.29150390625, -0.3837890625
110, 2218452469, -7.3498454093933105, -1.4494343996047974, 6.15976095199585, 0.276328980922699, -1.0502231121063232, -0.7575852870941162, 0.880859375, 0.29052734375, -0.38818359375
111, 2218469136, -7.3644185066223145, -1.4165878295898438, 6.16742467880249, 0.040154311805963516, -1.122348666191101, -0.8646079301834106, 0.8818359375, 0.2900390625, -0.38623046875
112, 2218485803, -7.356316566467285, -1.425778865814209, 6.169854640960693, -0.020528579130768776, -1.0527586936950684, -0.8750322461128235, 0.8828125, 0.29052734375, -0.384765625
113, 2218502470, -7.345270156860352, -1.4321082830429077, 6.15733003616333, -0.004725543316453695, -0.9288702011108398, -0.935836911201477, 0.88232421875, 0.288330078125, -0.38720703125
114, 2218519137, -7.360506534576416, -1.4351379871368408, 6.179382801055908, 0.05485600605607033, -0.9603481888771057, -0.9574795961380005, 0.8837890625, 0.29052734375, -0.3857421875
115, 2218535804, -7.340959072113037, -1.422330379486084, 6.168720245361328, -0.015867067500948906, -0.8410569429397583, -0.8882355690002441, 0.8818359375, 0.289306640625, -0.388671875
116, 2218552471, -7.344082832336426, -1.410330057144165, 6.147949695587158, -0.04223534092307091, -0.9781233072280884, -0.9214810132980347, 0.88134765625, 0.29052734375, -0.38623046875
117, 2218569138, -7.354020118713379, -1.4213370084762573, 6.168675422668457, 0.04897788166999817, -1.0871822834014893, -0.9516142010688782, 0.88134765625, 0.289306640625, -0.38671875
118, 2218585805, -7.339419364929199, -1.4275892972946167, 6.156655311584473, 0.0907265841960907, -1.1188780069351196, -0.9866523146629333, 0.8828125, 0.288818359375, -0.3876953125
119, 2218602472, -7.339967250823975, -1.4300684928894043, 6.155190944671631, 0.08028941601514816, -1.0655908584594727, -1.0181560516357422, 0.8818359375, 0.28955078125, -0.38720703125
120, 2218619139, -7.338441848754883, -1.4312986135482788, 6.170657634735107, 0.017756003886461258, -1.058022141456604, -1.0098190307617188, 0.88232421875, 0.288330078125, -0.38818359375
121, 2218635806, -7.339463233947754, -1.4045193195343018, 6.170344829559326, -0.07115208357572556, -0.9688771963119507, -1.0850692987442017, 0.8828125, 0.288818359375, -0.38720703125
122, 2218652473, -7.343555450439453, -1.4280651807785034, 6.164041042327881, -0.13625957071781158, -0.9513965845108032, -1.1653138399124146, 0.8818359375, 0.288330078125, -0.38623046875
123, 2218669140, -7.335073471069336, -1.4266639947891235, 6.1654558181762695, -0.21284154057502747, -0.8487280607223511, -1.1697832345962524, 0.88134765625, 0.289306640625, -0.38671875
124, 2218685807, -7.327916622161865, -1.416512370109558, 6.160236358642578, -0.156263068318367, -0.8733418583869934, -1.1052649021148682, 0.8818359375, 0.288818359375, -0.38818359375
125, 2218702474, -7.339895248413086, -1.431272268295288, 6.176583766937256, -0.12207012623548508, -0.9386157989501953, -1.1157788038253784, 0.8837890625, 0.29052734375, -0.38720703125
126, 2218719141, -7.355895519256592, -1.4107933044433594, 6.1734418869018555, -0.14640218019485474, -0.9219931364059448, -1.1057130098342896, 0.88330078125, 0.2900390625, -0.38720703125
127, 2218735808, -7.342630386352539, -1.4171062707901, 6.174582481384277, -0.1325072944164276, -0.821668267250061, -1.1148438453674316, 0.88134765625, 0.291015625, -0.38818359375
128, 2218752475, -7.3431267738342285, -1.4200330972671509, 6.18666410446167, -0.19489984214305878, -0.6870607137680054, -1.1550559997558594, 0.880859375, 0.288330078125, -0.38818359375
129, 2218769142, -7.345864772796631, -1.428044080734253, 6.163053035736084, -0.2837759256362915, -0.6170739531517029, -1.1365764141082764, 0.88427734375, 0.288818359375, -0.3876953125
130, 2218785809, -7.3202409744262695, -1.4178621768951416, 6.163367748260498, -0.32633140683174133, -0.4993707835674286, -1.2067806720733643, 0.88330078125, 0.29052734375, -0.3876953125
131, 2218802476, -7.352482795715332, -1.4213809967041016, 6.156653881072998, -0.2505050003528595, -0.521269679069519, -1.1536983251571655, 0.88232421875, 0.287841796875, -0.38671875
132, 2218819143, -7.351006507873535, -1.4301151037216187, 6.152048110961914, -0.2291824370622635, -0.572571873664856, -1.0903711318969727, 0.8818359375, 0.29052734375, -0.38671875
133, 2218835810, -7.337795257568359, -1.428131341934204, 6.169595241546631, -0.21416059136390686, -0.6031150221824646, -1.0681520700454712, 0.8837890625, 0.2890625, -0.38916015625
134, 2218852477, -7.347647666931152, -1.417187213897705, 6.1899542808532715, -0.1399478018283844, -0.808759331703186, -1.0679599046707153, 0.88134765625, 0.288818359375, -0.38623046875
135, 2218869144, -7.347049713134766, -1.4194862842559814, 6.171635627746582, -0.24284681677818298, -0.8410698771476746, -1.0757334232330322, 0.88037109375, 0.288818359375, -0.38671875
136, 2218885811, -7.337158679962158, -1.4315767288208008, 6.174015045166016, -0.21731096506118774, -0.8011139631271362, -1.1743806600570679, 0.88134765625, 0.288818359375, -0.384765625
137, 2218902478, -7.339773654937744, -1.4226998090744019, 6.182764053344727, -0.22361168265342712, -0.7669466733932495, -1.1207220554351807, 0.880859375, 0.287353515625, -0.38671875
138, 2218919145, -7.336842060089111, -1.4201894998550415, 6.172076225280762, -0.15631431341171265, -0.6929388046264648, -1.074350357055664, 0.88525390625, 0.2900390625, -0.38671875
139, 2218935812, -7.339964866638184, -1.413071870803833, 6.169861793518066, -0.17333394289016724, -0.7232512831687927, -1.0294638872146606, 0.880859375, 0.288818359375, -0.38671875
140, 2218952479, -7.341982841491699, -1.4320762157440186, 6.143951892852783, -0.13316042721271515, -0.7044004797935486, -1.0404133796691895, 0.8798828125, 0.288818359375, -0.38525390625
141, 2218969146, -7.336363792419434, -1.4225664138793945, 6.180229187011719, -0.2578430473804474, -0.6208902597427368, -1.0620816946029663, 0.88134765625, 0.29052734375, -0.384765625
142, 2218985813, -7.340216159820557, -1.4082884788513184, 6.173351764678955, -0.2554866671562195, -0.5065423846244812, -1.0371222496032715, 0.88330078125, 0.28955078125, -0.3857421875
143, 2219002480, -7.341144561767578, -1.4152286052703857, 6.158387660980225, -0.14271396398544312, -0.6677358150482178, -1.0970944166183472, 0.884765625, 0.288818359375, -0.38916015625
144, 2219019147, -7.338796138763428, -1.4102708101272583, 6.1510820388793945, -0.22070463001728058, -0.6470280289649963, -1.0707260370254517, 0.88330078125, 0.288818359375, -0.38916015625
145, 2219035814, -7.3403544425964355, -1.4271906614303589, 6.18270206451416, -0.20218664407730103, -0.720485270023346, -1.0451645851135254, 0.8818359375, 0.288330078125, -0.38720703125
146, 2219052481, -7.354040145874023, -1.4210572242736816, 6.178848743438721, -0.18068480491638184, -0.8273541927337646, -1.0032750368118286, 0.8828125, 0.289306640625, -0.38720703125
147, 2219069148, -7.348512649536133, -1.4115110635757446, 6.17594051361084, -0.017519084736704826, -0.8677710294723511, -0.9912881851196289, 0.8818359375, 0.288330078125, -0.38427734375
148, 2219085815, -7.357006549835205, -1.4076042175292969, 6.1726884841918945, -0.08137153834104538, -0.9834379553794861, -0.9740124940872192, 0.88232421875, 0.287841796875, -0.3876953125
149, 2219102482, -7.360995769500732, -1.4249733686447144, 6.187166213989258, -0.005289022345095873, -1.0808303356170654, -0.9880098104476929, 0.8837890625, 0.287841796875, -0.38720703125
150, 2219119149, -7.344722270965576, -1.4252418279647827, 6.174352169036865, -0.0026253017131239176, -1.139829158782959, -0.8875312209129333, 0.88134765625, 0.287841796875, -0.38818359375
151, 2219135816, -7.339198112487793, -1.4197661876678467, 6.177985191345215, 0.13531829416751862, -1.209892749786377, -0.8917956948280334, 0.8828125, 0.287353515625, -0.38623046875
152, 2219152483, -7.346757411956787, -1.4198440313339233, 6.184664726257324, 0.11157532781362534, -1.2652032375335693, -0.7960171103477478, 0.87939453125, 0.287353515625, -0.3876953125
153, 2219169150, -7.340858459472656, -1.4086567163467407, 6.191321849822998, 0.07985398918390274, -1.2666375637054443, -0.8419791460037231, 0.88134765625, 0.287841796875, -0.38916015625
154, 2219185817, -7.337967395782471, -1.403294563293457, 6.199094772338867, 0.05472793057560921, -1.142825722694397, -0.8237684965133667, 0.880859375, 0.285888671875, -0.388671875
155, 2219202484, -7.341039180755615, -1.3979378938674927, 6.1660919189453125, -0.08599463850259781, -0.9137970209121704, -0.9441736936569214, 0.8828125, 0.286865234375, -0.38671875
156, 2219219151, -7.334965229034424, -1.3988771438598633, 6.173296928405762, -0.10028653591871262, -0.8920647501945496, -0.9561349153518677, 0.8837890625, 0.287841796875, -0.3896484375
157, 2219235818, -7.349066257476807, -1.4091600179672241, 6.174885272979736, -0.02556147240102291, -0.9297409653663635, -0.935619056224823, 0.879150390625, 0.287353515625, -0.390869140625
158, 2219252485, -7.338738918304443, -1.4010837078094482, 6.17327880859375, -0.05753893405199051, -0.874046266078949, -0.9818244576454163, 0.8818359375, 0.289306640625, -0.38916015625
159, 2219269152, -7.3349690437316895, -1.3884457349777222, 6.173779010772705, -0.037573833018541336, -0.7406168580055237, -0.9467350840568542, 0.880859375, 0.286865234375, -0.38916015625
160, 2219285819, -7.343244552612305, -1.3880456686019897, 6.186939239501953, 0.014695287682116032, -0.8617520928382874, -0.9696200489997864, 0.8828125, 0.287841796875, -0.3876953125
161, 2219302486, -7.3411126136779785, -1.412432074546814, 6.1767168045043945, -0.007261200807988644, -0.8606635928153992, -0.958785891532898, 0.8828125, 0.286865234375, -0.389892578125
162, 2219319153, -7.3285908699035645, -1.4093940258026123, 6.197396278381348, -0.09376809000968933, -0.9640492796897888, -0.8542732000350952, 0.8828125, 0.285888671875, -0.390380859375
163, 2219335820, -7.345085144042969, -1.3878049850463867, 6.172835826873779, 0.002081031911075115, -0.9324943423271179, -0.9179079532623291, 0.880859375, 0.287353515625, -0.388671875
164, 2219352487, -7.346404075622559, -1.3893988132476807, 6.183417320251465, 0.042254555970430374, -0.8550800085067749, -0.9769068360328674, 0.88134765625, 0.286865234375, -0.3896484375
165, 2219369154, -7.341265678405762, -1.3917945623397827, 6.219604969024658, -0.08436822146177292, -0.9140275716781616, -0.9669049382209778, 0.88330078125, 0.285888671875, -0.3876953125
166, 2219385821, -7.3410234451293945, -1.3845345973968506, 6.194369316101074, -0.034039270132780075, -0.8644798398017883, -0.9697608351707458, 0.8818359375, 0.286376953125, -0.389892578125
167, 2219402488, -7.332512378692627, -1.39014732837677, 6.172457218170166, -0.13030461966991425, -0.8925001621246338, -1.068497896194458, 0.88330078125, 0.287353515625, -0.388671875
168, 2219419155, -7.332178592681885, -1.4054608345031738, 6.19002103805542, -0.1254638135433197, -0.7180904746055603, -1.0981957912445068, 0.88232421875, 0.286865234375, -0.38916015625
169, 2219435822, -7.340959548950195, -1.4020230770111084, 6.188586235046387, -0.08552081137895584, -0.7481086254119873, -0.9677246809005737, 0.88134765625, 0.286865234375, -0.388671875
170, 2219452489, -7.3175740242004395, -1.3999643325805664, 6.200261116027832, -0.1122092455625534, -0.7192559242248535, -1.0409257411956787, 0.87890625, 0.286376953125, -0.38916015625
171, 2219469156, -7.332839012145996, -1.4012566804885864, 6.207053184509277, -0.05925498157739639, -0.7196912169456482, -0.9137330055236816, 0.8818359375, 0.288330078125, -0.3876953125
172, 2219485823, -7.341827869415283, -1.41233491897583, 6.185315132141113, -0.1690054088830948, -0.777473509311676, -0.9387054443359375, 0.88232421875, 0.284423828125, -0.38720703125
173, 2219502490, -7.347639083862305, -1.3838821649551392, 6.187038421630859, -0.1525876671075821, -0.6631385087966919, -0.9903919696807861, 0.88232421875, 0.284912109375, -0.39013671875
174, 2219519157, -7.337416172027588, -1.3705660104751587, 6.19699764251709, -0.17640748620033264, -0.6143078804016113, -1.0548591613769531, 0.88330078125, 0.287353515625, -0.388671875
175, 2219535824, -7.3329691886901855, -1.391169548034668, 6.158083438873291, -0.169031023979187, -0.626166582107544, -1.0438584089279175, 0.880859375, 0.285400390625, -0.3876953125
176, 2219552491, -7.335982322692871, -1.401065468788147, 6.1735758781433105, -0.1607581228017807, -0.7082551717758179, -1.017106056213379, 0.8818359375, 0.287353515625, -0.390869140625
177, 2219569158, -7.344503402709961, -1.3987053632736206, 6.182414531707764, -0.09533046931028366, -0.7484158873558044, -0.995501697063446, 0.88037109375, 0.285888671875, -0.38818359375
178, 2219585825, -7.346743106842041, -1.3962267637252808, 6.184444904327393, -0.1495397537946701, -0.8087081909179688, -1.0186810493469238, 0.880859375, 0.284912109375, -0.388671875
179, 2219602492, -7.326912879943848, -1.3893523216247559, 6.203929424285889, -0.15712112188339233, -0.6978693008422852, -1.0854535102844238, 0.88330078125, 0.285400390625, -0.390380859375
180, 2219619159, -7.32619047164917, -1.388940453529358, 6.163135051727295, -0.16887730360031128, -0.7110725045204163, -1.1022168397903442, 0.880859375, 0.284912109375, -0.389892578125
181, 2219635826, -7.351045608520508, -1.3971483707427979, 6.183963298797607, -0.23616190254688263, -0.7272854447364807, -1.1430691480636597, 0.88330078125, 0.284912109375, -0.3896484375
182, 2219652493, -7.351271629333496, -1.3760225772857666, 6.168848514556885, -0.16225643455982208, -0.7135953903198242, -1.0688947439193726, 0.87939453125, 0.286865234375, -0.38818359375
183, 2219669160, -7.336355209350586, -1.388079047203064, 6.212129592895508, -0.18917538225650787, -0.7134928703308105, -1.1365762948989868, 0.880859375, 0.286865234375, -0.3896484375
184, 2219685827, -7.345424652099609, -1.3748176097869873, 6.1660871505737305, -0.2308344691991806, -0.8046613931655884, -1.1499717235565186, 0.88232421875, 0.286865234375, -0.38916015625
185, 2219702494, -7.344176292419434, -1.3954461812973022, 6.1727681159973145, -0.1845138818025589, -0.7356478571891785, -1.1232064962387085, 0.88134765625, 0.28466796875, -0.388671875
186, 2219719161, -7.344992637634277, -1.3887381553649902, 6.175051212310791, -0.21692676842212677, -0.744907021522522, -1.1134225130081177, 0.88232421875, 0.284912109375, -0.38916015625
187, 2219735828, -7.3428544998168945, -1.3946412801742554, 6.188125133514404, -0.28240564465522766, -0.657157838344574, -1.1775951385498047, 0.88134765625, 0.285400390625, -0.390869140625
188, 2219752495, -7.34055757522583, -1.3932201862335205, 6.1734442710876465, -0.3066096603870392, -0.5920119285583496, -1.0898460149765015, 0.88134765625, 0.286865234375, -0.388671875
189, 2219769162, -7.335757255554199, -1.3870999813079834, 6.17640495300293, -0.26628243923187256, -0.4974498748779297, -1.1627908945083618, 0.88037109375, 0.28466796875, -0.38720703125
190, 2219785829, -7.332967281341553, -1.390649676322937, 6.183709621429443, -0.15705707669258118, -0.5912308096885681, -1.1492419242858887, 0.88134765625, 0.285888671875, -0.391357421875
191, 2219802496, -7.334631443023682, -1.3987540006637573, 6.171008586883545, -0.17668920755386353, -0.6880723834037781, -1.1290974617004395, 0.88037109375, 0.285888671875, -0.38818359375
192, 2219819163, -7.35075044631958, -1.3881030082702637, 6.176046371459961, -0.2527461349964142, -0.6240662336349487, -1.1758662462234497, 0.88330078125, 0.284912109375, -0.39013671875
193, 2219835830, -7.348456382751465, -1.3916387557983398, 6.203481674194336, -0.2035825252532959, -0.5953159332275391, -1.1698600053787231, 0.88134765625, 0.286865234375, -0.390380859375
194, 2219852497, -7.328459739685059, -1.3924047946929932, 6.172867774963379, -0.24074655771255493, -0.6478989124298096, -1.1450542211532593, 0.87841796875, 0.285400390625, -0.388671875
195, 2219869164, -7.344288349151611, -1.3759795427322388, 6.182668685913086, -0.2534632682800293, -0.7135570049285889, -1.213747501373291, 0.8818359375, 0.287353515625, -0.388671875
196, 2219885831, -7.335648059844971, -1.393114447593689, 6.169510841369629, -0.16981220245361328, -0.6716418266296387, -1.207715630531311, 0.8818359375, 0.286865234375, -0.3876953125
197, 2219902498, -7.334225654602051, -1.383410930633545, 6.205696105957031, -0.2502104640007019, -0.7881155014038086, -1.1392784118652344, 0.8828125, 0.286865234375, -0.38671875
198, 2219919165, -7.329850673675537, -1.38710618019104, 6.186747074127197, -0.24657343327999115, -0.686650812625885, -1.083839774131775, 0.88232421875, 0.285888671875, -0.3896484375
199, 2219935832, -7.339715480804443, -1.381487250328064, 6.166391849517822, -0.2066560685634613, -0.7713008522987366, -1.1535576581954956, 0.880859375, 0.285400390625, -0.38916015625
200, 2219952499, -7.3493242263793945, -1.3878370523452759, 6.191309452056885, -0.2507099211215973, -0.7492099404335022, -1.206140398979187, 0.87939453125, 0.285888671875, -0.38818359375
201, 2219969166, -7.336937427520752, -1.3909375667572021, 6.179959774017334, -0.2121627777814865, -0.7818788886070251, -1.255585789680481, 0.880859375, 0.28369140625, -0.38818359375
202, 2219985833, -7.348153591156006, -1.3779314756393433, 6.189235687255859, -0.2192831188440323, -0.610171377658844, -1.1185322999954224, 0.8818359375, 0.286865234375, -0.3876953125
203, 2220002500, -7.33858060836792, -1.3906419277191162, 6.203763484954834, -0.3066096603870392, -0.6280490159988403, -1.1540570259094238, 0.885986328125, 0.285888671875, -0.3896484375
204, 2220019167, -7.348326683044434, -1.4079225063323975, 6.159473419189453, -0.32378295063972473, -0.5827017426490784, -1.126395344734192, 0.88232421875, 0.284912109375, -0.38916015625
205, 2220035834, -7.3583855628967285, -1.384270429611206, 6.178077220916748, -0.29545530676841736, -0.6469511985778809, -1.0802028179168701, 0.88037109375, 0.287841796875, -0.38818359375
206, 2220052501, -7.329510688781738, -1.4048296213150024, 6.185724258422852, -0.25187528133392334, -0.6334148645401001, -1.0867341756820679, 0.8818359375, 0.285400390625, -0.390869140625
207, 2220069168, -7.334188461303711, -1.3731306791305542, 6.194987773895264, -0.28094571828842163, -0.7135825753211975, -1.1654930114746094, 0.88134765625, 0.285888671875, -0.388671875
208, 2220085835, -7.34896993637085, -1.378300666809082, 6.173433303833008, -0.27830761671066284, -0.6661607623100281, -1.208304762840271, 0.8828125, 0.285400390625, -0.388671875
209, 2220102502, -7.352624893188477, -1.380240797996521, 6.181530952453613, -0.29777324199676514, -0.7280537486076355, -1.2629238367080688, 0.88427734375, 0.285888671875, -0.39013671875
210, 2220119169, -7.331121921539307, -1.4051573276519775, 6.1729583740234375, -0.20070111751556396, -0.7175013422966003, -1.2523458003997803, 0.880859375, 0.285888671875, -0.3896484375
211, 2220135836, -7.348146915435791, -1.4064204692840576, 6.1795125007629395, -0.24355117976665497, -0.8121659159660339, -1.1968045234680176, 0.8837890625, 0.284912109375, -0.388671875
212, 2220152503, -7.347336769104004, -1.3782144784927368, 6.190250873565674, -0.15928538143634796, -0.9425601363182068, -1.2220202684402466, 0.8818359375, 0.2841796875, -0.38525390625
213, 2220169170, -7.339796543121338, -1.3968921899795532, 6.1842265129089355, -0.2420271933078766, -0.8745582699775696, -1.1918227672576904, 0.8798828125, 0.285400390625, -0.388671875
214, 2220185837, -7.355251312255859, -1.3668981790542603, 6.176921844482422, -0.2772318720817566, -0.7667803168296814, -1.2463653087615967, 0.88037109375, 0.286376953125, -0.3876953125
215, 2220202504, -7.343208312988281, -1.367123007774353, 6.175145626068115, -0.29188233613967896, -0.7994235754013062, -1.2429330348968506, 0.8818359375, 0.286865234375, -0.38916015625
216, 2220219171, -7.335587024688721, -1.3807547092437744, 6.190201759338379, -0.2776672840118408, -0.6730889678001404, -1.2743855714797974, 0.884765625, 0.286865234375, -0.388671875
217, 2220235838, -7.331515312194824, -1.3848212957382202, 6.186225891113281, -0.27248072624206543, -0.7447020411491394, -1.301957607269287, 0.8818359375, 0.286376953125, -0.390380859375
218, 2220252505, -7.338334560394287, -1.3919763565063477, 6.206984996795654, -0.2815091907978058, -0.6396259069442749, -1.322153091430664, 0.880859375, 0.287353515625, -0.38720703125
219, 2220269172, -7.349880218505859, -1.3932710886001587, 6.180319786071777, -0.28951314091682434, -0.5939458012580872, -1.185816764831543, 0.8818359375, 0.2841796875, -0.388671875
220, 2220285839, -7.342015266418457, -1.3899104595184326, 6.187424659729004, -0.3487681448459625, -0.506952166557312, -1.3159165382385254, 0.8818359375, 0.284912109375, -0.3857421875
221, 2220302506, -7.350453853607178, -1.3872885704040527, 6.171054363250732, -0.2832508385181427, -0.6075331568717957, -1.3111908435821533, 0.8837890625, 0.284912109375, -0.38818359375
222, 2220319173, -7.3350958824157715, -1.3895111083984375, 6.194730281829834, -0.2740943133831024, -0.5958923101425171, -1.311472773551941, 0.8828125, 0.284423828125, -0.3857421875
223, 2220335840, -7.336385250091553, -1.3987131118774414, 6.186407566070557, -0.23486846685409546, -0.7181289196014404, -1.3140980005264282, 0.8818359375, 0.284912109375, -0.38525390625
224, 2220352507, -7.328473091125488, -1.4027416706085205, 6.205793380737305, -0.28413447737693787, -0.5957257151603699, -1.2687379121780396, 0.8828125, 0.285400390625, -0.38818359375
225, 2220369174, -7.34920072555542, -1.3874022960662842, 6.1962080001831055, -0.31073325872421265, -0.6021929979324341, -1.2738476991653442, 0.880859375, 0.28369140625, -0.3876953125
226, 2220385841, -7.343922138214111, -1.3866654634475708, 6.181031227111816, -0.26656416058540344, -0.6374616622924805, -1.2298322916030884, 0.8828125, 0.284912109375, -0.3876953125
227, 2220402508, -7.342723846435547, -1.3976198434829712, 6.169971942901611, -0.25505128502845764, -0.6561845541000366, -1.3273653984069824, 0.8828125, 0.285400390625, -0.38525390625
228, 2220419175, -7.345613956451416, -1.3827275037765503, 6.161418437957764, -0.24064411222934723, -0.6850244998931885, -1.2430481910705566, 0.88330078125, 0.284912109375, -0.3876953125
229, 2220435842, -7.353552341461182, -1.3922730684280396, 6.163055419921875, -0.19669273495674133, -0.7222269177436829, -1.2768954038619995, 0.8828125, 0.2841796875, -0.390380859375
230, 2220452509, -7.351816177368164, -1.3857742547988892, 6.179321765899658, -0.26391324400901794, -0.7645646929740906, -1.2457761764526367, 0.880859375, 0.287353515625, -0.390380859375
231, 2220469176, -7.345329761505127, -1.4054433107376099, 6.190919399261475, -0.26994502544403076, -0.7720435857772827, -1.3322957754135132, 0.88134765625, 0.284912109375, -0.38818359375
232, 2220485843, -7.347471237182617, -1.4009205102920532, 6.185639381408691, -0.2649890184402466, -0.5604571104049683, -1.2545228004455566, 0.88330078125, 0.285888671875, -0.3857421875
233, 2220502510, -7.353061676025391, -1.4067271947860718, 6.183881759643555, -0.27849969267845154, -0.5376489758491516, -1.2995883226394653, 0.884521484375, 0.284912109375, -0.38818359375
234, 2220519177, -7.334324359893799, -1.3887678384780884, 6.183145523071289, -0.26512986421585083, -0.7242118716239929, -1.1755845546722412, 0.88427734375, 0.286865234375, -0.390380859375
235, 2220535844, -7.356429576873779, -1.387467622756958, 6.172175407409668, -0.2658085823059082, -0.7369413375854492, -1.1941792964935303, 0.8818359375, 0.285400390625, -0.390380859375
236, 2220552511, -7.343009948730469, -1.3886628150939941, 6.167784214019775, -0.27299293875694275, -0.7222781777381897, -1.2234418392181396, 0.88232421875, 0.2841796875, -0.38818359375
237, 2220569178, -7.348063945770264, -1.3995065689086914, 6.174788951873779, -0.2454977035522461, -0.8235123157501221, -1.2109427452087402, 0.88134765625, 0.287841796875, -0.38818359375
238, 2220585845, -7.348860263824463, -1.4069746732711792, 6.167773246765137, -0.1590036302804947, -0.9821317791938782, -1.2149384021759033, 0.88330078125, 0.286376953125, -0.39013671875
239, 2220602512, -7.330990314483643, -1.3759984970092773, 6.205615520477295, -0.06373719871044159, -0.961539089679718, -1.1329264640808105, 0.88330078125, 0.284912109375, -0.38916015625
240, 2220619179, -7.327605247497559, -1.4065070152282715, 6.196072578430176, -0.11672987043857574, -0.8775680065155029, -1.1575915813446045, 0.88330078125, 0.286865234375, -0.389892578125
241, 2220635846, -7.354119300842285, -1.3970669507980347, 6.175674915313721, -0.12008514255285263, -0.842824399471283, -1.1905423402786255, 0.8828125, 0.285888671875, -0.38671875
242, 2220652513, -7.3424506187438965, -1.4063912630081177, 6.187592506408691, -0.15276694297790527, -0.9521521925926208, -0.9923128485679626, 0.88134765625, 0.287841796875, -0.38818359375
243, 2220669180, -7.350307941436768, -1.3950625658035278, 6.183808326721191, -0.0733291506767273, -1.023342490196228, -1.027504563331604, 0.88232421875, 0.287353515625, -0.390380859375
244, 2220685847, -7.338311195373535, -1.3944944143295288, 6.185454845428467, -0.04690966010093689, -0.9817476272583008, -0.9406904578208923, 0.8818359375, 0.286376953125, -0.38916015625
245, 2220702514, -7.350161075592041, -1.3802087306976318, 6.169921875, -0.01262706145644188, -1.0881553888320923, -0.9579150676727295, 0.8828125, 0.286865234375, -0.388671875
246, 2220719181, -7.355391502380371, -1.3812296390533447, 6.161303997039795, -0.06839870661497116, -1.0191036462783813, -1.1264208555221558, 0.8828125, 0.284912109375, -0.38818359375
247, 2220735848, -7.348935127258301, -1.3914190530776978, 6.219574928283691, -0.16430546343326569, -0.95111483335495, -1.2150920629501343, 0.88232421875, 0.284912109375, -0.388671875
248, 2220752515, -7.326723098754883, -1.3771309852600098, 6.206991672515869, -0.28016453981399536, -0.6993676424026489, -1.304582953453064, 0.87939453125, 0.285888671875, -0.391357421875
249, 2220769182, -7.342276096343994, -1.4014414548873901, 6.182327747344971, -0.3271125853061676, -0.7120586633682251, -1.3321163654327393, 0.88037109375, 0.285888671875, -0.3876953125
250, 2220785849, -7.334750652313232, -1.3796870708465576, 6.186502933502197, -0.2701243460178375, -0.6212488412857056, -1.3663606643676758, 0.8818359375, 0.285888671875, -0.3896484375
251, 2220802516, -7.3388824462890625, -1.3959853649139404, 6.175444602966309, -0.4689813256263733, -0.5245352983474731, -1.4316602945327759, 0.8837890625, 0.284912109375, -0.390869140625
252, 2220819183, -7.3383989334106445, -1.3758457899093628, 6.1706671714782715, -0.6738060712814331, -0.3522898256778717, -1.6426832675933838, 0.8837890625, 0.286376953125, -0.390380859375
253, 2220835850, -7.316159248352051, -1.401199460029602, 6.189043998718262, -0.6592836976051331, -0.24905791878700256, -1.6300820112228394, 0.880859375, 0.287353515625, -0.3876953125
254, 2220852517, -7.343653678894043, -1.4103049039840698, 6.201588153839111, -0.549917459487915, -0.34306931495666504, -1.4178422689437866, 0.87939453125, 0.287353515625, -0.388671875
255, 2220869184, -7.349541187286377, -1.4154553413391113, 6.193477153778076, -0.3970736265182495, -0.4108405113220215, -1.3553471565246582, 0.88330078125, 0.286865234375, -0.38671875
256, 2220885851, -7.345790863037109, -1.378587007522583, 6.206765174865723, -0.4677903354167938, -0.44975900650024414, -1.400412678718567, 0.880859375, 0.285888671875, -0.389892578125
257, 2220902518, -7.353190898895264, -1.3964539766311646, 6.169930934906006, -0.42519646883010864, -0.5179784297943115, -1.4051640033721924, 0.8828125, 0.286865234375, -0.3896484375
258, 2220919185, -7.3318681716918945, -1.397064447402954, 6.194888591766357, -0.44445714354515076, -0.532526433467865, -1.3315274715423584, 0.8828125, 0.287841796875, -0.38720703125
259, 2220935852, -7.347733020782471, -1.4133247137069702, 6.169249534606934, -0.3657877743244171, -0.5405688881874084, -1.2183191776275635, 0.88134765625, 0.286865234375, -0.38720703125
260, 2220952519, -7.337673664093018, -1.4021861553192139, 6.19473123550415, -0.3322863280773163, -0.5275831818580627, -1.1764552593231201, 0.8818359375, 0.286865234375, -0.38623046875
261, 2220969186, -7.3397674560546875, -1.3852859735488892, 6.17527437210083, -0.2718660235404968, -0.5704076886177063, -1.1068016290664673, 0.88134765625, 0.288330078125, -0.38720703125
262, 2220985853, -7.349722862243652, -1.394879937171936, 6.19325065612793, -0.26821619272232056, -0.5919735431671143, -1.1427874565124512, 0.88134765625, 0.286376953125, -0.38818359375
263, 2221002520, -7.355817794799805, -1.3882886171340942, 6.185004234313965, -0.3685539662837982, -0.5874528884887695, -1.2882421016693115, 0.88232421875, 0.286376953125, -0.3896484375
264, 2221019187, -7.350683212280273, -1.3982253074645996, 6.171275615692139, -0.2374425083398819, -0.5672188997268677, -1.2373367547988892, 0.88623046875, 0.287841796875, -0.3896484375
265, 2221035854, -7.3486008644104, -1.4189985990524292, 6.183992385864258, -0.14021672308444977, -0.7045668959617615, -1.110707402229309, 0.880859375, 0.286376953125, -0.388671875
266, 2221052521, -7.361879348754883, -1.3824845552444458, 6.1636247634887695, -0.08100016415119171, -0.8856104016304016, -1.0230737924575806, 0.88232421875, 0.286865234375, -0.38720703125
267, 2221069188, -7.338628768920898, -1.388155221939087, 6.18505334854126, -0.15450862050056458, -0.8819221258163452, -1.154735803604126, 0.87939453125, 0.285888671875, -0.3876953125
268, 2221085855, -7.351937294006348, -1.3963818550109863, 6.189641952514648, -0.1892138123512268, -0.6702843308448792, -1.0841342210769653, 0.8837890625, 0.286865234375, -0.38916015625
269, 2221102522, -7.347814559936523, -1.3710143566131592, 6.190999984741211, -0.28950035572052, -0.6214537620544434, -1.2235443592071533, 0.8828125, 0.287841796875, -0.389892578125
270, 2221119189, -7.345035076141357, -1.3912121057510376, 6.179572105407715, -0.2414124757051468, -0.5607515573501587, -1.315570592880249, 0.8818359375, 0.285888671875, -0.38720703125
271, 2221135856, -7.35057258605957, -1.4111034870147705, 6.2061543464660645, -0.3028445541858673, -0.5025212168693542, -1.138253927230835, 0.8828125, 0.286376953125, -0.38525390625
272, 2221152523, -7.345297336578369, -1.40006685256958, 6.164725303649902, -0.2599817216396332, -0.6557236313819885, -1.2131456136703491, 0.87939453125, 0.286865234375, -0.3876953125
273, 2221169190, -7.340810298919678, -1.3953375816345215, 6.1900482177734375, -0.18833018839359283, -0.483606219291687, -1.1432100534439087, 0.8828125, 0.286865234375, -0.3876953125
274, 2221185857, -7.349104881286621, -1.3948414325714111, 6.1882405281066895, -0.2721221446990967, -0.447581946849823, -1.2013124227523804, 0.8828125, 0.284423828125, -0.38720703125
275, 2221202524, -7.333804607391357, -1.3891946077346802, 6.154902458190918, -0.2871439754962921, -0.3208118677139282, -1.220342755317688, 0.88427734375, 0.285888671875, -0.38623046875
276, 2221219191, -7.356793403625488, -1.3992334604263306, 6.153965950012207, -0.2688821256160736, -0.3476924002170563, -1.1962924003601074, 0.8828125, 0.287353515625, -0.3876953125
277, 2221235858, -7.353085517883301, -1.3947994709014893, 6.160828590393066, -0.26118552684783936, -0.4739886522293091, -1.261476755142212, 0.88330078125, 0.284912109375, -0.38720703125
278, 2221252525, -7.338428020477295, -1.391302227973938, 6.156961917877197, -0.35300707817077637, -0.4533191919326782, -1.1771342754364014, 0.87939453125, 0.285888671875, -0.3876953125
279, 2221269192, -7.339860439300537, -1.4071372747421265, 6.162103652954102, -0.34195512533187866, -0.5493923425674438, -1.127944827079773, 0.8818359375, 0.288330078125, -0.38623046875
280, 2221285859, -7.353989124298096, -1.402172565460205, 6.138850212097168, -0.24787971377372742, -0.6901598572731018, -1.1412378549575806, 0.8818359375, 0.286376953125, -0.38818359375
281, 2221302526, -7.351401329040527, -1.3986949920654297, 6.152376651763916, -0.25391146540641785, -0.5837005972862244, -1.1852915287017822, 0.884765625, 0.286865234375, -0.38818359375
282, 2221319193, -7.360641002655029, -1.3891457319259644, 6.181366443634033, -0.3155997097492218, -0.5675519108772278, -1.2292431592941284, 0.8818359375, 0.287353515625, -0.38818359375
283, 2221335860, -7.359349727630615, -1.3928865194320679, 6.163494110107422, -0.3382541537284851, -0.588118851184845, -1.2003263235092163, 0.88232421875, 0.285888671875, -0.38671875
284, 2221352527, -7.337484836578369, -1.4150505065917969, 6.167012691497803, -0.28984612226486206, -0.5782067179679871, -1.2410249710083008, 0.88037109375, 0.287841796875, -0.38916015625
285, 2221369194, -7.354249000549316, -1.4084829092025757, 6.178009033203125, -0.24018307030200958, -0.6826424598693848, -1.2641916275024414, 0.8828125, 0.288818359375, -0.38818359375
286, 2221385861, -7.337330341339111, -1.3982949256896973, 6.166851043701172, -0.34125083684921265, -0.5491234660148621, -1.1906319856643677, 0.8828125, 0.287353515625, -0.3857421875
287, 2221402528, -7.340095043182373, -1.3996078968048096, 6.1535964012146, -0.2923049330711365, -0.5711247324943542, -1.1587826013565063, 0.884765625, 0.286376953125, -0.38720703125
288, 2221419195, -7.332889556884766, -1.4069026708602905, 6.153674125671387, -0.20435091853141785, -0.6159598231315613, -1.105584979057312, 0.8837890625, 0.286865234375, -0.390380859375
289, 2221435862, -7.339389801025391, -1.4050424098968506, 6.163827419281006, -0.17711181938648224, -0.715580403804779, -1.1612286567687988, 0.88134765625, 0.286865234375, -0.38525390625
290, 2221452529, -7.349947929382324, -1.4208334684371948, 6.158257007598877, -0.1606556624174118, -0.7683810591697693, -1.12608802318573, 0.880859375, 0.287353515625, -0.38720703125
291, 2221469196, -7.341135025024414, -1.3969963788986206, 6.1600751876831055, -0.07199729979038239, -0.8807438611984253, -1.0806254148483276, 0.88232421875, 0.284912109375, -0.390380859375
292, 2221485863, -7.340526103973389, -1.4053997993469238, 6.188948631286621, -0.10753491520881653, -0.7555489540100098, -1.166351079940796, 0.8828125, 0.286376953125, -0.389892578125
293, 2221502530, -7.346220016479492, -1.4020380973815918, 6.1477484703063965, -0.11154329776763916, -0.8363314270973206, -1.0384796857833862, 0.88232421875, 0.284912109375, -0.3857421875
294, 2221519197, -7.3594255447387695, -1.3970961570739746, 6.1666998863220215, -0.17740637063980103, -0.908636212348938, -1.061876893043518, 0.8818359375, 0.287841796875, -0.38623046875
295, 2221535864, -7.3603925704956055, -1.3912172317504883, 6.19920539855957, -0.23086002469062805, -0.8649023175239563, -1.0897434949874878, 0.8837890625, 0.287353515625, -0.38623046875
296, 2221552531, -7.358983039855957, -1.3933298587799072, 6.185240268707275, -0.35307106375694275, -0.7667801380157471, -1.2512699365615845, 0.88134765625, 0.286865234375, -0.38623046875
297, 2221569198, -7.350616931915283, -1.3925013542175293, 6.158352375030518, -0.3521105945110321, -0.6740110516548157, -1.2738860845565796, 0.88330078125, 0.286376953125, -0.38623046875
298, 2221585865, -7.348342418670654, -1.3992137908935547, 6.187094688415527, -0.3541211783885956, -0.9193934202194214, -1.2633975744247437, 0.88232421875, 0.285400390625, -0.388671875
299, 2221602532, -7.342089653015137, -1.4052581787109375, 6.160186290740967, -0.2745809555053711, -0.9230561256408691, -1.2364659309387207, 0.88427734375, 0.285888671875, -0.38818359375
300, 2221619199, -7.352677345275879, -1.3937851190567017, 6.158815860748291, -0.22768409550189972, -0.8861352801322937, -1.2930954694747925, 0.88427734375, 0.285400390625, -0.38818359375
301, 2221635866, -7.344349384307861, -1.3893396854400635, 6.177737236022949, -0.3148568868637085, -0.7334452271461487, -1.3286843299865723, 0.88330078125, 0.287353515625, -0.38720703125
302, 2221652533, -7.341607570648193, -1.398739218711853, 6.172419548034668, -0.3274327218532562, -0.6307767629623413, -1.400502324104309, 0.8818359375, 0.285888671875, -0.38916015625
303, 2221669200, -7.354084491729736, -1.393954873085022, 6.180451393127441, -0.41641122102737427, -0.5567432641983032, -1.3994265794754028, 0.880859375, 0.285888671875, -0.3876953125
304, 2221685867, -7.3272247314453125, -1.40457022190094, 6.174427032470703, -0.4398981034755707, -0.6505625247955322, -1.474714994430542, 0.8818359375, 0.285888671875, -0.38818359375
305, 2221702534, -7.348484992980957, -1.3959392309188843, 6.181225776672363, -0.34543851017951965, -0.6308920383453369, -1.536096215248108, 0.88134765625, 0.286865234375, -0.384765625
306, 2221719201, -7.356290340423584, -1.4044488668441772, 6.187192440032959, -0.47291284799575806, -0.5070417523384094, -1.6837787628173828, 0.88232421875, 0.288330078125, -0.38818359375
307, 2221735868, -7.350766658782959, -1.4078819751739502, 6.143493175506592, -0.5668730735778809, -0.5646959543228149, -1.6753010749816895, 0.8828125, 0.286865234375, -0.38916015625
308, 2221752535, -7.344329357147217, -1.3928953409194946, 6.178271770477295, -0.41196751594543457, -0.565963864326477, -1.6374839544296265, 0.8828125, 0.286865234375, -0.3896484375
309, 2221769202, -7.335255146026611, -1.3994163274765015, 6.1753644943237305, -0.47751033306121826, -0.5016759037971497, -1.625279426574707, 0.88232421875, 0.287841796875, -0.388671875
310, 2221785869, -7.327213764190674, -1.4174094200134277, 6.167885780334473, -0.4768444299697876, -0.5523762702941895, -1.678848385810852, 0.8828125, 0.287353515625, -0.38671875
311, 2221802536, -7.350347995758057, -1.4088515043258667, 6.1675591468811035, -0.4104306995868683, -0.5371495485305786, -1.5300770998001099, 0.8837890625, 0.285400390625, -0.388671875
312, 2221819203, -7.350749492645264, -1.407217264175415, 6.156206130981445, -0.38666215538978577, -0.3878403306007385, -1.503132700920105, 0.880859375, 0.287841796875, -0.38623046875
313, 2221835870, -7.350633144378662, -1.4095795154571533, 6.192855358123779, -0.39286041259765625, -0.5021882057189941, -1.4559155702590942, 0.8818359375, 0.288330078125, -0.38720703125
314, 2221852537, -7.350558757781982, -1.4421627521514893, 6.1751017570495605, -0.34931880235671997, -0.42049646377563477, -1.501941442489624, 0.8828125, 0.288330078125, -0.388671875
315, 2221869204, -7.34779691696167, -1.395220160484314, 6.16467809677124, -0.4158349931240082, -0.39570340514183044, -1.373173713684082, 0.88134765625, 0.285888671875, -0.38720703125
316, 2221885871, -7.354066371917725, -1.4144575595855713, 6.144624710083008, -0.39398738741874695, -0.4678672254085541, -1.3219099044799805, 0.8818359375, 0.288818359375, -0.38916015625
317, 2221902538, -7.351163387298584, -1.4029436111450195, 6.150907516479492, -0.36642807722091675, -0.6086602210998535, -1.4412777423858643, 0.8837890625, 0.2890625, -0.384765625
318, 2221919205, -7.3513593673706055, -1.4179316759109497, 6.16397762298584, -0.29207438230514526, -0.7590963244438171, -1.3887461423873901, 0.88134765625, 0.286376953125, -0.38623046875
319, 2221935872, -7.342406272888184, -1.4186912775039673, 6.17474365234375, -0.30003997683525085, -0.7909201383590698, -1.382214903831482, 0.880859375, 0.289794921875, -0.38720703125
320, 2221952539, -7.352198123931885, -1.4024455547332764, 6.165137767791748, -0.3534936308860779, -0.7852084040641785, -1.4213765859603882, 0.88134765625, 0.2900390625, -0.38623046875
321, 2221969206, -7.357481479644775, -1.4100747108459473, 6.156867980957031, -0.32635706663131714, -0.816814661026001, -1.4443771839141846, 0.88037109375, 0.289794921875, -0.38525390625
322, 2221985873, -7.326944351196289, -1.42943274974823, 6.170186996459961, -0.34866568446159363, -0.7259663343429565, -1.4224653244018555, 0.88330078125, 0.29052734375, -0.38623046875
323, 2222002540, -7.3565993309021, -1.4304388761520386, 6.153957366943359, -0.369437575340271, -0.6282154321670532, -1.4087752103805542, 0.8828125, 0.2900390625, -0.3876953125
324, 2222019207, -7.3360419273376465, -1.4141453504562378, 6.188388347625732, -0.40640953183174133, -0.5146103501319885, -1.4013861417770386, 0.8837890625, 0.2900390625, -0.38720703125
325, 2222035874, -7.3472819328308105, -1.4196133613586426, 6.171863079071045, -0.3963565230369568, -0.47768962383270264, -1.3480221033096313, 0.88134765625, 0.289306640625, -0.384765625
326, 2222052541, -7.354773044586182, -1.4201011657714844, 6.175797462463379, -0.3077622056007385, -0.59061598777771, -1.3130605220794678, 0.88232421875, 0.286376953125, -0.38623046875
327, 2222069208, -7.353043556213379, -1.4375908374786377, 6.1701555252075195, -0.34438833594322205, -0.6601160764694214, -1.2874350547790527, 0.8828125, 0.288818359375, -0.38671875
328, 2222085875, -7.34455680847168, -1.4139989614486694, 6.160577774047852, -0.22951538860797882, -0.6260383725166321, -1.2788804769515991, 0.88427734375, 0.28955078125, -0.38525390625
329, 2222102542, -7.341283798217773, -1.4207603931427002, 6.14731502532959, -0.2984391748905182, -0.6727943420410156, -1.302981972694397, 0.88330078125, 0.287353515625, -0.38818359375
330, 2222119209, -7.336375713348389, -1.421411395072937, 6.159019947052002, -0.29286840558052063, -0.6368853449821472, -1.2134015560150146, 0.88134765625, 0.288818359375, -0.38671875
331, 2222135876, -7.347419738769531, -1.4295860528945923, 6.17871618270874, -0.2828410565853119, -0.6895195245742798, -1.2007617950439453, 0.8837890625, 0.287841796875, -0.3876953125
332, 2222152543, -7.345456600189209, -1.4233554601669312, 6.157037258148193, -0.20059864223003387, -0.8108596205711365, -1.2365683317184448, 0.88134765625, 0.289794921875, -0.38671875
333, 2222169210, -7.3408050537109375, -1.4157800674438477, 6.17794942855835, -0.22667236626148224, -0.6631512641906738, -1.3308615684509277, 0.8837890625, 0.2900390625, -0.388671875
334, 2222185877, -7.336556434631348, -1.415873646736145, 6.175079822540283, -0.28097131848335266, -0.5528244972229004, -1.3210773468017578, 0.8828125, 0.29052734375, -0.38525390625
335, 2222202544, -7.345308780670166, -1.4237449169158936, 6.166775226593018, -0.28556880354881287, -0.6735371351242065, -1.2752177715301514, 0.8837890625, 0.2900390625, -0.388671875
336, 2222219211, -7.368288040161133, -1.4251610040664673, 6.168337821960449, -0.24049045145511627, -0.5885030627250671, -1.3048006296157837, 0.8837890625, 0.288818359375, -0.38818359375
337, 2222235878, -7.344271183013916, -1.4385842084884644, 6.174103260040283, -0.2783588469028473, -0.5539899468421936, -1.1404439210891724, 0.880126953125, 0.29052734375, -0.38818359375
338, 2222252545, -7.34982442855835, -1.4406589269638062, 6.160363674163818, -0.17241188883781433, -0.7177574634552002, -1.1460787057876587, 0.8828125, 0.288330078125, -0.3896484375
339, 2222269212, -7.357966423034668, -1.4332572221755981, 6.1719651222229, -0.20687377452850342, -0.7950822114944458, -1.10975980758667, 0.8818359375, 0.288330078125, -0.384033203125
340, 2222285879, -7.352069854736328, -1.414133071899414, 6.172250270843506, -0.15228033065795898, -0.9015030264854431, -1.0787813663482666, 0.88232421875, 0.289306640625, -0.38916015625
341, 2222302546, -7.355260372161865, -1.40647292137146, 6.180444717407227, -0.06960251182317734, -1.0114198923110962, -0.9728087782859802, 0.8837890625, 0.287841796875, -0.3896484375
342, 2222319213, -7.3483147621154785, -1.4161901473999023, 6.180883884429932, -0.08891449123620987, -0.924400806427002, -1.1821798086166382, 0.88427734375, 0.2890625, -0.388671875
343, 2222335880, -7.356016635894775, -1.4249943494796753, 6.171327590942383, -0.22678765654563904, -0.875685453414917, -1.214784860610962, 0.88134765625, 0.289794921875, -0.38720703125
344, 2222352547, -7.357369422912598, -1.416105031967163, 6.169006824493408, -0.32653629779815674, -0.6738572120666504, -1.3397233486175537, 0.8798828125, 0.288818359375, -0.38671875
345, 2222369214, -7.3560004234313965, -1.4189014434814453, 6.17020320892334, -0.30226829648017883, -0.5783348679542542, -1.4023466110229492, 0.88232421875, 0.2900390625, -0.38671875
346, 2222385881, -7.354275703430176, -1.4237289428710938, 6.167507648468018, -0.4033231735229492, -0.7029405832290649, -1.3801404237747192, 0.88330078125, 0.291015625, -0.38525390625
347, 2222402548, -7.344226360321045, -1.417850136756897, 6.157232284545898, -0.3193775415420532, -0.6498197913169861, -1.3326287269592285, 0.88427734375, 0.288330078125, -0.3876953125
348, 2222419215, -7.344546318054199, -1.4214838743209839, 6.159041881561279, -0.38817325234413147, -0.6636762619018555, -1.3457679748535156, 0.88232421875, 0.288330078125, -0.38720703125
349, 2222435882, -7.353079795837402, -1.4321507215499878, 6.183715343475342, -0.2676399350166321, -0.7620034217834473, -1.3092060089111328, 0.88330078125, 0.28955078125, -0.388671875
350, 2222452549, -7.34893274307251, -1.425855278968811, 6.165501594543457, -0.1992027461528778, -0.6978307366371155, -1.2727717161178589, 0.88134765625, 0.289794921875, -0.3876953125
351, 2222469216, -7.345402717590332, -1.415189266204834, 6.171690464019775, -0.3248971104621887, -0.7463797330856323, -1.3201169967651367, 0.88134765625, 0.289794921875, -0.38916015625
352, 2222485883, -7.366106033325195, -1.412013292312622, 6.137479782104492, -0.3613952100276947, -0.6686707735061646, -1.2667913436889648, 0.88134765625, 0.287353515625, -0.38671875
353, 2222502550, -7.3459038734436035, -1.431550145149231, 6.170185089111328, -0.2442811280488968, -0.6577085256576538, -1.2287819385528564, 0.88330078125, 0.287353515625, -0.38720703125
354, 2222519217, -7.335882186889648, -1.4287545680999756, 6.1506524085998535, -0.22566068172454834, -0.7668442130088806, -1.2493233680725098, 0.88330078125, 0.2919921875, -0.3857421875
355, 2222535884, -7.339500904083252, -1.4313232898712158, 6.1584792137146, -0.19337588548660278, -0.8746480345726013, -1.19983971118927, 0.8798828125, 0.2900390625, -0.38671875
356, 2222552551, -7.355467319488525, -1.4377323389053345, 6.183559417724609, -0.3326833248138428, -0.7731962203979492, -1.1896073818206787, 0.8798828125, 0.289306640625, -0.3876953125
357, 2222569218, -7.349444389343262, -1.4342972040176392, 6.1613450050354, -0.19871611893177032, -0.6822454333305359, -1.2360175848007202, 0.880859375, 0.288818359375, -0.38671875
358, 2222585885, -7.352560043334961, -1.430229902267456, 6.151491641998291, -0.25359129905700684, -0.6851524710655212, -1.2719392776489258, 0.88037109375, 0.289306640625, -0.38623046875
359, 2222602552, -7.345040798187256, -1.4138997793197632, 6.162750244140625, -0.36398205161094666, -0.7018007040023804, -1.358267068862915, 0.8818359375, 0.28955078125, -0.3876953125
360, 2222619219, -7.36113977432251, -1.415521502494812, 6.156661510467529, -0.38426733016967773, -0.7326769232749939, -1.3167744874954224, 0.8818359375, 0.28955078125, -0.3857421875
361, 2222635886, -7.359006881713867, -1.4201083183288574, 6.198852062225342, -0.39917391538619995, -0.6694903373718262, -1.4011170864105225, 0.88330078125, 0.291015625, -0.3876953125
362, 2222652553, -7.349726676940918, -1.4318946599960327, 6.160123348236084, -0.34502869844436646, -0.61087566614151, -1.355296015739441, 0.88134765625, 0.2900390625, -0.3876953125
363, 2222669220, -7.3391432762146, -1.4286210536956787, 6.171407222747803, -0.31157851219177246, -0.7108932733535767, -1.3597142696380615, 0.880859375, 0.287353515625, -0.38623046875
364, 2222685887, -7.336946487426758, -1.4273462295532227, 6.184218883514404, -0.44242095947265625, -0.6465669870376587, -1.3682559728622437, 0.8828125, 0.288330078125, -0.38720703125
365, 2222702554, -7.357322692871094, -1.4272650480270386, 6.163030624389648, -0.4492979645729065, -0.6008098721504211, -1.44852614402771, 0.88525390625, 0.287353515625, -0.38720703125
366, 2222719221, -7.355067253112793, -1.419778823852539, 6.181696891784668, -0.46927589178085327, -0.6111190319061279, -1.4589377641677856, 0.88330078125, 0.288818359375, -0.38623046875
367, 2222735888, -7.356725692749023, -1.4207065105438232, 6.1738200187683105, -0.4815315306186676, -0.6233747005462646, -1.3813698291778564, 0.88232421875, 0.288818359375, -0.3876953125
368, 2222752555, -7.335484981536865, -1.4384417533874512, 6.1663665771484375, -0.5205780863761902, -0.5155451893806458, -1.4375638961791992, 0.880859375, 0.288330078125, -0.3876953125
369, 2222769222, -7.348288059234619, -1.4371284246444702, 6.174171447753906, -0.4243128001689911, -0.5570378303527832, -1.3954951763153076, 0.880859375, 0.2900390625, -0.38623046875
370, 2222785889, -7.35533332824707, -1.4348136186599731, 6.175110340118408, -0.46679142117500305, -0.5472025275230408, -1.4700793027877808, 0.88037109375, 0.29150390625, -0.3837890625
371, 2222802556, -7.358605861663818, -1.4429500102996826, 6.163132190704346, -0.4110325574874878, -0.5536696910858154, -1.4892503023147583, 0.88330078125, 0.2900390625, -0.38427734375
372, 2222819223, -7.3538126945495605, -1.4420322179794312, 6.156944751739502, -0.3578990697860718, -0.5948677659034729, -1.4407399892807007, 0.8828125, 0.288818359375, -0.3857421875
373, 2222835890, -7.354053974151611, -1.4379754066467285, 6.164433479309082, -0.41761505603790283, -0.7038498520851135, -1.4357198476791382, 0.88232421875, 0.29052734375, -0.38671875
374, 2222852557, -7.365309238433838, -1.4396295547485352, 6.16705846786499, -0.44098663330078125, -0.5154555439949036, -1.466109275817871, 0.880859375, 0.291015625, -0.38525390625
375, 2222869224, -7.3670454025268555, -1.4376749992370605, 6.152588844299316, -0.460644394159317, -0.6116952896118164, -1.4663015604019165, 0.88232421875, 0.291015625, -0.38525390625
376, 2222885891, -7.351633548736572, -1.4437721967697144, 6.162920951843262, -0.46476808190345764, -0.5216794610023499, -1.462433934211731, 0.88134765625, 0.2919921875, -0.384765625
377, 2222902558, -7.361507415771484, -1.4477734565734863, 6.136697769165039, -0.511101484298706, -0.488267719745636, -1.4454143047332764, 0.8837890625, 0.29052734375, -0.38623046875
378, 2222919225, -7.353110313415527, -1.4468661546707153, 6.15069580078125, -0.37356120347976685, -0.5337302684783936, -1.4114261865615845, 0.8818359375, 0.29052734375, -0.384765625
379, 2222935892, -7.356564044952393, -1.4378432035446167, 6.164186477661133, -0.3244744837284088, -0.6337478756904602, -1.2998701333999634, 0.8837890625, 0.2900390625, -0.38671875
380, 2222952559, -7.361105918884277, -1.4443684816360474, 6.149280548095703, -0.2999119162559509, -0.595405638217926, -1.317171573638916, 0.8828125, 0.288818359375, -0.384033203125
381, 2222969226, -7.34086799621582, -1.4584934711456299, 6.183384418487549, -0.36367475986480713, -0.6836413741111755, -1.3024699687957764, 0.8798828125, 0.291015625, -0.38427734375
382, 2222985893, -7.351871490478516, -1.4400829076766968, 6.157057285308838, -0.27892228960990906, -0.668696403503418, -1.2800074815750122, 0.8828125, 0.2900390625, -0.383056640625
383, 2223002560, -7.3503899574279785, -1.4429221153259277, 6.16566801071167, -0.35949987173080444, -0.6567992568016052, -1.3547582626342773, 0.88330078125, 0.2900390625, -0.38671875
384, 2223019227, -7.351985454559326, -1.448920726776123, 6.14585018157959, -0.303971529006958, -0.6138979196548462, -1.2873071432113647, 0.88330078125, 0.29052734375, -0.38623046875
385, 2223035894, -7.354979515075684, -1.4350905418395996, 6.133663654327393, -0.33941948413848877, -0.6872527599334717, -1.2452638149261475, 0.8828125, 0.291015625, -0.38623046875
386, 2223052561, -7.345574855804443, -1.4418847560882568, 6.151051044464111, -0.2124829739332199, -0.706206202507019, -1.2362608909606934, 0.8798828125, 0.291015625, -0.38525390625
387, 2223069228, -7.349039554595947, -1.4557687044143677, 6.176361083984375, -0.23224316537380219, -0.7541916370391846, -1.2015942335128784, 0.880615234375, 0.29248046875, -0.38525390625
388, 2223085895, -7.361536502838135, -1.4430747032165527, 6.148362636566162, -0.21127918362617493, -0.7565479278564453, -1.1457970142364502, 0.8837890625, 0.29150390625, -0.383056640625
389, 2223102562, -7.354040145874023, -1.4585403203964233, 6.168622016906738, -0.23699431121349335, -0.822743833065033, -1.1492289304733276, 0.8828125, 0.29150390625, -0.3857421875
390, 2223119229, -7.360320568084717, -1.4298044443130493, 6.17976713180542, -0.26422059535980225, -0.7799450755119324, -1.1327985525131226, 0.8837890625, 0.29052734375, -0.3857421875
391, 2223135896, -7.347775459289551, -1.4519720077514648, 6.169745922088623, -0.3159966766834259, -0.6851525902748108, -1.2199201583862305, 0.88134765625, 0.29248046875, -0.3857421875
392, 2223152563, -7.342304706573486, -1.4571263790130615, 6.165104389190674, -0.2702139914035797, -0.6443387269973755, -1.1656211614608765, 0.880859375, 0.2919921875, -0.384765625
393, 2223169230, -7.341526985168457, -1.4424618482589722, 6.157806873321533, -0.2572411596775055, -0.560469925403595, -1.1437222957611084, 0.88037109375, 0.291015625, -0.38525390625
394, 2223185897, -7.356383323669434, -1.4431885480880737, 6.180299282073975, -0.2520289719104767, -0.5336918234825134, -1.1713968515396118, 0.88330078125, 0.29150390625, -0.383544921875
395, 2223202564, -7.357855796813965, -1.4562878608703613, 6.15293550491333, -0.24553611874580383, -0.5646191835403442, -1.2252475023269653, 0.88330078125, 0.29052734375, -0.38427734375
396, 2223219231, -7.346317768096924, -1.4447681903839111, 6.178640842437744, -0.3442218601703644, -0.6831674575805664, -1.2627829313278198, 0.884765625, 0.29052734375, -0.38720703125
397, 2223235898, -7.351478099822998, -1.4585351943969727, 6.129788398742676, -0.1918519288301468, -0.6966142058372498, -1.2957721948623657, 0.8828125, 0.288330078125, -0.3857421875
398, 2223252565, -7.3465118408203125, -1.437066674232483, 6.1434807777404785, -0.30666086077690125, -0.6953592300415039, -1.2960153818130493, 0.880615234375, 0.29248046875, -0.38623046875
399, 2223269232, -7.370109558105469, -1.422493815422058, 6.166860103607178, -0.5143030881881714, -0.38777628540992737, -1.5101375579833984, 0.8818359375, 0.291015625, -0.38671875
400, 2223285899, -7.355557918548584, -1.442700982093811, 6.183246612548828, -0.4580959379673004, -0.4957209825515747, -1.7066380977630615, 0.88232421875, 0.29150390625, -0.384765625
401, 2223302566, -7.327367782592773, -1.3822280168533325, 6.1434783935546875, -0.5341912508010864, -0.13123945891857147, -1.9603960514068604, 0.88427734375, 0.29248046875, -0.3837890625
402, 2223319233, -7.3508124351501465, -1.3888609409332275, 6.1924872398376465, -1.6528388261795044, 1.1738492250442505, -3.108370304107666, 0.88330078125, 0.29150390625, -0.3837890625
403, 2223335900, -7.411427021026611, -1.5162917375564575, 6.192652225494385, -3.0342724323272705, 1.9984630346298218, -4.19227409362793, 0.88232421875, 0.29248046875, -0.384765625
404, 2223352567, -7.364126682281494, -1.4707409143447876, 6.154775619506836, -3.049140691757202, 2.6965882778167725, -3.8258843421936035, 0.88232421875, 0.29296875, -0.382080078125
405, 2223369234, -7.376093864440918, -1.5450044870376587, 6.101905345916748, -2.553701877593994, 2.0845730304718018, -3.3206229209899902, 0.88330078125, 0.296142578125, -0.38330078125
406, 2223385901, -7.363463401794434, -1.5437097549438477, 6.129909515380859, -1.6962652206420898, 1.1634248495101929, -2.588701009750366, 0.8837890625, 0.294677734375, -0.381591796875
407, 2223402568, -7.372087001800537, -1.531851887702942, 6.11194372177124, -0.9868829250335693, 0.4522242546081543, -1.8389663696289062, 0.8828125, 0.294677734375, -0.381591796875
408, 2223419235, -7.3668084144592285, -1.5409184694290161, 6.097781181335449, -0.30167919397354126, -0.26678189635276794, -1.1362305879592896, 0.8837890625, 0.297607421875, -0.378173828125
409, 2223435902, -7.380056858062744, -1.488566279411316, 6.122796058654785, -0.15996411442756653, -0.7551775574684143, -0.856616735458374, 0.88427734375, 0.294189453125, -0.38330078125
410, 2223452569, -7.393046855926514, -1.517837643623352, 6.135006904602051, -0.5721877217292786, -0.4770621359348297, -0.9358239769935608, 0.88330078125, 0.296630859375, -0.379638671875
411, 2223469236, -7.3822712898254395, -1.4735091924667358, 6.142660617828369, -0.9533560276031494, -0.07598008215427399, -0.9212248921394348, 0.8818359375, 0.296630859375, -0.382080078125
412, 2223485903, -7.383302688598633, -1.4842746257781982, 6.145047664642334, -1.8309240341186523, 0.6647968292236328, -1.22506844997406, 0.88525390625, 0.296142578125, -0.380126953125
413, 2223502570, -7.413223743438721, -1.4871443510055542, 6.130981922149658, -2.549936056137085, 1.0971647500991821, -1.9542872905731201, 0.88427734375, 0.296142578125, -0.377685546875
414, 2223519237, -7.379630088806152, -1.4989542961120605, 6.101060390472412, -2.5186502933502197, 0.47498106956481934, -2.435511350631714, 0.88525390625, 0.296630859375, -0.381591796875
415, 2223535904, -7.375611305236816, -1.5229523181915283, 6.075685977935791, -1.9963432550430298, 0.2455425262451172, -2.2637014389038086, 0.8837890625, 0.299072265625, -0.376708984375
416, 2223552571, -7.384221076965332, -1.5212715864181519, 6.101059436798096, -1.8882577419281006, 0.18286827206611633, -2.218264579772949, 0.88330078125, 0.298095703125, -0.377197265625
417, 2223569238, -7.364809989929199, -1.5185937881469727, 6.079122543334961, -1.7548543214797974, 0.02924330160021782, -2.3813791275024414, 0.8828125, 0.298583984375, -0.378662109375
418, 2223585905, -7.370449542999268, -1.514729380607605, 6.104405879974365, -1.340094804763794, 0.2888279855251312, -2.3253896236419678, 0.88330078125, 0.2998046875, -0.37646484375
419, 2223602572, -7.382968425750732, -1.5354738235473633, 6.096672058105469, -1.0982213020324707, 0.42705976963043213, -2.2244374752044678, 0.8857421875, 0.298095703125, -0.376953125
420, 2223619239, -7.392599105834961, -1.5412598848342896, 6.093303680419922, -0.9457233548164368, 0.46132954955101013, -2.156128406524658, 0.88232421875, 0.299560546875, -0.378662109375
421, 2223635906, -7.380045413970947, -1.5727356672286987, 6.090641021728516, -0.6147304773330688, 0.1228577196598053, -1.6880691051483154, 0.8837890625, 0.2998046875, -0.377197265625
422, 2223652573, -7.390571594238281, -1.5743552446365356, 6.07774543762207, -0.18315640091896057, -0.21150965988636017, -1.326174259185791, 0.88330078125, 0.29931640625, -0.378173828125
423, 2223669240, -7.401052474975586, -1.5645498037338257, 6.046087741851807, 0.028513338416814804, -0.6374617218971252, -1.1145110130310059, 0.8837890625, 0.30126953125, -0.3759765625
424, 2223685907, -7.4007744789123535, -1.5356850624084473, 6.067164897918701, 0.3165537416934967, -1.2369909286499023, -0.8281353712081909, 0.884765625, 0.30029296875, -0.378173828125
425, 2223702574, -7.408804893493652, -1.5557959079742432, 6.065085411071777, 0.5225951075553894, -1.5066543817520142, -0.5371496081352234, 0.88525390625, 0.30029296875, -0.376708984375
426, 2223719241, -7.384308815002441, -1.5382851362228394, 6.069161415100098, 0.975184440612793, -1.8743247985839844, -0.1821703314781189, 0.8857421875, 0.298583984375, -0.37646484375
427, 2223735908, -7.40117073059082, -1.5490959882736206, 6.079669952392578, 1.6031180620193481, -2.4845986366271973, 0.557940661907196, 0.88330078125, 0.297607421875, -0.378173828125
428, 2223752575, -7.387304306030273, -1.5270121097564697, 6.064614772796631, 2.411813735961914, -3.688946485519409, 1.3744224309921265, 0.8837890625, 0.297119140625, -0.380126953125
429, 2223769242, -7.353432655334473, -1.6476131677627563, 6.08309268951416, 3.730867862701416, -5.146693706512451, 2.9818248748779297, 0.8828125, 0.296142578125, -0.380615234375
430, 2223785909, -7.3826093673706055, -1.5572940111160278, 6.0826735496521, 3.823791027069092, -5.817644119262695, 3.671741008758545, 0.88330078125, 0.295166015625, -0.381591796875
431, 2223802576, -7.383129596710205, -1.483662724494934, 6.138652324676514, 3.489917039871216, -5.626420497894287, 3.38604474067688, 0.8837890625, 0.29296875, -0.38427734375
432, 2223819243, -7.364203453063965, -1.3997125625610352, 6.185871601104736, 2.7101376056671143, -5.030117034912109, 2.6134495735168457, 0.88330078125, 0.291015625, -0.38525390625
433, 2223835910, -7.364316463470459, -1.38776433467865, 6.201162815093994, 1.9049127101898193, -3.9855284690856934, 1.5162783861160278, 0.88134765625, 0.2900390625, -0.38671875
434, 2223852577, -7.359742164611816, -1.3972547054290771, 6.183255672454834, 1.2941902875900269, -3.2530176639556885, 0.7187371253967285, 0.8798828125, 0.289794921875, -0.38671875
435, 2223869244, -7.363704681396484, -1.3960548639297485, 6.1777191162109375, 0.9610590934753418, -2.9174275398254395, 0.4725223183631897, 0.8828125, 0.289306640625, -0.38720703125
436, 2223885911, -7.37706184387207, -1.3965212106704712, 6.188404560089111, 1.0198785066604614, -2.5126571655273438, 0.49492064118385315, 0.880859375, 0.289794921875, -0.38671875
437, 2223902578, -7.334597587585449, -1.4363527297973633, 6.1983208656311035, 1.3088282346725464, -2.7358720302581787, 0.6362131237983704, 0.880615234375, 0.289794921875, -0.389404296875
438, 2223919245, -7.365589141845703, -1.40265691280365, 6.200363636016846, 1.2535431385040283, -2.6856582164764404, 0.5220957398414612, 0.8837890625, 0.287353515625, -0.38623046875
439, 2223935912, -7.3415045738220215, -1.364833116531372, 6.2378692626953125, 0.7416221499443054, -2.130490303039551, 0.10463429242372513, 0.88330078125, 0.287841796875, -0.38916015625
440, 2223952579, -7.316544055938721, -1.3719110488891602, 6.254687309265137, 0.09639980643987656, -1.1611133813858032, -0.2478540986776352, 0.8798828125, 0.287841796875, -0.389892578125
441, 2223969246, -7.333125591278076, -1.3254636526107788, 6.2354960441589355, -0.5260080099105835, -0.16000254452228546, -0.7457906603813171, 0.88134765625, 0.28466796875, -0.38916015625
442, 2223985913, -7.3746113777160645, -1.2565858364105225, 6.307705879211426, -1.0953271389007568, 0.9505449533462524, -1.5289757251739502, 0.8818359375, 0.287353515625, -0.388671875
443, 2224002580, -7.51581335067749, -1.1849188804626465, 6.352769374847412, -1.693780779838562, 1.6717344522476196, -2.247220039367676, 0.88330078125, 0.285400390625, -0.388671875
444, 2224019247, -7.661088466644287, -1.2633503675460815, 6.311625957489014, -2.7751102447509766, 0.5735003352165222, -1.8484044075012207, 0.8798828125, 0.285400390625, -0.38818359375
445, 2224035914, -7.602017879486084, -1.6356467008590698, 6.154718399047852, -6.453518867492676, -2.615428924560547, 0.6486353874206543, 0.88134765625, 0.287353515625, -0.38623046875
446, 2224052581, -7.179155349731445, -1.6348445415496826, 6.030511856079102, -3.5728061199188232, -6.441377639770508, 0.9438346028327942, 0.880859375, 0.285400390625, -0.389892578125
447, 2224069248, -7.028728485107422, -1.4820150136947632, 5.995120525360107, -0.6840640306472778, -7.190330505371094, -1.0363026857376099, 0.88037109375, 0.285888671875, -0.390869140625
448, 2224085915, -6.974096775054932, -1.3902831077575684, 6.04262638092041, 0.08892089873552322, -6.576419830322266, -3.886253833770752, 0.87939453125, 0.285888671875, -0.390869140625
449, 2224102582, -6.879676342010498, -1.3486871719360352, 6.09324312210083, 0.44004544615745544, -8.240848541259766, -4.974205017089844, 0.8818359375, 0.286865234375, -0.393798828125
450, 2224119249, -6.969799518585205, -0.7061471343040466, 6.324133396148682, -3.7619690895080566, -6.0499138832092285, -7.338667869567871, 0.878662109375, 0.288818359375, -0.393798828125
451, 2224135916, -7.222729206085205, -1.8660556077957153, 6.071254730224609, -7.684836387634277, 0.14101716876029968, -6.667026042938232, 0.877197265625, 0.291259765625, -0.39501953125
452, 2224152583, -7.279944896697998, -2.125925302505493, 6.103991508483887, -6.476913928985596, 0.44035273790359497, -1.1075828075408936, 0.87548828125, 0.29443359375, -0.39501953125
453, 2224169250, -7.426605701446533, -1.713218092918396, 6.31610631942749, -2.4059932231903076, -1.4358866214752197, 2.7285661697387695, 0.87646484375, 0.29345703125, -0.392333984375
454, 2224185917, -7.212386608123779, -1.334235668182373, 6.481705188751221, -1.18020761013031, 0.4328097701072693, 1.714302897453308, 0.875, 0.29248046875, -0.39453125
455, 2224202584, -7.263336658477783, -1.0040510892868042, 6.410004615783691, -3.715775728225708, 6.4800848960876465, -2.6755285263061523, 0.877685546875, 0.29248046875, -0.391357421875
456, 2224219251, -7.366098880767822, -1.4050968885421753, 6.14208459854126, -8.497174263000488, 9.862249374389648, -7.704973220825195, 0.87548828125, 0.298583984375, -0.386962890625
457, 2224235918, -7.552335739135742, -1.6386775970458984, 6.0748772621154785, -10.807146072387695, 9.208279609680176, -9.02998161315918, 0.8759765625, 0.3046875, -0.38037109375
458, 2224252585, -7.528900146484375, -1.7418044805526733, 6.037277698516846, -11.71993350982666, 6.960981369018555, -9.614017486572266, 0.87451171875, 0.30615234375, -0.3798828125
459, 2224269252, -7.3530354499816895, -1.7733440399169922, 6.21544885635376, -11.976768493652344, 8.204967498779297, -11.787707328796387, 0.87548828125, 0.310791015625, -0.377685546875
460, 2224285919, -7.242066383361816, -2.056858539581299, 6.2102532386779785, -11.299942016601562, 10.584111213684082, -12.62852668762207, 0.87548828125, 0.314453125, -0.372802734375
461, 2224302586, -7.344457626342773, -2.026447296142578, 6.0125274658203125, -9.093670845031738, 11.611190795898438, -9.462212562561035, 0.87744140625, 0.320556640625, -0.37109375
462, 2224319253, -7.423814296722412, -2.1428287029266357, 6.007722854614258, -6.560196399688721, 9.697478294372559, -2.6514151096343994, 0.876953125, 0.321533203125, -0.36669921875
463, 2224335920, -7.388647556304932, -2.4480526447296143, 5.972616672515869, -5.3780670166015625, 8.825647354125977, 4.933872699737549, 0.876953125, 0.320068359375, -0.364501953125
464, 2224352587, -7.552567481994629, -2.685070514678955, 5.658124923706055, -3.2920806407928467, 5.821228504180908, 14.279434204101562, 0.87646484375, 0.31494140625, -0.3603515625
465, 2224369254, -7.616565704345703, -1.987612009048462, 5.606241226196289, -0.4537551999092102, -4.464261054992676, 19.27417755126953, 0.880126953125, 0.31298828125, -0.35986328125
466, 2224385921, -7.567234516143799, -0.8956409096717834, 5.957845687866211, 2.685669422149658, -13.424844741821289, 17.997238159179688, 0.879150390625, 0.307861328125, -0.361328125
467, 2224402588, -7.439272880554199, -0.8898413181304932, 6.452671051025391, 0.4609968066215515, -9.477523803710938, 9.985942840576172, 0.879638671875, 0.3046875, -0.364990234375
468, 2224419255, -7.3761749267578125, -1.4140334129333496, 6.250261306762695, -0.5805376172065735, -2.4681169986724854, 7.052670478820801, 0.878173828125, 0.30126953125, -0.365478515625
469, 2224435922, -7.365482330322266, -1.5658434629440308, 6.108745574951172, 0.05824969336390495, 0.5856793522834778, 6.490790843963623, 0.87841796875, 0.299560546875, -0.36279296875
470, 2224452589, -7.344047546386719, -1.1270420551300049, 6.183709621429443, -0.3498695194721222, 3.1447083950042725, 5.417413234710693, 0.87646484375, 0.299560546875, -0.3623046875
471, 2224469256, -7.3624114990234375, -1.1361114978790283, 6.098793029785156, -1.76775062084198, 6.60183572769165, 2.885469913482666, 0.87939453125, 0.297119140625, -0.36083984375
472, 2224485923, -7.535486221313477, -1.2475738525390625, 5.974498271942139, -0.8737390041351318, 7.161754131317139, 3.3960845470428467, 0.88037109375, 0.297119140625, -0.357177734375
473, 2224502590, -7.576059818267822, -1.14926278591156, 5.815310955047607, 1.8973442316055298, 2.728924512863159, 4.027975559234619, 0.881591796875, 0.29296875, -0.357666015625
474, 2224519257, -7.668656826019287, -1.0767594575881958, 5.905195713043213, 3.3962888717651367, -4.379413604736328, 0.9524404406547546, 0.881591796875, 0.2919921875, -0.355712890625
475, 2224535924, -7.639283657073975, -0.8750967979431152, 5.8506669998168945, 5.603723526000977, -12.668845176696777, -3.1054141521453857, 0.880126953125, 0.2939453125, -0.3603515625
476, 2224552591, -7.492390155792236, -0.6980618238449097, 5.907221794128418, 9.574528694152832, -22.407499313354492, -7.223155498504639, 0.8798828125, 0.29443359375, -0.365966796875
477, 2224569258, -7.435788154602051, -1.944996953010559, 6.051417827606201, 14.238818168640137, -25.829118728637695, -7.2700347900390625, 0.8779296875, 0.29345703125, -0.3759765625
478, 2224585925, -7.360041618347168, -2.507373571395874, 6.121763229370117, 17.505571365356445, -27.734521865844727, -1.2289276123046875, 0.875732421875, 0.29150390625, -0.38427734375
479, 2224602592, -7.060654640197754, -2.041545867919922, 6.363851547241211, 15.416473388671875, -23.55344009399414, 2.125136375427246, 0.87255859375, 0.289306640625, -0.392333984375
480, 2224619259, -7.020294189453125, -1.0051300525665283, 6.847599983215332, 7.65608024597168, -8.968442916870117, 0.1023804098367691, 0.87451171875, 0.289794921875, -0.39453125
481, 2224635926, -7.1361517906188965, -0.8056607842445374, 6.524961471557617, 2.970426559448242, 1.065968632698059, -3.7073230743408203, 0.87060546875, 0.289306640625, -0.39453125
482, 2224652593, -7.151537895202637, -1.3988019227981567, 6.4762701988220215, 1.142499566078186, 6.61438512802124, -5.494540214538574, 0.87353515625, 0.289306640625, -0.3935546875
483, 2224669260, -7.2683329582214355, -1.393494963645935, 6.252812385559082, -0.7639120817184448, 10.735946655273438, -5.147272109985352, 0.87109375, 0.289794921875, -0.392333984375
484, 2224685927, -7.359833240509033, -1.411784052848816, 6.005862236022949, -3.415839433670044, 9.380163192749023, -7.28483247756958, 0.874755859375, 0.290283203125, -0.387939453125
485, 2224702594, -7.3773298263549805, -1.6244961023330688, 6.020340919494629, -4.378531455993652, 6.023886203765869, -8.76421070098877, 0.876220703125, 0.29345703125, -0.38720703125
486, 2224719261, -7.330772399902344, -1.7232158184051514, 6.204379081726074, -4.793904781341553, 4.208225727081299, -7.319573879241943, 0.877197265625, 0.29345703125, -0.38671875
487, 2224735928, -7.3523969650268555, -1.5079708099365234, 6.254768371582031, -5.873621463775635, 5.903914928436279, -6.543393611907959, 0.877197265625, 0.29541015625, -0.38525390625
488, 2224752595, -7.338235378265381, -1.8542354106903076, 6.135548114776611, -4.208629131317139, 4.126162528991699, -3.753298759460449, 0.878173828125, 0.29296875, -0.3857421875
489, 2224769262, -7.338438987731934, -1.658922791481018, 6.104189395904541, -1.156323790550232, 0.14028716087341309, -0.8685393929481506, 0.882080078125, 0.29443359375, -0.38720703125
490, 2224785929, -7.354609966278076, -1.60223388671875, 6.161022186279297, -0.5061454176902771, -0.10633111745119095, -0.3075444996356964, 0.880126953125, 0.291015625, -0.3857421875
491, 2224802596, -7.3671159744262695, -1.4835214614868164, 6.201817035675049, -0.8602152466773987, 0.29795894026756287, -0.5443466901779175, 0.879150390625, 0.288818359375, -0.388916015625
492, 2224819263, -7.367339611053467, -1.5276782512664795, 6.148651599884033, -1.2603496313095093, 1.3449546098709106, -0.0910787433385849, 0.88134765625, 0.286376953125, -0.3896484375
493, 2224835930, -7.469180583953857, -1.7376428842544556, 5.901278972625732, -1.5950565338134766, 0.6669610738754272, 0.5036289691925049, 0.87939453125, 0.287353515625, -0.38720703125
494, 2224852597, -7.39472770690918, -0.8579800724983215, 6.21341609954834, -1.609860897064209, -3.5958573818206787, -2.220903158187866, 0.8818359375, 0.289306640625, -0.38818359375
495, 2224869264, -7.413960933685303, -1.4087873697280884, 6.328858375549316, -3.551278591156006, 0.18476365506649017, -5.720623016357422, 0.87939453125, 0.288818359375, -0.3876953125
496, 2224885931, -7.428269386291504, -1.677931785583496, 6.163760662078857, -3.679354667663574, 2.0435030460357666, -5.35087776184082, 0.8818359375, 0.29150390625, -0.3876953125
497, 2224902598, -7.370036602020264, -1.8394250869750977, 6.0454936027526855, -0.41596299409866333, -0.8702681660652161, -1.707470417022705, 0.88232421875, 0.29150390625, -0.38525390625
498, 2224919265, -7.312894344329834, -1.638906478881836, 6.061551570892334, 2.179826498031616, -4.225160598754883, 2.0264317989349365, 0.88134765625, 0.289794921875, -0.388671875
499, 2224935932, -7.2723612785339355, -1.5881352424621582, 6.127389907836914, 3.393458604812622, -5.508382320404053, 3.5516812801361084, 0.88232421875, 0.29052734375, -0.389892578125
500, 2224952599, -7.195673942565918, -1.2323462963104248, 6.21643590927124, 3.952148675918579, -5.5183844566345215, 2.4632568359375, 0.878662109375, 0.287353515625, -0.391845703125
501, 2224969266, -7.221473693847656, -1.321953296661377, 6.26586389541626, 3.2884464263916016, -1.8346505165100098, -0.5860698223114014, 0.8798828125, 0.287353515625, -0.38916015625
502, 2224985933, -7.257427215576172, -1.5668392181396484, 6.1833720207214355, 3.113819122314453, -0.09458769857883453, -1.362595558166504, 0.879150390625, 0.286865234375, -0.393798828125
503, 2225002600, -7.3157877922058105, -1.5543595552444458, 6.11013126373291, 2.4794180393218994, 0.052563659846782684, -0.9040641188621521, 0.88232421875, 0.286376953125, -0.393310546875
504, 2225019267, -7.3201584815979, -1.5435303449630737, 6.124533653259277, 1.9542039632797241, -0.11340022087097168, -0.13824453949928284, 0.88134765625, 0.287841796875, -0.389892578125
505, 2225035934, -7.359108924865723, -1.5654253959655762, 6.102002143859863, 1.8544554710388184, -1.4716418981552124, 0.7420703768730164, 0.879638671875, 0.286376953125, -0.392333984375
506, 2225052601, -7.341738224029541, -1.5084874629974365, 6.137299537658691, 1.937850832939148, -3.1549088954925537, 1.2528005838394165, 0.87890625, 0.28515625, -0.38916015625
507, 2225069268, -7.311889171600342, -1.3516706228256226, 6.2342071533203125, 1.5151768922805786, -3.193326950073242, 0.6213064789772034, 0.88037109375, 0.28466796875, -0.393798828125
508, 2225085935, -7.309750080108643, -1.3107707500457764, 6.21307897567749, 0.8416653871536255, -2.0778303146362305, -0.4153227210044861, 0.87939453125, 0.2841796875, -0.392822265625
509, 2225102602, -7.301680088043213, -1.2754648923873901, 6.243741035461426, 0.025811199098825455, -0.2650274336338043, -1.7559043169021606, 0.8818359375, 0.28466796875, -0.393798828125
510, 2225119269, -7.314587593078613, -1.4752200841903687, 6.203339576721191, -0.40660160779953003, 0.9564613699913025, -2.383056640625, 0.880615234375, 0.285400390625, -0.396484375
511, 2225135936, -7.333423137664795, -1.5268844366073608, 6.186773777008057, -0.2350093424320221, 1.0005666017532349, -1.923283338546753, 0.880859375, 0.28369140625, -0.392822265625
512, 2225152603, -7.328341007232666, -1.4825224876403809, 6.177041530609131, 0.03339255601167679, 0.8438807725906372, -1.4311606884002686, 0.87890625, 0.28369140625, -0.390869140625
513, 2225169270, -7.331049919128418, -1.4548723697662354, 6.191233158111572, 0.04064095392823219, 0.8089578747749329, -1.2528067827224731, 0.88037109375, 0.284912109375, -0.392333984375
514, 2225185937, -7.348430156707764, -1.4387038946151733, 6.194758415222168, -0.030184563249349594, 0.803412675857544, -1.2528067827224731, 0.880859375, 0.28466796875, -0.392822265625
515, 2225202604, -7.341986179351807, -1.4721719026565552, 6.166874408721924, 0.06679151207208633, 0.22064699232578278, -0.8581662774085999, 0.88037109375, 0.286376953125, -0.391845703125
516, 2225219271, -7.365108489990234, -1.412708044052124, 6.194791316986084, 0.13558721542358398, -0.4177815318107605, -1.0751571655273438, 0.88427734375, 0.285400390625, -0.39013671875
517, 2225235938, -7.332406520843506, -1.4229793548583984, 6.184258937835693, -0.03412892669439316, -0.636731743812561, -1.4394595623016357, 0.880859375, 0.28466796875, -0.392822265625
518, 2225252605, -7.335972309112549, -1.418989896774292, 6.195051670074463, -0.12980517745018005, -0.31484413146972656, -1.7376937866210938, 0.88037109375, 0.28466796875, -0.392333984375
519, 2225269272, -7.334313869476318, -1.4080989360809326, 6.192803382873535, -0.1173061653971672, 0.16680912673473358, -2.0899322032928467, 0.87939453125, 0.2841796875, -0.389892578125
520, 2225285939, -7.328251361846924, -1.4216952323913574, 6.176485061645508, -0.4275784492492676, 0.6282859444618225, -2.4787585735321045, 0.88232421875, 0.285888671875, -0.391845703125
521, 2225302606, -7.346614837646484, -1.4253731966018677, 6.182370662689209, -0.4521665871143341, 0.9848403930664062, -2.7595889568328857, 0.8828125, 0.287841796875, -0.391357421875
522, 2225319273, -7.353516578674316, -1.5581669807434082, 6.152350425720215, -0.02059260942041874, -0.031145039945840836, -2.0172431468963623, 0.88427734375, 0.286865234375, -0.390869140625
523, 2225335940, -7.362599849700928, -1.4613056182861328, 6.180017948150635, 0.03845106437802315, -0.6985095143318176, -1.5281304121017456, 0.88232421875, 0.287353515625, -0.390869140625
524, 2225352607, -7.357712745666504, -1.416955828666687, 6.190932273864746, 0.03501896560192108, -0.6676591038703918, -1.6479341983795166, 0.88134765625, 0.285400390625, -0.38916015625
525, 2225369274, -7.338376522064209, -1.4503980875015259, 6.196534633636475, -0.26005852222442627, -0.12639868259429932, -1.877987265586853, 0.88232421875, 0.288330078125, -0.388671875
526, 2225385941, -7.338068962097168, -1.4509397745132446, 6.1682868003845215, -0.3653651773929596, 0.10975682735443115, -2.249025821685791, 0.88037109375, 0.287841796875, -0.391357421875
527, 2225402608, -7.340654373168945, -1.5351288318634033, 6.168751239776611, -0.39846959710121155, 0.1000111997127533, -2.2165231704711914, 0.8828125, 0.284423828125, -0.388671875
528, 2225419275, -7.349084854125977, -1.4821637868881226, 6.148670673370361, -0.3463476896286011, 0.11596789211034775, -1.9826403856277466, 0.88134765625, 0.287353515625, -0.38916015625
529, 2225435942, -7.344091415405273, -1.4782308340072632, 6.159172058105469, -0.2502744793891907, 0.09669434279203415, -1.8517085313796997, 0.880859375, 0.286865234375, -0.38916015625
530, 2225452609, -7.350495338439941, -1.4625627994537354, 6.162358283996582, -0.004917638376355171, -0.04369526728987694, -1.4384477138519287, 0.880859375, 0.287353515625, -0.390869140625
531, 2225469276, -7.355404376983643, -1.4459229707717896, 6.144289970397949, -0.08041106164455414, -0.11466804891824722, -1.471705675125122, 0.88232421875, 0.286376953125, -0.3876953125
532, 2225485943, -7.343348026275635, -1.4433064460754395, 6.161971569061279, -0.34951087832450867, 0.2324032187461853, -1.8691378831863403, 0.88330078125, 0.286865234375, -0.388671875
533, 2225502610, -7.356423854827881, -1.4965242147445679, 6.141745090484619, -0.6465286016464233, 0.5781234502792358, -1.907352328300476, 0.88134765625, 0.287841796875, -0.38720703125
534, 2225519277, -7.352207660675049, -1.4986944198608398, 6.146233558654785, -0.5690885186195374, 0.5206229090690613, -1.5987190008163452, 0.884765625, 0.288818359375, -0.38818359375
535, 2225535944, -7.376781463623047, -1.4441993236541748, 6.127181053161621, -0.27761608362197876, 0.30579644441604614, -1.4395747184753418, 0.8818359375, 0.288330078125, -0.38525390625
536, 2225552611, -7.369913101196289, -1.4751955270767212, 6.13377571105957, -0.3674269914627075, 0.17204689979553223, -1.5299745798110962, 0.88232421875, 0.286376953125, -0.38818359375
537, 2225569278, -7.3756842613220215, -1.4962458610534668, 6.13630485534668, -0.2406056821346283, -0.17511403560638428, -1.4402790069580078, 0.88037109375, 0.289306640625, -0.38671875
538, 2225585945, -7.358239650726318, -1.500099539756775, 6.157442092895508, 0.07932893931865692, -0.8001919984817505, -1.0121755599975586, 0.880859375, 0.286865234375, -0.38525390625
539, 2225602612, -7.3750224113464355, -1.4785902500152588, 6.133513927459717, 0.21829064190387726, -1.152123212814331, -0.6561589241027832, 0.88427734375, 0.286376953125, -0.3857421875
540, 2225619279, -7.360478401184082, -1.4557430744171143, 6.147540092468262, 0.19667352735996246, -1.1466037034988403, -0.6570426225662231, 0.8818359375, 0.288330078125, -0.388671875
541, 2225635946, -7.363478183746338, -1.4586950540542603, 6.149599552154541, 0.3189101219177246, -1.1987895965576172, -0.6644061803817749, 0.8837890625, 0.286865234375, -0.38720703125
542, 2225652613, -7.372964382171631, -1.4715286493301392, 6.143193244934082, 0.34230732917785645, -1.3863770961761475, -0.5949445962905884, 0.8828125, 0.287841796875, -0.38720703125
543, 2225669280, -7.362236976623535, -1.476478099822998, 6.1460957527160645, 0.42320501804351807, -1.7901611328125, -0.612963080406189, 0.88134765625, 0.286376953125, -0.388671875
544, 2225685947, -7.377411365509033, -1.4633725881576538, 6.144160747528076, 0.41431742906570435, -1.8044017553329468, -0.5217434763908386, 0.88427734375, 0.287353515625, -0.38916015625
545, 2225702614, -7.370633602142334, -1.4614753723144531, 6.130537509918213, 0.29438596963882446, -1.8029801845550537, -0.5660790205001831, 0.885498046875, 0.285888671875, -0.388671875
546, 2225719281, -7.355327606201172, -1.4418445825576782, 6.1382036209106445, 0.2606540620326996, -1.6166480779647827, -0.6894939541816711, 0.8837890625, 0.285888671875, -0.39013671875
547, 2225735948, -7.350633144378662, -1.4233940839767456, 6.140777111053467, 0.22420714795589447, -1.7768425941467285, -0.9716817140579224, 0.8818359375, 0.286376953125, -0.38818359375
548, 2225752615, -7.345763206481934, -1.4585319757461548, 6.127877712249756, 0.08568087965250015, -1.7045252323150635, -1.2368756532669067, 0.880859375, 0.286376953125, -0.3896484375
549, 2225769282, -7.35587215423584, -1.44608736038208, 6.170653820037842, -0.029685117304325104, -1.5364930629730225, -1.344385027885437, 0.88330078125, 0.288818359375, -0.389892578125
550, 2225785949, -7.343921184539795, -1.4876735210418701, 6.1455512046813965, 0.0747058317065239, -1.5906381607055664, -1.1868027448654175, 0.88134765625, 0.286865234375, -0.390380859375
551, 2225802616, -7.338963985443115, -1.473467230796814, 6.162424564361572, 0.09213528782129288, -1.4668776988983154, -0.9414204359054565, 0.8837890625, 0.286865234375, -0.391357421875
552, 2225819283, -7.357359886169434, -1.455079197883606, 6.15095853805542, 0.15884356200695038, -1.4466180801391602, -0.8377017974853516, 0.88427734375, 0.284912109375, -0.391845703125
553, 2225835950, -7.3397040367126465, -1.431533694267273, 6.170478820800781, 0.1870175302028656, -1.601638913154602, -0.7562918663024902, 0.8828125, 0.285888671875, -0.3896484375
554, 2225852617, -7.342775344848633, -1.4480605125427246, 6.151174545288086, 0.29621726274490356, -1.5488768815994263, -0.7878082990646362, 0.88134765625, 0.28466796875, -0.38916015625
555, 2225869284, -7.3487091064453125, -1.4419496059417725, 6.170836925506592, 0.18489165604114532, -1.3491873741149902, -0.7741310000419617, 0.87939453125, 0.2841796875, -0.390380859375
556, 2225885951, -7.331396579742432, -1.4412111043930054, 6.173776149749756, 0.04749235510826111, -1.2458018064498901, -0.9279353022575378, 0.8828125, 0.285400390625, -0.392822265625
557, 2225902618, -7.3335089683532715, -1.4252139329910278, 6.200257778167725, 0.07249034196138382, -1.1104000806808472, -0.9867804050445557, 0.88427734375, 0.286865234375, -0.392822265625
558, 2225919285, -7.3492631912231445, -1.418716311454773, 6.173352241516113, -0.030709628015756607, -1.0669994354248047, -1.1888391971588135, 0.8837890625, 0.285888671875, -0.393310546875
559, 2225935952, -7.34691047668457, -1.4541728496551514, 6.151859760284424, -0.046294961124658585, -1.1218875646591187, -1.3308230638504028, 0.880859375, 0.286376953125, -0.390869140625
560, 2225952619, -7.350066661834717, -1.4520676136016846, 6.1703691482543945, -0.025318149477243423, -1.1888773441314697, -1.3994392156600952, 0.879150390625, 0.287353515625, -0.391845703125
561, 2225969286, -7.335831165313721, -1.4302316904067993, 6.1594414710998535, -0.17647147178649902, -1.252255916595459, -1.4338628053665161, 0.8818359375, 0.2841796875, -0.390869140625
562, 2225985953, -7.3309431076049805, -1.4407228231430054, 6.180257797241211, -0.22799140214920044, -1.1499972343444824, -1.5500292778015137, 0.8818359375, 0.285400390625, -0.394287109375
563, 2226002620, -7.321164608001709, -1.459780216217041, 6.1932806968688965, -0.22628819942474365, -1.0822774171829224, -1.6158156394958496, 0.8837890625, 0.2841796875, -0.393310546875
564, 2226019287, -7.3243088722229, -1.4525601863861084, 6.158409595489502, -0.2013414353132248, -0.9847442507743835, -1.5171939134597778, 0.8837890625, 0.285888671875, -0.392333984375
565, 2226035954, -7.327017307281494, -1.44658625125885, 6.184416770935059, -0.20628465712070465, -1.097709059715271, -1.441649079322815, 0.88330078125, 0.286376953125, -0.392333984375
566, 2226052621, -7.319961071014404, -1.4493992328643799, 6.179113864898682, -0.3038434684276581, -1.0148648023605347, -1.3951109647750854, 0.880859375, 0.285888671875, -0.391845703125
567, 2226069288, -7.3325700759887695, -1.4323878288269043, 6.196714401245117, -0.41723087430000305, -0.8738796710968018, -1.5654609203338623, 0.880859375, 0.288330078125, -0.390380859375
568, 2226085955, -7.337878227233887, -1.4369916915893555, 6.172163486480713, -0.4385790526866913, -0.7680352330207825, -1.6859815120697021, 0.88134765625, 0.28369140625, -0.392333984375
569, 2226102622, -7.323643684387207, -1.4762691259384155, 6.1645097732543945, -0.3513934016227722, -0.879168689250946, -1.6567957401275635, 0.88037109375, 0.285400390625, -0.393310546875
570, 2226119289, -7.317238807678223, -1.4673871994018555, 6.156733989715576, -0.2868237793445587, -1.0336517095565796, -1.5071662664413452, 0.88232421875, 0.284912109375, -0.393310546875
571, 2226135956, -7.325336456298828, -1.4347234964370728, 6.191867351531982, -0.34511831402778625, -1.0181560516357422, -1.3998876810073853, 0.880859375, 0.285888671875, -0.392822265625
572, 2226152623, -7.327147006988525, -1.4458740949630737, 6.179689884185791, -0.36083173751831055, -0.7904079556465149, -1.4751251935958862, 0.878662109375, 0.286376953125, -0.392333984375
573, 2226169290, -7.328781604766846, -1.4676100015640259, 6.169790744781494, -0.33454030752182007, -0.7810209393501282, -1.4985480308532715, 0.8818359375, 0.287841796875, -0.391845703125
574, 2226185957, -7.345550537109375, -1.4725722074508667, 6.179720878601074, -0.18853509426116943, -0.9455696940422058, -1.3720850944519043, 0.88134765625, 0.286865234375, -0.390869140625
575, 2226202624, -7.311834812164307, -1.4586379528045654, 6.171605110168457, -0.1517936885356903, -1.0521442890167236, -1.3153403997421265, 0.880126953125, 0.285400390625, -0.394775390625
576, 2226219291, -7.339010238647461, -1.4499101638793945, 6.187207221984863, -0.1606428623199463, -1.032793641090393, -1.305594563484192, 0.88330078125, 0.285888671875, -0.393310546875
577, 2226235958, -7.328227996826172, -1.444069504737854, 6.188199996948242, -0.22722305357456207, -1.1181352138519287, -1.294785976409912, 0.88037109375, 0.286865234375, -0.392822265625
578, 2226252625, -7.333538055419922, -1.4605748653411865, 6.2129435539245605, -0.2460356056690216, -0.9964621663093567, -1.3787060976028442, 0.880859375, 0.286865234375, -0.392822265625
579, 2226269292, -7.319729328155518, -1.4435962438583374, 6.19740629196167, -0.25360414385795593, -0.9109926223754883, -1.404574990272522, 0.880615234375, 0.288330078125, -0.391845703125
580, 2226285959, -7.326585292816162, -1.4402004480361938, 6.191183090209961, -0.2442939132452011, -0.9511275291442871, -1.4648029804229736, 0.88037109375, 0.286865234375, -0.393310546875
581, 2226302626, -7.330580711364746, -1.4522724151611328, 6.168921947479248, -0.3124108910560608, -1.0133663415908813, -1.471167802810669, 0.8818359375, 0.285400390625, -0.394287109375
582, 2226319293, -7.327027797698975, -1.4443731307983398, 6.190117359161377, -0.2954809367656708, -0.9852822422981262, -1.4932845830917358, 0.8828125, 0.286376953125, -0.393310546875
583, 2226335960, -7.311537265777588, -1.463349461555481, 6.201889991760254, -0.2537706196308136, -1.1373318433761597, -1.4380249977111816, 0.880615234375, 0.288330078125, -0.392822265625
584, 2226352627, -7.325949192047119, -1.4762440919876099, 6.1924638748168945, -0.302716463804245, -1.1108099222183228, -1.4899930953979492, 0.880859375, 0.287841796875, -0.393310546875
585, 2226369294, -7.315672397613525, -1.460833191871643, 6.1815643310546875, -0.3358849287033081, -1.2861543893814087, -1.561926245689392, 0.879638671875, 0.288330078125, -0.391357421875
586, 2226385961, -7.308917999267578, -1.4635058641433716, 6.216132640838623, -0.2881428599357605, -1.0969918966293335, -1.5282584428787231, 0.880859375, 0.285888671875, -0.393798828125
587, 2226402628, -7.303225040435791, -1.4806959629058838, 6.207557201385498, -0.3262290060520172, -0.9157438278198242, -1.4187899827957153, 0.881103515625, 0.289306640625, -0.393798828125
588, 2226419295, -7.310882091522217, -1.4584182500839233, 6.177881240844727, -0.4605419933795929, -0.6539947390556335, -1.4868685007095337, 0.8818359375, 0.287353515625, -0.393310546875
589, 2226435962, -7.310612678527832, -1.4845983982086182, 6.2029242515563965, -0.4336870610713959, -0.5496612787246704, -1.4451582431793213, 0.880126953125, 0.287353515625, -0.394287109375
590, 2226452629, -7.315829753875732, -1.477866530418396, 6.205367565155029, -0.3798619508743286, -0.6008483171463013, -1.2669193744659424, 0.879638671875, 0.289306640625, -0.39501953125
591, 2226469296, -7.310864448547363, -1.4717105627059937, 6.172786235809326, -0.33561596274375916, -0.7017110586166382, -1.2848482131958008, 0.881103515625, 0.288330078125, -0.392822265625
592, 2226485963, -7.3288679122924805, -1.4639357328414917, 6.205412864685059, -0.3619843125343323, -0.7799195647239685, -1.2402565479278564, 0.8818359375, 0.287841796875, -0.392822265625
593, 2226502630, -7.3360748291015625, -1.4652127027511597, 6.167732238769531, -0.29156216979026794, -0.6865740418434143, -1.2384765148162842, 0.8798828125, 0.28369140625, -0.392333984375
594, 2226519297, -7.314400672912598, -1.461455225944519, 6.18291711807251, -0.2678576409816742, -0.678864598274231, -1.1833324432373047, 0.880126953125, 0.287841796875, -0.392822265625
595, 2226535964, -7.3188629150390625, -1.4551150798797607, 6.186351776123047, -0.19689759612083435, -0.6551856398582458, -1.1842799186706543, 0.880615234375, 0.288330078125, -0.394775390625
596, 2226552631, -7.3356781005859375, -1.4710841178894043, 6.191414833068848, -0.18914979696273804, -0.5993115901947021, -1.2187291383743286, 0.878173828125, 0.289306640625, -0.39453125
597, 2226569298, -7.3283185958862305, -1.4588385820388794, 6.204531669616699, -0.24095146358013153, -0.5166977643966675, -1.1503816843032837, 0.880859375, 0.287353515625, -0.393310546875
598, 2226585965, -7.3265790939331055, -1.4497311115264893, 6.184833526611328, -0.24600999057292938, -0.6035376787185669, -1.1599351167678833, 0.880126953125, 0.286865234375, -0.394775390625
599, 2226602632, -7.3207106590271, -1.4518094062805176, 6.204197883605957, -0.15039776265621185, -0.3988153636455536, -1.1125131845474243, 0.88330078125, 0.284912109375, -0.392822265625
600, 2226619299, -7.334311008453369, -1.462494134902954, 6.202182292938232, -0.15877310931682587, -0.5293248295783997, -1.1281497478485107, 0.88232421875, 0.287353515625, -0.394775390625
601, 2226635966, -7.334707736968994, -1.4734774827957153, 6.202988147735596, -0.1243368461728096, -0.6484110951423645, -1.1603962182998657, 0.880615234375, 0.288818359375, -0.3955078125
602, 2226652633, -7.31808614730835, -1.472434163093567, 6.191208839416504, -0.23065514862537384, -0.7536024451255798, -1.1699368953704834, 0.877197265625, 0.287841796875, -0.392333984375
603, 2226669300, -7.323258876800537, -1.4500932693481445, 6.193454742431641, -0.1833997368812561, -0.8720612525939941, -1.2143237590789795, 0.8818359375, 0.286865234375, -0.392333984375
604, 2226685967, -7.322719573974609, -1.4649559259414673, 6.218324661254883, -0.23091129958629608, -0.8041107654571533, -1.1385486125946045, 0.880615234375, 0.287353515625, -0.393310546875
605, 2226702634, -7.3244500160217285, -1.4721670150756836, 6.180384635925293, -0.2190910428762436, -0.75364089012146, -1.1740220785140991, 0.88330078125, 0.288818359375, -0.395263671875
606, 2226719301, -7.316493988037109, -1.4607739448547363, 6.202509880065918, -0.13976849615573883, -0.8378041982650757, -1.223172903060913, 0.88330078125, 0.287841796875, -0.393798828125
607, 2226735968, -7.3255720138549805, -1.4672573804855347, 6.192946910858154, -0.1154620423913002, -0.7882179617881775, -1.2042067050933838, 0.880615234375, 0.288818359375, -0.394775390625
608, 2226752635, -7.322307586669922, -1.4593720436096191, 6.175384044647217, -0.19867770373821259, -0.7737340331077576, -1.2257213592529297, 0.880615234375, 0.287353515625, -0.393798828125
609, 2226769302, -7.328601837158203, -1.4640852212905884, 6.19409704208374, -0.29535284638404846, -0.8035216331481934, -1.3093339204788208, 0.879150390625, 0.288818359375, -0.393798828125
610, 2226785969, -7.3123040199279785, -1.4626532793045044, 6.205216407775879, -0.1575949341058731, -0.8397507667541504, -1.2448410987854004, 0.88134765625, 0.287841796875, -0.393310546875
611, 2226802636, -7.324697494506836, -1.4609482288360596, 6.195488929748535, -0.13655412197113037, -0.8183770775794983, -1.1839470863342285, 0.88330078125, 0.287841796875, -0.393798828125
612, 2226819303, -7.313413143157959, -1.4608017206192017, 6.178187847137451, -0.1634986698627472, -0.8802316188812256, -1.1960490942001343, 0.88232421875, 0.287353515625, -0.395263671875
613, 2226835970, -7.312946796417236, -1.4567513465881348, 6.21058464050293, -0.17216856777668, -0.8888503313064575, -1.2557010650634766, 0.879638671875, 0.287353515625, -0.393798828125
614, 2226852637, -7.329869747161865, -1.4609049558639526, 6.179104804992676, -0.16947922110557556, -0.908111035823822, -1.3115239143371582, 0.880859375, 0.287353515625, -0.392822265625
615, 2226869304, -7.313302516937256, -1.452679991722107, 6.2078680992126465, -0.12029004842042923, -0.8411210179328918, -1.2450205087661743, 0.88232421875, 0.287841796875, -0.393798828125
616, 2226885971, -7.3083624839782715, -1.484150767326355, 6.1974568367004395, -0.16150088608264923, -0.9251307845115662, -1.2450846433639526, 0.881103515625, 0.288330078125, -0.394775390625
617, 2226902638, -7.311485290527344, -1.463302493095398, 6.183241844177246, -0.27246788144111633, -0.8455392122268677, -1.197227120399475, 0.88232421875, 0.288818359375, -0.394287109375
618, 2226919305, -7.324141502380371, -1.474254846572876, 6.178831100463867, -0.20090600848197937, -0.8351532816886902, -1.2405767440795898, 0.880615234375, 0.29052734375, -0.39453125
619, 2226935972, -7.325684547424316, -1.4729429483413696, 6.184545516967773, -0.19423392415046692, -0.7872703671455383, -1.200147032737732, 0.880859375, 0.285888671875, -0.394287109375
620, 2226952639, -7.308202266693115, -1.4699125289916992, 6.195545673370361, -0.25975120067596436, -0.7914451956748962, -1.2291277647018433, 0.880126953125, 0.288818359375, -0.394287109375
621, 2226969306, -7.312759876251221, -1.4697637557983398, 6.204590320587158, -0.1411772072315216, -0.8712288737297058, -1.2459169626235962, 0.879638671875, 0.288330078125, -0.39501953125
622, 2226985973, -7.312530994415283, -1.453812837600708, 6.205059051513672, -0.17273204028606415, -0.8443610072135925, -1.1796952486038208, 0.880615234375, 0.287841796875, -0.394287109375
623, 2227002640, -7.317468166351318, -1.4413889646530151, 6.217745780944824, -0.19651345908641815, -0.7433061599731445, -1.2344937324523926, 0.88232421875, 0.288818359375, -0.394775390625
624, 2227019307, -7.317290782928467, -1.4690228700637817, 6.182577610015869, -0.2883221507072449, -0.852198600769043, -1.192002296447754, 0.880126953125, 0.286376953125, -0.393798828125
625, 2227035974, -7.315892696380615, -1.4698008298873901, 6.185722827911377, -0.19273556768894196, -0.7531286478042603, -1.2093805074691772, 0.881103515625, 0.287841796875, -0.394287109375
626, 2227052641, -7.325145244598389, -1.4489006996154785, 6.1999688148498535, -0.2993996739387512, -0.721817135810852, -1.238092303276062, 0.881103515625, 0.289794921875, -0.394287109375
627, 2227069308, -7.31281042098999, -1.4611952304840088, 6.193944454193115, -0.3642382025718689, -0.7504392862319946, -1.296514868736267, 0.88232421875, 0.288818359375, -0.394287109375
628, 2227085975, -7.308359622955322, -1.463953971862793, 6.196065425872803, -0.39163097739219666, -0.5463829040527344, -1.3045188188552856, 0.880615234375, 0.288330078125, -0.393798828125
629, 2227102642, -7.3276166915893555, -1.4551512002944946, 6.209527492523193, -0.44007739424705505, -0.46028581261634827, -1.4403685331344604, 0.881103515625, 0.287841796875, -0.394775390625
630, 2227119309, -7.314475059509277, -1.4657477140426636, 6.196802616119385, -0.38940268754959106, -0.5258543491363525, -1.3951878547668457, 0.8837890625, 0.289306640625, -0.3955078125
631, 2227135976, -7.3074445724487305, -1.475558876991272, 6.16570520401001, -0.25364255905151367, -0.4823639690876007, -1.3030588626861572, 0.879638671875, 0.288818359375, -0.39453125
632, 2227152643, -7.308696746826172, -1.4671481847763062, 6.167072296142578, -0.29869529604911804, -0.4959002733230591, -1.1999166011810303, 0.879638671875, 0.287841796875, -0.394775390625
633, 2227169310, -7.316231727600098, -1.4788557291030884, 6.184014797210693, -0.3708590865135193, -0.5356128215789795, -1.2823255062103271, 0.88134765625, 0.287841796875, -0.393798828125
634, 2227185977, -7.316303253173828, -1.465246558189392, 6.209906578063965, -0.3033568263053894, -0.5229344964027405, -1.2351341247558594, 0.880615234375, 0.287353515625, -0.394775390625
635, 2227202644, -7.320769309997559, -1.4709116220474243, 6.175787448883057, -0.17835405468940735, -0.5992475748062134, -1.231343388557434, 0.8818359375, 0.287353515625, -0.393310546875
636, 2227219311, -7.315360069274902, -1.466982364654541, 6.1927809715271, -0.22222860157489777, -0.5809857249259949, -1.1547870635986328, 0.88330078125, 0.288818359375, -0.393798828125
637, 2227235978, -7.327829360961914, -1.4734795093536377, 6.175703525543213, -0.26259419322013855, -0.624783456325531, -1.2069728374481201, 0.880615234375, 0.287841796875, -0.393310546875
638, 2227252645, -7.322649002075195, -1.478454351425171, 6.193423748016357, -0.2771294414997101, -0.6880596280097961, -1.1573354005813599, 0.88232421875, 0.288330078125, -0.392822265625
639, 2227269312, -7.318856239318848, -1.458574891090393, 6.180077075958252, -0.18234960734844208, -0.6855366826057434, -1.165326714515686, 0.878662109375, 0.288330078125, -0.394287109375
640, 2227285979, -7.316457271575928, -1.4653987884521484, 6.194090843200684, -0.22253592312335968, -0.7511052489280701, -1.2079845666885376, 0.879150390625, 0.288330078125, -0.394287109375
641, 2227302646, -7.32166862487793, -1.472198486328125, 6.162770748138428, -0.25587087869644165, -0.7104963064193726, -1.306286334991455, 0.8818359375, 0.288330078125, -0.393310546875
642, 2227319313, -7.312755107879639, -1.4561877250671387, 6.177456378936768, -0.17344920337200165, -0.6642525792121887, -1.216039776802063, 0.8828125, 0.287841796875, -0.394775390625
643, 2227335980, -7.325954914093018, -1.4609906673431396, 6.183318614959717, -0.2636827528476715, -0.7066928148269653, -1.2236723899841309, 0.8828125, 0.28955078125, -0.394775390625
644, 2227352647, -7.315478324890137, -1.475106120109558, 6.20095682144165, -0.29910513758659363, -0.7570602297782898, -1.169309377670288, 0.880126953125, 0.288818359375, -0.392822265625
645, 2227369314, -7.312504768371582, -1.4770621061325073, 6.170558452606201, -0.25246432423591614, -0.727925717830658, -1.1812448501586914, 0.880615234375, 0.288330078125, -0.392333984375
646, 2227385981, -7.3261566162109375, -1.465108871459961, 6.202536106109619, -0.2621588110923767, -0.7005841732025146, -1.2603623867034912, 0.8818359375, 0.289306640625, -0.392822265625
647, 2227402648, -7.309777736663818, -1.49167799949646, 6.195803642272949, -0.4194592237472534, -0.7090107798576355, -1.2209831476211548, 0.8818359375, 0.289306640625, -0.392822265625
648, 2227419315, -7.3104939460754395, -1.453169822692871, 6.217750549316406, -0.3850485384464264, -0.6248089671134949, -1.3146229982376099, 0.880615234375, 0.289306640625, -0.393798828125
649, 2227435982, -7.309107780456543, -1.4736496210098267, 6.208431243896484, -0.3912595808506012, -0.5816643834114075, -1.3143925666809082, 0.879638671875, 0.289794921875, -0.393798828125
