sep=,
DeviceTag:,A,,,,,,,,,,,,,,,,,
FirmwareVersion:,2.2.1,,,,,,,,,,,,,,,,,
AppVersion:,2022.0.1,,,,,,,,,,,,,,,,,
SyncStatus:,Synced,,,,,,,,,,,,,,,,,
OutputRate:,60Hz,,,,,,,,,,,,,,,,,
FilterProfile:,General,,,,,,,,,,,,,,,,,
Measurement Mode:,Inertial Mode - Rate quantities (with mag),,,,,,,,,,,,,,,,,
StartTime:,2022-08-16 15:35:13.142 +0300,,,,,,,,,,,,,,,,,
© Xsens Technologies B. V. 2005-2022,,,,,,,,,,,,,,,,,,,

PacketCounter,SampleTimeFine,Acc_X,Acc_Y,Acc_Z,Gyr_X,Gyr_Y,Gyr_Z,Mag_X,Mag_Y,Mag_Z
1, 1536201454, -5.209630966186523, 1.6561659574508667, 8.226448059082031, -2.400319814682007, -1.8206276893615723, -2.0213286876678467, 0.2802734375, -0.163818359375, -0.92138671875
2, 1536218121, -5.198758602142334, 1.6589008569717407, 8.234928131103516, -2.333189010620117, -1.810228943824768, -2.0412042140960693, 0.2802734375, -0.162353515625, -0.922607421875
3, 1536234788, -5.205719947814941, 1.6686749458312988, 8.225586891174316, -2.328322410583496, -1.7664694786071777, -1.9896584749221802, 0.28125, -0.162841796875, -0.924072265625
4, 1536251455, -5.190351486206055, 1.6596665382385254, 8.237253189086914, -2.3520398139953613, -1.707496166229248, -2.0015299320220947, 0.28173828125, -0.163818359375, -0.919921875
5, 1536268122, -5.192147254943848, 1.6539263725280762, 8.227787971496582, -2.295858144760132, -1.5840173959732056, -2.041024684906006, 0.27880859375, -0.16064453125, -0.923583984375
6, 1536284789, -5.200294017791748, 1.6574304103851318, 8.235625267028809, -2.233785629272461, -1.5439462661743164, -2.123241424560547, 0.27978515625, -0.1611328125, -0.924072265625
7, 1536301456, -5.197449684143066, 1.664371132850647, 8.239563941955566, -2.2257180213928223, -1.520293116569519, -2.0210213661193848, 0.2802734375, -0.16064453125, -0.922119140625
8, 1536318123, -5.196505069732666, 1.6668670177459717, 8.248510360717773, -2.1702792644500732, -1.4099534749984741, -1.934527039527893, 0.279296875, -0.162353515625, -0.922607421875
9, 1536334790, -5.2086262702941895, 1.6712350845336914, 8.231182098388672, -2.170868396759033, -1.5169248580932617, -1.9604600667953491, 0.28173828125, -0.162841796875, -0.923095703125
10, 1536351457, -5.20869779586792, 1.689150094985962, 8.249449729919434, -2.2069950103759766, -1.4934124946594238, -2.0230445861816406, 0.28076171875, -0.163330078125, -0.922607421875
11, 1536368124, -5.202033042907715, 1.6681263446807861, 8.234816551208496, -2.1901161670684814, -1.5132111310958862, -2.1549370288848877, 0.28125, -0.164794921875, -0.923583984375
12, 1536384791, -5.216491222381592, 1.6635730266571045, 8.25156021118164, -2.2199549674987793, -1.3621857166290283, -2.0345706939697266, 0.27978515625, -0.162841796875, -0.924072265625
13, 1536401458, -5.2244720458984375, 1.659468650817871, 8.238012313842773, -2.2237844467163086, -1.4851267337799072, -1.857535481452942, 0.28076171875, -0.162841796875, -0.9189453125
14, 1536418125, -5.224049091339111, 1.6776195764541626, 8.225759506225586, -2.1412854194641113, -1.6400705575942993, -1.9400722980499268, 0.28076171875, -0.164306640625, -0.923095703125
15, 1536434792, -5.220589637756348, 1.6787885427474976, 8.244534492492676, -2.2452988624572754, -1.8576889038085938, -2.022583484649658, 0.28125, -0.162353515625, -0.922607421875
16, 1536451459, -5.189853191375732, 1.6644644737243652, 8.209854125976562, -2.4711904525756836, -1.9246407747268677, -2.010110378265381, 0.28076171875, -0.163818359375, -0.922607421875
17, 1536468126, -5.193554878234863, 1.6650190353393555, 8.237702369689941, -2.422436237335205, -1.8545899391174316, -2.013606548309326, 0.2802734375, -0.163818359375, -0.921875
18, 1536484793, -5.196394443511963, 1.6824557781219482, 8.230706214904785, -2.624469518661499, -1.9122698307037354, -1.9671580791473389, 0.28076171875, -0.164306640625, -0.922607421875
19, 1536501460, -5.206549644470215, 1.671554446220398, 8.22786808013916, -2.695967674255371, -2.0920839309692383, -2.204447031021118, 0.27978515625, -0.164306640625, -0.922119140625
20, 1536518127, -5.185599327087402, 1.670616865158081, 8.214431762695312, -2.817230224609375, -2.108398914337158, -2.3338160514831543, 0.279296875, -0.163330078125, -0.923095703125
21, 1536534794, -5.187453746795654, 1.6533689498901367, 8.248852729797363, -2.843419313430786, -1.9674522876739502, -2.3374531269073486, 0.279296875, -0.161865234375, -0.922607421875
22, 1536551461, -5.200608253479004, 1.6430103778839111, 8.245497703552246, -2.5730135440826416, -1.8715072870254517, -2.2465672492980957, 0.2783203125, -0.16162109375, -0.924560546875
23, 1536568128, -5.169435024261475, 1.6561146974563599, 8.257822036743164, -2.3604023456573486, -1.6209381818771362, -2.132270336151123, 0.277587890625, -0.16162109375, -0.923583984375
24, 1536584795, -5.213486671447754, 1.645156741142273, 8.24488353729248, -2.2673768997192383, -1.545060396194458, -2.0772411823272705, 0.279296875, -0.16162109375, -0.924560546875
25, 1536601462, -5.224308013916016, 1.6380375623703003, 8.225530624389648, -2.0452511310577393, -1.7789812088012695, -1.7868701219558716, 0.27880859375, -0.163818359375, -0.921630859375
26, 1536618129, -5.19705057144165, 1.6649103164672852, 8.235010147094727, -1.9194923639297485, -1.8980289697647095, -1.734158992767334, 0.27978515625, -0.161865234375, -0.923095703125
27, 1536634796, -5.201982498168945, 1.6648324728012085, 8.234633445739746, -1.8568698167800903, -1.8909728527069092, -1.6721892356872559, 0.27880859375, -0.163330078125, -0.92138671875
28, 1536651463, -5.178064346313477, 1.6759121417999268, 8.24886703491211, -1.9186216592788696, -1.8321278095245361, -1.6323999166488647, 0.27978515625, -0.162841796875, -0.926025390625
29, 1536668130, -5.182409286499023, 1.6792625188827515, 8.243915557861328, -1.9528400897979736, -1.7573384046554565, -1.856920599937439, 0.27978515625, -0.166259765625, -0.921875
30, 1536684797, -5.171089172363281, 1.6976292133331299, 8.23211669921875, -2.108808755874634, -1.7721425294876099, -1.9758659601211548, 0.2783203125, -0.164306640625, -0.924560546875
31, 1536701464, -5.172277450561523, 1.6662993431091309, 8.264548301696777, -2.2341060638427734, -1.75221586227417, -2.068058967590332, 0.279296875, -0.164794921875, -0.923583984375
32, 1536718131, -5.190473556518555, 1.6712526082992554, 8.237558364868164, -2.299905300140381, -1.8626325130462646, -2.1414268016815186, 0.27978515625, -0.163330078125, -0.924072265625
33, 1536734798, -5.192729949951172, 1.689645767211914, 8.240621566772461, -2.3697893619537354, -1.8475593328475952, -2.028333902359009, 0.27783203125, -0.163818359375, -0.921630859375
34, 1536751465, -5.182615756988525, 1.6744800806045532, 8.245758056640625, -2.285651445388794, -1.9024858474731445, -2.097616195678711, 0.2783203125, -0.165283203125, -0.923583984375
35, 1536768132, -5.188819408416748, 1.6788088083267212, 8.241549491882324, -2.377140522003174, -1.8967102766036987, -2.03194522857666, 0.27978515625, -0.164306640625, -0.923095703125
36, 1536784799, -5.189679145812988, 1.6884225606918335, 8.2605562210083, -2.4077348709106445, -1.9208756685256958, -2.1461780071258545, 0.277587890625, -0.162841796875, -0.923583984375
37, 1536801466, -5.180849552154541, 1.647182583808899, 8.251498222351074, -2.445500373840332, -1.8210885524749756, -2.0891382694244385, 0.2783203125, -0.164306640625, -0.923095703125
38, 1536818133, -5.188314914703369, 1.657072901725769, 8.237343788146973, -2.239074945449829, -1.7056392431259155, -1.9732918739318848, 0.279296875, -0.164306640625, -0.925048828125
39, 1536834800, -5.205529689788818, 1.6665546894073486, 8.23694896697998, -2.1091673374176025, -1.6921159029006958, -1.820281744003296, 0.2783203125, -0.163330078125, -0.922119140625
40, 1536851467, -5.199432373046875, 1.6878256797790527, 8.228739738464355, -2.008906364440918, -1.7636902332305908, -1.8167468309402466, 0.27880859375, -0.165771484375, -0.923583984375
41, 1536868134, -5.17938232421875, 1.6697946786880493, 8.233173370361328, -1.8784997463226318, -1.7317003011703491, -1.7667515277862549, 0.27978515625, -0.164306640625, -0.924560546875
42, 1536884801, -5.182430744171143, 1.684248685836792, 8.258934020996094, -1.8347145318984985, -1.5041059255599976, -1.7642028331756592, 0.2783203125, -0.165283203125, -0.924072265625
43, 1536901468, -5.208741188049316, 1.6569839715957642, 8.222314834594727, -1.8046191930770874, -1.620246410369873, -1.6884657144546509, 0.2783203125, -0.164794921875, -0.922119140625
44, 1536918135, -5.190456867218018, 1.6844135522842407, 8.242159843444824, -1.7036926746368408, -1.5706474781036377, -1.5535125732421875, 0.2783203125, -0.165771484375, -0.9208984375
45, 1536934802, -5.174775123596191, 1.6939029693603516, 8.24416732788086, -1.6944466829299927, -1.387760043144226, -1.556138038635254, 0.2783203125, -0.164794921875, -0.921630859375
46, 1536951469, -5.1547651290893555, 1.7020378112792969, 8.227981567382812, -1.87627112865448, -1.270005702972412, -1.7532662153244019, 0.278076171875, -0.164794921875, -0.925537109375
47, 1536968136, -5.184123516082764, 1.70512855052948, 8.22887897491455, -2.207033634185791, -1.2478506565093994, -1.9191977977752686, 0.2802734375, -0.166259765625, -0.925048828125
48, 1536984803, -5.198122024536133, 1.7026230096817017, 8.209761619567871, -2.171957015991211, -1.419711947441101, -1.9403541088104248, 0.2783203125, -0.165771484375, -0.922119140625
49, 1537001470, -5.203004837036133, 1.6881741285324097, 8.218652725219727, -2.2141666412353516, -1.6023046970367432, -1.8939950466156006, 0.2802734375, -0.166259765625, -0.922607421875
50, 1537018137, -5.1745381355285645, 1.6909635066986084, 8.25373363494873, -2.394339084625244, -1.7704521417617798, -1.8882704973220825, 0.275634765625, -0.165771484375, -0.92041015625
51, 1537034804, -5.167504787445068, 1.6985667943954468, 8.235737800598145, -2.3520398139953613, -1.5546269416809082, -1.9541723728179932, 0.277587890625, -0.16259765625, -0.923095703125
52, 1537051471, -5.1534810066223145, 1.708816647529602, 8.231119155883789, -2.506625175476074, -1.4541867971420288, -2.083721399307251, 0.27978515625, -0.165771484375, -0.922607421875
53, 1537068138, -5.19619083404541, 1.7017011642456055, 8.244841575622559, -2.566559314727783, -1.4029101133346558, -2.0813136100769043, 0.279296875, -0.165283203125, -0.9208984375
54, 1537084805, -5.20245361328125, 1.6929755210876465, 8.227384567260742, -2.6484553813934326, -1.6035469770431519, -2.126199722290039, 0.27783203125, -0.164306640625, -0.92138671875
55, 1537101472, -5.183635234832764, 1.7024011611938477, 8.222648620605469, -2.756503105163574, -1.724618673324585, -2.2351181507110596, 0.277587890625, -0.164794921875, -0.922607421875
56, 1537118139, -5.176187038421631, 1.7030624151229858, 8.244292259216309, -2.900587558746338, -1.684086561203003, -2.2400100231170654, 0.28076171875, -0.162353515625, -0.92138671875
57, 1537134806, -5.167394638061523, 1.6961809396743774, 8.249987602233887, -2.9254188537597656, -1.593827247619629, -2.3437161445617676, 0.27978515625, -0.163330078125, -0.923095703125
58, 1537151473, -5.170125961303711, 1.6854618787765503, 8.229116439819336, -2.93036150932312, -1.4474502801895142, -2.4941771030426025, 0.27978515625, -0.163330078125, -0.922119140625
59, 1537168140, -5.198052406311035, 1.683282494544983, 8.23289966583252, -2.942809581756592, -1.5692002773284912, -2.506484270095825, 0.27978515625, -0.162353515625, -0.923583984375
60, 1537184807, -5.196986675262451, 1.6945009231567383, 8.242548942565918, -2.9897704124450684, -1.6856998205184937, -2.453350782394409, 0.279296875, -0.164794921875, -0.921875
61, 1537201474, -5.215506076812744, 1.6603364944458008, 8.228517532348633, -3.0314550399780273, -1.9975217580795288, -2.484035015106201, 0.276611328125, -0.165283203125, -0.922607421875
62, 1537218141, -5.181795120239258, 1.6747345924377441, 8.24402141571045, -3.0016422271728516, -2.0358126163482666, -2.4809229373931885, 0.277587890625, -0.166259765625, -0.921630859375
63, 1537234808, -5.164622783660889, 1.6810526847839355, 8.246379852294922, -2.850155830383301, -1.8123418092727661, -2.5033600330352783, 0.277587890625, -0.164306640625, -0.922607421875
64, 1537251475, -5.192488193511963, 1.6360317468643188, 8.243900299072266, -2.8113656044006348, -1.6928460597991943, -2.41454815864563, 0.27978515625, -0.163818359375, -0.924072265625
65, 1537268142, -5.1847333908081055, 1.6860134601593018, 8.227025032043457, -2.676450490951538, -1.5011347532272339, -2.349773406982422, 0.27880859375, -0.162841796875, -0.922607421875
66, 1537284809, -5.218975067138672, 1.6863631010055542, 8.248641967773438, -2.600112199783325, -1.6718692779541016, -2.376269817352295, 0.279296875, -0.163818359375, -0.92041015625
67, 1537301476, -5.201523780822754, 1.6589419841766357, 8.229377746582031, -2.4985573291778564, -1.8115224838256836, -2.3605690002441406, 0.27880859375, -0.162841796875, -0.924072265625
68, 1537318143, -5.182167053222656, 1.6519197225570679, 8.238800048828125, -2.477477788925171, -1.811112403869629, -2.220364809036255, 0.27880859375, -0.162109375, -0.922607421875
69, 1537334810, -5.183419227600098, 1.6437033414840698, 8.243552207946777, -2.28452467918396, -1.6928714513778687, -2.2595653533935547, 0.27978515625, -0.161865234375, -0.923095703125
70, 1537351477, -5.192245960235596, 1.6667182445526123, 8.24807071685791, -2.248667001724243, -1.6145347356796265, -2.16591215133667, 0.279296875, -0.164306640625, -0.922119140625
71, 1537368144, -5.179781913757324, 1.6843140125274658, 8.233548164367676, -2.3126094341278076, -1.642388939857483, -2.3238277435302734, 0.27978515625, -0.163818359375, -0.923095703125
72, 1537384811, -5.18744421005249, 1.680856466293335, 8.241308212280273, -2.316054105758667, -1.6910659074783325, -2.3569319248199463, 0.279296875, -0.163330078125, -0.923095703125
73, 1537401478, -5.1946611404418945, 1.6534589529037476, 8.239516258239746, -2.2977793216705322, -1.7203794717788696, -2.404264211654663, 0.279296875, -0.163818359375, -0.921875
74, 1537418145, -5.189314365386963, 1.6650115251541138, 8.233379364013672, -2.2062010765075684, -1.606774091720581, -2.2984707355499268, 0.28125, -0.161865234375, -0.9287109375
75, 1537434812, -5.1882476806640625, 1.6752973794937134, 8.234500885009766, -2.1461265087127686, -1.4551087617874146, -2.342294216156006, 0.27978515625, -0.161865234375, -0.923583984375
76, 1537451479, -5.192634582519531, 1.6751718521118164, 8.226805686950684, -2.0455713272094727, -1.5262864828109741, -2.3540635108947754, 0.28125, -0.163818359375, -0.922607421875
77, 1537468146, -5.206879615783691, 1.6670544147491455, 8.23716926574707, -2.0415501594543457, -1.4869197607040405, -2.2566325664520264, 0.28173828125, -0.161376953125, -0.924560546875
78, 1537484813, -5.194047451019287, 1.6585575342178345, 8.241312980651855, -2.001197099685669, -1.5469045639038086, -2.1071057319641113, 0.2783203125, -0.163330078125, -0.924560546875
79, 1537501480, -5.1871185302734375, 1.6713167428970337, 8.252510070800781, -2.070530414581299, -1.6353963613510132, -2.052563190460205, 0.2802734375, -0.162353515625, -0.92138671875
80, 1537518147, -5.195380687713623, 1.692503809928894, 8.261780738830566, -2.155090808868408, -1.6678861379623413, -2.0680205821990967, 0.27880859375, -0.164306640625, -0.924072265625
81, 1537534814, -5.191748142242432, 1.6807527542114258, 8.245821952819824, -2.1776044368743896, -1.6415691375732422, -2.1996185779571533, 0.27880859375, -0.162841796875, -0.921630859375
82, 1537551481, -5.195061683654785, 1.674994945526123, 8.230758666992188, -2.173711061477661, -1.6568726301193237, -2.2363088130950928, 0.279296875, -0.162353515625, -0.924072265625
83, 1537568148, -5.191404342651367, 1.667979121208191, 8.232511520385742, -2.2528672218322754, -1.7761765718460083, -2.0647804737091064, 0.28173828125, -0.163330078125, -0.924560546875
84, 1537584815, -5.204146862030029, 1.6618558168411255, 8.247793197631836, -2.1238818168640137, -1.7980626821517944, -2.0460193157196045, 0.27880859375, -0.163330078125, -0.922119140625
85, 1537601482, -5.170531749725342, 1.697672724723816, 8.245797157287598, -2.153618335723877, -1.7122730016708374, -1.9631364345550537, 0.27880859375, -0.163818359375, -0.922119140625
86, 1537618149, -5.172637939453125, 1.6953927278518677, 8.25987434387207, -2.242532968521118, -1.5470199584960938, -2.1788723468780518, 0.277587890625, -0.164306640625, -0.923583984375
87, 1537634816, -5.194824695587158, 1.6613259315490723, 8.238720893859863, -2.286099672317505, -1.5573928356170654, -2.17261004447937, 0.2802734375, -0.165283203125, -0.92138671875
88, 1537651483, -5.2088470458984375, 1.6872708797454834, 8.237584114074707, -2.3569319248199463, -1.7157050371170044, -2.169485092163086, 0.27978515625, -0.164306640625, -0.923095703125
89, 1537668150, -5.187119007110596, 1.6865407228469849, 8.241510391235352, -2.218508005142212, -1.577038049697876, -2.114546298980713, 0.2783203125, -0.163818359375, -0.924560546875
90, 1537684817, -5.181178569793701, 1.6802384853363037, 8.243311882019043, -2.233760356903076, -1.4468101263046265, -2.2491538524627686, 0.279296875, -0.163818359375, -0.921875
91, 1537701484, -5.186539649963379, 1.6598743200302124, 8.2610445022583, -2.2013089656829834, -1.407827615737915, -2.3233792781829834, 0.276611328125, -0.163330078125, -0.923583984375
92, 1537718151, -5.197329521179199, 1.6813682317733765, 8.235024452209473, -2.2124764919281006, -1.4215048551559448, -2.235643148422241, 0.279296875, -0.164306640625, -0.922607421875
93, 1537734818, -5.209000587463379, 1.6847407817840576, 8.229247093200684, -2.249397039413452, -1.4409832954406738, -2.159778118133545, 0.278076171875, -0.163330078125, -0.923583984375
94, 1537751485, -5.212787628173828, 1.6772702932357788, 8.21232795715332, -2.2241814136505127, -1.5216120481491089, -2.101278781890869, 0.279296875, -0.164794921875, -0.922607421875
95, 1537768152, -5.191234111785889, 1.6674143075942993, 8.241828918457031, -2.173557758331299, -1.6549644470214844, -2.019394874572754, 0.28125, -0.164794921875, -0.923583984375
96, 1537784819, -5.192377090454102, 1.6985183954238892, 8.25732707977295, -2.319716453552246, -1.5314089059829712, -2.1259307861328125, 0.28173828125, -0.164306640625, -0.924072265625
97, 1537801486, -5.1934428215026855, 1.6715881824493408, 8.24301815032959, -2.290966272354126, -1.520561933517456, -2.1941375732421875, 0.28125, -0.164306640625, -0.9208984375
98, 1537818153, -5.165225505828857, 1.7055915594100952, 8.222946166992188, -2.4792838096618652, -1.4624851942062378, -2.212886095046997, 0.27978515625, -0.165771484375, -0.922119140625
99, 1537834820, -5.191659927368164, 1.6841942071914673, 8.251093864440918, -2.478041648864746, -1.5603768825531006, -2.323981523513794, 0.283203125, -0.163818359375, -0.9208984375
100, 1537851487, -5.188209533691406, 1.6634284257888794, 8.217889785766602, -2.4004220962524414, -1.4574522972106934, -2.2977793216705322, 0.27783203125, -0.164306640625, -0.92138671875
101, 1537868154, -5.187620162963867, 1.6882706880569458, 8.221431732177734, -2.4776060581207275, -1.5513101816177368, -2.277263879776001, 0.27880859375, -0.164794921875, -0.922119140625
102, 1537884821, -5.1942338943481445, 1.680470585823059, 8.224648475646973, -2.4102447032928467, -1.5039136409759521, -2.255249261856079, 0.27880859375, -0.165283203125, -0.921875
103, 1537901488, -5.208796501159668, 1.654444932937622, 8.220823287963867, -2.40938663482666, -1.4706426858901978, -2.124573230743408, 0.279296875, -0.163818359375, -0.924560546875
104, 1537918155, -5.189713954925537, 1.6854923963546753, 8.228325843811035, -2.4844577312469482, -1.5790742635726929, -2.1525042057037354, 0.28076171875, -0.163330078125, -0.923095703125
105, 1537934822, -5.192999839782715, 1.681570291519165, 8.238479614257812, -2.4249589443206787, -1.3930107355117798, -2.2017829418182373, 0.28076171875, -0.161865234375, -0.922607421875
106, 1537951489, -5.213196754455566, 1.6692434549331665, 8.231157302856445, -2.4883763790130615, -1.375939965248108, -2.174492835998535, 0.28125, -0.165283203125, -0.924072265625
107, 1537968156, -5.214215278625488, 1.6773898601531982, 8.229449272155762, -2.4149832725524902, -1.477481484413147, -2.1767210960388184, 0.279296875, -0.164306640625, -0.924560546875
108, 1537984823, -5.191173553466797, 1.672797679901123, 8.231466293334961, -2.470216989517212, -1.5342520475387573, -2.204613447189331, 0.28125, -0.165771484375, -0.923583984375
109, 1538001490, -5.164630889892578, 1.6512666940689087, 8.253117561340332, -2.3819684982299805, -1.517309308052063, -2.213219404220581, 0.2802734375, -0.163818359375, -0.921875
110, 1538018157, -5.184640884399414, 1.6787787675857544, 8.238702774047852, -2.393174171447754, -1.3798714876174927, -2.2694902420043945, 0.279296875, -0.163330078125, -0.922119140625
111, 1538034824, -5.23009729385376, 1.663634181022644, 8.218721389770508, -2.433321714401245, -1.4101967811584473, -2.266608715057373, 0.2802734375, -0.16162109375, -0.92138671875
112, 1538051491, -5.201166152954102, 1.6833946704864502, 8.239922523498535, -2.3927769660949707, -1.4775327444076538, -2.336454391479492, 0.28173828125, -0.163330078125, -0.923583984375
113, 1538068158, -5.203473091125488, 1.6486736536026, 8.2509765625, -2.3298463821411133, -1.4470024108886719, -2.263176679611206, 0.27978515625, -0.162841796875, -0.922607421875
114, 1538084825, -5.195345878601074, 1.666547417640686, 8.233579635620117, -2.45342755317688, -1.594659686088562, -2.193510055541992, 0.28125, -0.162353515625, -0.922607421875
115, 1538101492, -5.190393924713135, 1.691150188446045, 8.224873542785645, -2.4392383098602295, -1.4967164993286133, -2.237435817718506, 0.28076171875, -0.163818359375, -0.922119140625
116, 1538118159, -5.195493698120117, 1.678274393081665, 8.23156452178955, -2.3457648754119873, -1.3825736045837402, -2.262421131134033, 0.2822265625, -0.164794921875, -0.921875
117, 1538134826, -5.214348793029785, 1.6787135601043701, 8.238436698913574, -2.3429343700408936, -1.3180806636810303, -2.2571189403533936, 0.2802734375, -0.163330078125, -0.922119140625
118, 1538151493, -5.234757423400879, 1.6744165420532227, 8.233311653137207, -2.3048481941223145, -1.4937070608139038, -2.199413537979126, 0.2822265625, -0.162841796875, -0.922607421875
119, 1538168160, -5.201961994171143, 1.6617587804794312, 8.235397338867188, -2.2805166244506836, -1.5162206888198853, -2.1212055683135986, 0.279296875, -0.16162109375, -0.921630859375
120, 1538184827, -5.208451747894287, 1.6788429021835327, 8.205018997192383, -2.2643673419952393, -1.5366723537445068, -1.9884546995162964, 0.28076171875, -0.164794921875, -0.923583984375
121, 1538201494, -5.188060283660889, 1.6777557134628296, 8.226044654846191, -2.402855157852173, -1.5155673027038574, -2.1029818058013916, 0.28173828125, -0.163818359375, -0.924072265625
122, 1538218161, -5.211104393005371, 1.6851965188980103, 8.222021102905273, -2.35063099861145, -1.4332993030548096, -2.208019495010376, 0.28271484375, -0.163330078125, -0.924072265625
123, 1538234828, -5.2218780517578125, 1.676008701324463, 8.236974716186523, -2.35225772857666, -1.61986243724823, -2.213731288909912, 0.28173828125, -0.162841796875, -0.92138671875
124, 1538251495, -5.2073445320129395, 1.6660372018814087, 8.227080345153809, -2.4283785820007324, -1.5355199575424194, -2.2325949668884277, 0.28125, -0.162353515625, -0.923095703125
125, 1538268162, -5.206591606140137, 1.6750102043151855, 8.253658294677734, -2.4384443759918213, -1.5938142538070679, -2.300724983215332, 0.27880859375, -0.162353515625, -0.924072265625
126, 1538284829, -5.215155124664307, 1.6739072799682617, 8.229243278503418, -2.4565141201019287, -1.4850627183914185, -2.3070766925811768, 0.2822265625, -0.161865234375, -0.922607421875
127, 1538301496, -5.217454433441162, 1.6676993370056152, 8.23424243927002, -2.4084010124206543, -1.6990697383880615, -2.2516510486602783, 0.2783203125, -0.162841796875, -0.921630859375
128, 1538318163, -5.223742485046387, 1.6743969917297363, 8.225072860717773, -2.484700918197632, -1.7525362968444824, -2.2125532627105713, 0.2802734375, -0.161865234375, -0.922607421875
129, 1538334830, -5.202808856964111, 1.6745843887329102, 8.21873950958252, -2.3684957027435303, -1.8249175548553467, -2.1603031158447266, 0.28076171875, -0.163818359375, -0.922607421875
130, 1538351497, -5.213440418243408, 1.6815515756607056, 8.208057403564453, -2.4816787242889404, -1.8279016017913818, -2.191333055496216, 0.28076171875, -0.162353515625, -0.921875
131, 1538368164, -5.210902690887451, 1.6600847244262695, 8.233123779296875, -2.3615164756774902, -1.8323454856872559, -2.1747872829437256, 0.28125, -0.163818359375, -0.923095703125
132, 1538384831, -5.192473411560059, 1.659136176109314, 8.246712684631348, -2.328655481338501, -1.778981328010559, -2.0823254585266113, 0.279296875, -0.164306640625, -0.923583984375
133, 1538401498, -5.200305461883545, 1.674827218055725, 8.262618064880371, -2.2599878311157227, -1.711799144744873, -2.094721555709839, 0.2822265625, -0.164306640625, -0.924072265625
134, 1538418165, -5.21018648147583, 1.6848828792572021, 8.245540618896484, -2.316194772720337, -1.6727781295776367, -2.109065055847168, 0.28271484375, -0.163330078125, -0.924072265625
135, 1538434832, -5.20883321762085, 1.666852593421936, 8.225874900817871, -2.3330864906311035, -1.4846915006637573, -2.224808931350708, 0.27880859375, -0.163818359375, -0.922119140625
136, 1538451499, -5.2047600746154785, 1.6688717603683472, 8.242290496826172, -2.319857597351074, -1.6060316562652588, -2.238396406173706, 0.27880859375, -0.164794921875, -0.924072265625
137, 1538468166, -5.202141761779785, 1.664197564125061, 8.234347343444824, -2.3631558418273926, -1.5952614545822144, -2.177834987640381, 0.28173828125, -0.1611328125, -0.923583984375
138, 1538484833, -5.2127275466918945, 1.6772739887237549, 8.2216157913208, -2.268990993499756, -1.7164608240127563, -2.144986867904663, 0.28173828125, -0.163330078125, -0.921875
139, 1538501500, -5.211423873901367, 1.684381365776062, 8.221903800964355, -2.247501850128174, -1.6703321933746338, -2.1576650142669678, 0.28076171875, -0.164306640625, -0.923583984375
140, 1538518167, -5.2168803215026855, 1.6544634103775024, 8.198525428771973, -2.29364275932312, -1.7194446325302124, -2.162454843521118, 0.28076171875, -0.162841796875, -0.921875
141, 1538534834, -5.187532424926758, 1.696677327156067, 8.246394157409668, -2.3674588203430176, -1.5644621849060059, -2.1867740154266357, 0.28173828125, -0.161376953125, -0.921875
142, 1538551501, -5.197911262512207, 1.660084843635559, 8.246312141418457, -2.2979583740234375, -1.5204722881317139, -2.242814302444458, 0.28076171875, -0.161865234375, -0.9208984375
143, 1538568168, -5.207844257354736, 1.682258129119873, 8.242419242858887, -2.263740062713623, -1.467326045036316, -2.193702220916748, 0.283447265625, -0.163330078125, -0.92236328125
144, 1538584835, -5.213012218475342, 1.667891025543213, 8.235123634338379, -2.217355489730835, -1.4771355390548706, -2.1719441413879395, 0.2822265625, -0.162353515625, -0.924560546875
145, 1538601502, -5.231143474578857, 1.6773823499679565, 8.224696159362793, -2.2219655513763428, -1.501403570175171, -2.186440944671631, 0.28173828125, -0.165283203125, -0.925048828125
146, 1538618169, -5.226450443267822, 1.6495012044906616, 8.20668888092041, -2.1487772464752197, -1.5683552026748657, -2.215728998184204, 0.28125, -0.164306640625, -0.92236328125
147, 1538634836, -5.208670616149902, 1.6667375564575195, 8.217076301574707, -2.222080945968628, -1.539336085319519, -2.0513083934783936, 0.2822265625, -0.162353515625, -0.92236328125
148, 1538651503, -5.203816890716553, 1.6753425598144531, 8.232830047607422, -2.0906107425689697, -1.5242372751235962, -2.022212266921997, 0.2802734375, -0.162841796875, -0.921875
149, 1538668170, -5.211935997009277, 1.682536005973816, 8.216415405273438, -2.2325310707092285, -1.532318115234375, -2.0550222396850586, 0.28125, -0.162353515625, -0.924072265625
150, 1538684837, -5.219409942626953, 1.6775904893875122, 8.207120895385742, -2.27194881439209, -1.644489049911499, -2.0427284240722656, 0.28076171875, -0.16162109375, -0.922119140625
151, 1538701504, -5.211637496948242, 1.6750413179397583, 8.24649715423584, -2.341628313064575, -1.6962908506393433, -2.0708253383636475, 0.28125, -0.164794921875, -0.924560546875
152, 1538718171, -5.190293788909912, 1.6775482892990112, 8.226680755615234, -2.374591588973999, -1.4931050539016724, -2.1454219818115234, 0.28125, -0.164306640625, -0.923095703125
153, 1538734838, -5.204981327056885, 1.677894115447998, 8.237809181213379, -2.354191303253174, -1.5288219451904297, -2.136239767074585, 0.28076171875, -0.165283203125, -0.92138671875
154, 1538751505, -5.2170538902282715, 1.6726913452148438, 8.221261024475098, -2.3476474285125732, -1.5851829051971436, -2.0583903789520264, 0.28271484375, -0.162353515625, -0.92138671875
155, 1538768172, -5.2335309982299805, 1.6631088256835938, 8.211779594421387, -2.349440097808838, -1.6795785427093506, -2.0727462768554688, 0.28125, -0.162841796875, -0.925537109375
156, 1538784839, -5.204755783081055, 1.6662603616714478, 8.235664367675781, -2.303004264831543, -1.7181767225265503, -2.0449178218841553, 0.28173828125, -0.163818359375, -0.92138671875
157, 1538801506, -5.204916954040527, 1.6766868829727173, 8.224857330322266, -2.255800485610962, -1.6400068998336792, -2.0489134788513184, 0.28173828125, -0.165283203125, -0.922607421875
158, 1538818173, -5.20394229888916, 1.687362790107727, 8.227889060974121, -2.317373037338257, -1.6826648712158203, -2.148815870285034, 0.28076171875, -0.163818359375, -0.926513671875
159, 1538834840, -5.221755504608154, 1.6737709045410156, 8.222639083862305, -2.350336790084839, -1.6920006275177002, -2.0477097034454346, 0.28173828125, -0.166259765625, -0.9228515625
160, 1538851507, -5.20839786529541, 1.666021704673767, 8.216170310974121, -2.294347047805786, -1.7194443941116333, -2.003899097442627, 0.2822265625, -0.164306640625, -0.923583984375
161, 1538868174, -5.182203769683838, 1.7004598379135132, 8.227699279785156, -2.3183207511901855, -1.8066431283950806, -2.021482467651367, 0.28271484375, -0.166748046875, -0.923095703125
162, 1538884841, -5.216176509857178, 1.6849743127822876, 8.220749855041504, -2.3962345123291016, -1.7553790807724, -2.070312738418579, 0.28076171875, -0.164306640625, -0.924072265625
163, 1538901508, -5.205109119415283, 1.6880803108215332, 8.226214408874512, -2.363168954849243, -1.7641388177871704, -2.1207189559936523, 0.27978515625, -0.165283203125, -0.921875
164, 1538918175, -5.199664115905762, 1.6818854808807373, 8.217470169067383, -2.3015573024749756, -1.7276405096054077, -2.076946496963501, 0.2822265625, -0.162841796875, -0.923583984375
165, 1538934842, -5.1820244789123535, 1.688415288925171, 8.233473777770996, -2.303900718688965, -1.6400065422058105, -2.115198850631714, 0.283203125, -0.162841796875, -0.924072265625
166, 1538951509, -5.208757400512695, 1.6665985584259033, 8.219666481018066, -2.3093433380126953, -1.6017669439315796, -2.1019959449768066, 0.2802734375, -0.163818359375, -0.925048828125
167, 1538968176, -5.191920757293701, 1.687016248703003, 8.24532699584961, -2.290210723876953, -1.670831561088562, -2.0718495845794678, 0.2822265625, -0.164306640625, -0.923095703125
168, 1538984843, -5.1925883293151855, 1.6742656230926514, 8.244148254394531, -2.2277162075042725, -1.6308118104934692, -2.206867218017578, 0.28125, -0.165283203125, -0.922607421875
169, 1539001510, -5.2064595222473145, 1.6784594058990479, 8.247980117797852, -2.248154878616333, -1.4637912511825562, -2.181267023086548, 0.28125, -0.162841796875, -0.923095703125
170, 1539018177, -5.192821502685547, 1.6758618354797363, 8.236309051513672, -2.186786413192749, -1.5262606143951416, -2.14510178565979, 0.279296875, -0.163330078125, -0.924560546875
171, 1539034844, -5.206756591796875, 1.6767189502716064, 8.234916687011719, -2.1567044258117676, -1.4957047700881958, -2.1673848628997803, 0.28076171875, -0.162353515625, -0.922119140625
172, 1539051511, -5.203884124755859, 1.6769683361053467, 8.206280708312988, -2.116121292114258, -1.576167106628418, -2.2266273498535156, 0.2802734375, -0.163818359375, -0.922607421875
173, 1539068178, -5.210267543792725, 1.6688026189804077, 8.213584899902344, -2.18025541305542, -1.5953893661499023, -2.212719440460205, 0.279296875, -0.162841796875, -0.922119140625
174, 1539084845, -5.2080864906311035, 1.6662362813949585, 8.210431098937988, -2.2534821033477783, -1.6764920949935913, -2.201975107192993, 0.283203125, -0.163330078125, -0.924072265625
175, 1539101512, -5.223104953765869, 1.6657147407531738, 8.23759651184082, -2.268158197402954, -1.4830137491226196, -2.3074350357055664, 0.28173828125, -0.163818359375, -0.92236328125
176, 1539118179, -5.2233967781066895, 1.681811809539795, 8.229302406311035, -2.346430540084839, -1.6034703254699707, -2.1261487007141113, 0.28173828125, -0.163818359375, -0.92236328125
177, 1539134846, -5.208358287811279, 1.671212077140808, 8.233952522277832, -2.374809741973877, -1.7001454830169678, -2.185070753097534, 0.28271484375, -0.164306640625, -0.923095703125
178, 1539151513, -5.224602222442627, 1.682678461074829, 8.219159126281738, -2.394441843032837, -1.6298770904541016, -2.1926522254943848, 0.28369140625, -0.164306640625, -0.9228515625
179, 1539168180, -5.210599422454834, 1.673906922340393, 8.21349811553955, -2.614711046218872, -1.7577868700027466, -2.2874960899353027, 0.28173828125, -0.165771484375, -0.9228515625
180, 1539184847, -5.202702522277832, 1.6865373849868774, 8.2053804397583, -2.5371172428131104, -1.6878128051757812, -2.1853396892547607, 0.2802734375, -0.164306640625, -0.925537109375
181, 1539201514, -5.215156078338623, 1.685890793800354, 8.207465171813965, -2.4666435718536377, -1.6788740158081055, -2.2241811752319336, 0.28125, -0.165771484375, -0.92138671875
182, 1539218181, -5.211875915527344, 1.6747797727584839, 8.231391906738281, -2.355151891708374, -1.6669001579284668, -2.175593852996826, 0.28271484375, -0.163818359375, -0.921875
183, 1539234848, -5.228611946105957, 1.673977017402649, 8.220248222351074, -2.297907590866089, -1.6900029182434082, -2.0635128021240234, 0.2822265625, -0.163818359375, -0.9208984375
184, 1539251515, -5.2161946296691895, 1.6775708198547363, 8.210028648376465, -2.3772175312042236, -1.7254765033721924, -1.9480124711990356, 0.2822265625, -0.163330078125, -0.921875
185, 1539268182, -5.205781936645508, 1.6722691059112549, 8.237874984741211, -2.3391308784484863, -1.8479176759719849, -1.9454765319824219, 0.28271484375, -0.164306640625, -0.921875
186, 1539284849, -5.2072858810424805, 1.6916176080703735, 8.22029972076416, -2.3247878551483154, -1.8315640687942505, -2.0613741874694824, 0.28173828125, -0.164306640625, -0.927978515625
187, 1539301516, -5.198627471923828, 1.6740708351135254, 8.242633819580078, -2.3306148052215576, -1.7159357070922852, -2.1341142654418945, 0.28173828125, -0.164306640625, -0.921875
188, 1539318183, -5.211243152618408, 1.6852422952651978, 8.214553833007812, -2.314786195755005, -1.7448396682739258, -2.116018772125244, 0.2822265625, -0.164794921875, -0.9228515625
189, 1539334850, -5.2075676918029785, 1.6819782257080078, 8.214271545410156, -2.365410089492798, -1.7514989376068115, -2.005500078201294, 0.279296875, -0.165283203125, -0.923095703125
190, 1539351517, -5.209423065185547, 1.6795923709869385, 8.211498260498047, -2.362067461013794, -1.8491474390029907, -2.0573787689208984, 0.2802734375, -0.165283203125, -0.92138671875
191, 1539368184, -5.1825480461120605, 1.6967756748199463, 8.208041191101074, -2.353384494781494, -1.829451084136963, -2.043701171875, 0.2802734375, -0.162841796875, -0.924072265625
192, 1539384851, -5.213881969451904, 1.6621410846710205, 8.209017753601074, -2.365896463394165, -1.6449885368347168, -2.1825478076934814, 0.2802734375, -0.163818359375, -0.92138671875
193, 1539401518, -5.201371192932129, 1.665143609046936, 8.210549354553223, -2.2473864555358887, -1.7028859853744507, -2.0929417610168457, 0.279296875, -0.163818359375, -0.922119140625
194, 1539418185, -5.200754165649414, 1.6750783920288086, 8.242044448852539, -2.2201085090637207, -1.701797366142273, -2.0931849479675293, 0.28076171875, -0.162841796875, -0.923095703125
195, 1539434852, -5.194060325622559, 1.679803729057312, 8.242612838745117, -2.128863573074341, -1.4707835912704468, -1.9677852392196655, 0.28076171875, -0.164306640625, -0.9208984375
196, 1539451519, -5.212263107299805, 1.6877819299697876, 8.230154991149902, -2.1525936126708984, -1.3686658143997192, -2.0912511348724365, 0.27978515625, -0.163818359375, -0.92041015625
197, 1539468186, -5.207785606384277, 1.6813406944274902, 8.227717399597168, -2.3114819526672363, -1.3539000749588013, -2.18135666847229, 0.28173828125, -0.164794921875, -0.924560546875
198, 1539484853, -5.215513229370117, 1.6729100942611694, 8.20970630645752, -2.1888866424560547, -1.5855796337127686, -2.165438175201416, 0.2783203125, -0.166259765625, -0.922607421875
199, 1539501520, -5.212893962860107, 1.6763811111450195, 8.213485717773438, -2.2080705165863037, -1.5460208654403687, -2.125123977661133, 0.2822265625, -0.163818359375, -0.923583984375
200, 1539518187, -5.213787078857422, 1.677654504776001, 8.235422134399414, -2.2848575115203857, -1.5792150497436523, -2.041652202606201, 0.28173828125, -0.163330078125, -0.924072265625
201, 1539534854, -5.193187236785889, 1.692241907119751, 8.237712860107422, -2.321650505065918, -1.7031934261322021, -2.155449628829956, 0.28076171875, -0.165283203125, -0.922607421875
202, 1539551521, -5.195645809173584, 1.6804839372634888, 8.235562324523926, -2.3198060989379883, -1.5593138933181763, -2.196211814880371, 0.27978515625, -0.164794921875, -0.922607421875
203, 1539568188, -5.210587501525879, 1.6797438859939575, 8.240628242492676, -2.3490302562713623, -1.5706220865249634, -2.204779863357544, 0.28076171875, -0.164794921875, -0.921875
204, 1539584855, -5.210577964782715, 1.687056064605713, 8.205394744873047, -2.299315929412842, -1.562105655670166, -2.1906285285949707, 0.28125, -0.162353515625, -0.922119140625
205, 1539601522, -5.209838390350342, 1.680994987487793, 8.225428581237793, -2.440966844558716, -1.6461024284362793, -2.156435489654541, 0.28125, -0.165771484375, -0.923583984375
206, 1539618189, -5.214703559875488, 1.6923999786376953, 8.223511695861816, -2.395901918411255, -1.6136386394500732, -2.2151787281036377, 0.28125, -0.165283203125, -0.923095703125
207, 1539634856, -5.212168216705322, 1.6886528730392456, 8.22574234008789, -2.36637020111084, -1.6818835735321045, -2.123100757598877, 0.27978515625, -0.162353515625, -0.923095703125
208, 1539651523, -5.20326042175293, 1.677800178527832, 8.242766380310059, -2.382493495941162, -1.704986333847046, -2.13908314704895, 0.2802734375, -0.164306640625, -0.921875
209, 1539668190, -5.20047664642334, 1.6826266050338745, 8.217947959899902, -2.3327536582946777, -1.6427603960037231, -2.2287533283233643, 0.27880859375, -0.164794921875, -0.922607421875
210, 1539684857, -5.211005210876465, 1.6604647636413574, 8.220542907714844, -2.2486798763275146, -1.720302700996399, -2.190718412399292, 0.28125, -0.165771484375, -0.922607421875
211, 1539701524, -5.222393035888672, 1.6666111946105957, 8.241201400756836, -2.2544174194335938, -1.7769707441329956, -2.0239412784576416, 0.28125, -0.164794921875, -0.921875
212, 1539718191, -5.217641830444336, 1.6921260356903076, 8.201359748840332, -2.2438132762908936, -1.8169009685516357, -2.0608232021331787, 0.28173828125, -0.164794921875, -0.922607421875
213, 1539734858, -5.190392017364502, 1.7006514072418213, 8.245790481567383, -2.2456960678100586, -1.8545899391174316, -2.0696470737457275, 0.2802734375, -0.165771484375, -0.922607421875
214, 1539751525, -5.198951244354248, 1.6705089807510376, 8.22382640838623, -2.2280359268188477, -1.6972894668579102, -2.148469924926758, 0.28076171875, -0.164306640625, -0.92236328125
215, 1539768192, -5.217766761779785, 1.674114465713501, 8.218079566955566, -2.191256046295166, -1.598373293876648, -2.0552783012390137, 0.283203125, -0.163818359375, -0.9228515625
216, 1539784859, -5.2040276527404785, 1.6848256587982178, 8.212810516357422, -2.1995677947998047, -1.7523187398910522, -2.019702434539795, 0.28125, -0.165283203125, -0.924072265625
217, 1539801526, -5.196142673492432, 1.695859670639038, 8.220191955566406, -2.234041929244995, -1.8113173246383667, -2.042804718017578, 0.2802734375, -0.163818359375, -0.923583984375
218, 1539818193, -5.209372520446777, 1.6922098398208618, 8.220269203186035, -2.2648539543151855, -1.6486766338348389, -2.066086769104004, 0.28173828125, -0.165283203125, -0.921875
219, 1539834860, -5.190593242645264, 1.7065526247024536, 8.220293998718262, -2.2222602367401123, -1.7264879941940308, -2.110947370529175, 0.2802734375, -0.164794921875, -0.922607421875
220, 1539851527, -5.204762935638428, 1.6844713687896729, 8.218511581420898, -2.3442025184631348, -1.6293648481369019, -2.1316428184509277, 0.28173828125, -0.166259765625, -0.924072265625
221, 1539868194, -5.21618127822876, 1.6818203926086426, 8.19813060760498, -2.2294700145721436, -1.704473853111267, -1.991694688796997, 0.28125, -0.165283203125, -0.9208984375
222, 1539884861, -5.2203779220581055, 1.6813864707946777, 8.227435111999512, -2.1696901321411133, -1.6850337982177734, -1.9173154830932617, 0.2822265625, -0.165771484375, -0.9228515625
223, 1539901528, -5.2021803855896, 1.6746162176132202, 8.221132278442383, -2.170356035232544, -1.5758981704711914, -1.911936640739441, 0.27978515625, -0.164794921875, -0.921875
224, 1539918195, -5.197285175323486, 1.704382300376892, 8.22343921661377, -2.239356756210327, -1.5630277395248413, -2.142822504043579, 0.28125, -0.164794921875, -0.92236328125
225, 1539934862, -5.201389312744141, 1.6833016872406006, 8.219178199768066, -2.2318263053894043, -1.6070687770843506, -2.2131805419921875, 0.2802734375, -0.1611328125, -0.922119140625
226, 1539951529, -5.207874298095703, 1.6785199642181396, 8.23225212097168, -2.3049893379211426, -1.6865451335906982, -2.2486414909362793, 0.28076171875, -0.165771484375, -0.922607421875
227, 1539968196, -5.209242343902588, 1.6767257452011108, 8.247371673583984, -2.20039963722229, -1.6856485605239868, -2.0419211387634277, 0.28076171875, -0.165283203125, -0.923583984375
228, 1539984863, -5.178987979888916, 1.7060439586639404, 8.236954689025879, -2.288379430770874, -1.6565780639648438, -2.005448579788208, 0.2802734375, -0.165771484375, -0.92236328125
229, 1540001530, -5.183525085449219, 1.7189935445785522, 8.245112419128418, -2.33349609375, -1.446105718612671, -2.160904884338379, 0.28076171875, -0.165771484375, -0.92138671875
230, 1540018197, -5.201391696929932, 1.699662446975708, 8.214056015014648, -2.396618604660034, -1.5869115591049194, -2.2895188331604004, 0.27880859375, -0.166748046875, -0.922607421875
231, 1540034864, -5.208104610443115, 1.6807774305343628, 8.229191780090332, -2.4684112071990967, -1.600665807723999, -2.2485263347625732, 0.28125, -0.166259765625, -0.924072265625
232, 1540051531, -5.216962814331055, 1.6724148988723755, 8.213468551635742, -2.4533255100250244, -1.657666802406311, -2.252880334854126, 0.28125, -0.164306640625, -0.923095703125
233, 1540068198, -5.212278842926025, 1.6833221912384033, 8.22718334197998, -2.456911325454712, -1.7634729146957397, -2.1746976375579834, 0.2822265625, -0.165771484375, -0.921875
234, 1540084865, -5.198168754577637, 1.6912177801132202, 8.24044132232666, -2.4403395652770996, -1.7655088901519775, -2.176016330718994, 0.28271484375, -0.164306640625, -0.9208984375
235, 1540101532, -5.210077285766602, 1.6875286102294922, 8.237318992614746, -2.4461283683776855, -1.7130670547485352, -2.0968093872070312, 0.279296875, -0.164794921875, -0.923095703125
236, 1540118199, -5.213669776916504, 1.686035394668579, 8.235640525817871, -2.3521804809570312, -1.73861563205719, -2.164401054382324, 0.28125, -0.164794921875, -0.919921875
237, 1540134866, -5.212866306304932, 1.682963252067566, 8.236283302307129, -2.4328861236572266, -1.7471189498901367, -2.1445000171661377, 0.28076171875, -0.163330078125, -0.92138671875
238, 1540151533, -5.221999645233154, 1.6831022500991821, 8.234357833862305, -2.3931610584259033, -1.6583455801010132, -2.1985301971435547, 0.28076171875, -0.164306640625, -0.92236328125
239, 1540168200, -5.214075565338135, 1.6916470527648926, 8.22065258026123, -2.327759265899658, -1.7701963186264038, -2.055560350418091, 0.283203125, -0.163330078125, -0.9228515625
240, 1540184867, -5.1901984214782715, 1.6965560913085938, 8.230554580688477, -2.4438228607177734, -1.7998685836791992, -2.139582633972168, 0.28173828125, -0.164306640625, -0.921875
241, 1540201534, -5.20962381362915, 1.6949305534362793, 8.228060722351074, -2.5288829803466797, -1.7612189054489136, -2.156512498855591, 0.28125, -0.164306640625, -0.921875
242, 1540218201, -5.215344429016113, 1.6806838512420654, 8.227354049682617, -2.5095067024230957, -1.7240420579910278, -2.1687042713165283, 0.28125, -0.162353515625, -0.922119140625
243, 1540234868, -5.207346439361572, 1.6855238676071167, 8.203645706176758, -2.612994909286499, -1.7568135261535645, -2.2457473278045654, 0.28271484375, -0.163818359375, -0.9208984375
244, 1540251535, -5.2067179679870605, 1.6906617879867554, 8.226815223693848, -2.544532299041748, -1.666106104850769, -2.193394899368286, 0.28125, -0.166748046875, -0.926025390625
245, 1540268202, -5.224926948547363, 1.6824830770492554, 8.21721076965332, -2.575664520263672, -1.762589454650879, -2.1949446201324463, 0.28076171875, -0.164794921875, -0.923095703125
246, 1540284869, -5.210259437561035, 1.6939069032669067, 8.238083839416504, -2.5080599784851074, -1.8598921298980713, -2.2265892028808594, 0.28173828125, -0.164306640625, -0.9208984375
247, 1540301536, -5.202259540557861, 1.6782987117767334, 8.241710662841797, -2.4144322872161865, -1.8579963445663452, -2.223207950592041, 0.283447265625, -0.163818359375, -0.92138671875
248, 1540318203, -5.194112300872803, 1.6834911108016968, 8.228508949279785, -2.3386318683624268, -1.6956889629364014, -2.1905391216278076, 0.2802734375, -0.166259765625, -0.92236328125
249, 1540334870, -5.2069220542907715, 1.6894032955169678, 8.211874008178711, -2.3674330711364746, -1.6351914405822754, -2.176439046859741, 0.27978515625, -0.162841796875, -0.922119140625
250, 1540351537, -5.21144437789917, 1.6792926788330078, 8.24638843536377, -2.337747812271118, -1.6048790216445923, -2.0720930099487305, 0.28125, -0.167236328125, -0.921875
251, 1540368204, -5.216299533843994, 1.6767680644989014, 8.232303619384766, -2.3841967582702637, -1.8330496549606323, -2.110755681991577, 0.27978515625, -0.162841796875, -0.925048828125
252, 1540384871, -5.190858840942383, 1.6718027591705322, 8.241388320922852, -2.3336503505706787, -1.8677295446395874, -2.0119290351867676, 0.2822265625, -0.165771484375, -0.923095703125
253, 1540401538, -5.203330039978027, 1.6839333772659302, 8.232667922973633, -2.410001516342163, -1.795911431312561, -2.078995943069458, 0.27978515625, -0.164306640625, -0.921875
254, 1540418205, -5.194486618041992, 1.7028297185897827, 8.231925010681152, -2.398104429244995, -1.6657603979110718, -2.120513916015625, 0.28076171875, -0.162841796875, -0.921875
255, 1540434872, -5.203970909118652, 1.7026817798614502, 8.210734367370605, -2.446704387664795, -1.648510217666626, -2.351745367050171, 0.27880859375, -0.163330078125, -0.92138671875
256, 1540451539, -5.208456039428711, 1.683963656425476, 8.231038093566895, -2.528613567352295, -1.5878335237503052, -2.3203823566436768, 0.2802734375, -0.165283203125, -0.921875
257, 1540468206, -5.196211814880371, 1.6693240404129028, 8.211446762084961, -2.5556225776672363, -1.6340391635894775, -2.224155902862549, 0.28076171875, -0.164306640625, -0.92236328125
258, 1540484873, -5.198019504547119, 1.684601068496704, 8.224788665771484, -2.5616674423217773, -1.7690566778182983, -2.2412140369415283, 0.2802734375, -0.163818359375, -0.922607421875
259, 1540501540, -5.208994388580322, 1.6981256008148193, 8.234798431396484, -2.545659303665161, -1.6372791528701782, -2.2468485832214355, 0.2802734375, -0.164306640625, -0.922607421875
260, 1540518207, -5.19814395904541, 1.6844696998596191, 8.226897239685059, -2.4723172187805176, -1.672432541847229, -2.245094060897827, 0.28369140625, -0.164306640625, -0.923583984375
261, 1540534874, -5.209225177764893, 1.6771000623703003, 8.226841926574707, -2.4331552982330322, -1.6584993600845337, -2.2388830184936523, 0.27880859375, -0.163330078125, -0.923583984375
262, 1540551541, -5.2009687423706055, 1.6738325357437134, 8.23076057434082, -2.4165198802948, -1.6588194370269775, -2.151825428009033, 0.27880859375, -0.163330078125, -0.923095703125
263, 1540568208, -5.1935272216796875, 1.6730908155441284, 8.245923042297363, -2.432668685913086, -1.6264065504074097, -2.2196733951568604, 0.28076171875, -0.161865234375, -0.923583984375
264, 1540584875, -5.191347122192383, 1.6674972772598267, 8.204571723937988, -2.4648635387420654, -1.6617774963378906, -2.175529956817627, 0.279296875, -0.164794921875, -0.923095703125
265, 1540601542, -5.2075724601745605, 1.6685982942581177, 8.236124038696289, -2.4880945682525635, -1.54750657081604, -2.2603721618652344, 0.27978515625, -0.162353515625, -0.922607421875
266, 1540618209, -5.201701641082764, 1.669002890586853, 8.2369966506958, -2.488081932067871, -1.6672972440719604, -2.2065470218658447, 0.2783203125, -0.162841796875, -0.921630859375
267, 1540634876, -5.197696685791016, 1.679848074913025, 8.22635269165039, -2.4741995334625244, -1.665529727935791, -2.2708218097686768, 0.28076171875, -0.165771484375, -0.92236328125
268, 1540651543, -5.198246479034424, 1.6785609722137451, 8.228653907775879, -2.4392127990722656, -1.6333731412887573, -2.2387678623199463, 0.28173828125, -0.163818359375, -0.922607421875
269, 1540668210, -5.182539939880371, 1.6912214756011963, 8.219533920288086, -2.470076084136963, -1.5607612133026123, -2.209146499633789, 0.27880859375, -0.162841796875, -0.922119140625
270, 1540684877, -5.1974921226501465, 1.6689021587371826, 8.239163398742676, -2.4792838096618652, -1.5886918306350708, -2.3490560054779053, 0.279296875, -0.165283203125, -0.924560546875
271, 1540701544, -5.203104496002197, 1.6738449335098267, 8.259803771972656, -2.4439895153045654, -1.609976053237915, -2.210516929626465, 0.2822265625, -0.162353515625, -0.925537109375
272, 1540718211, -5.211499214172363, 1.6748888492584229, 8.207870483398438, -2.541125535964966, -1.7723474502563477, -2.1936893463134766, 0.2822265625, -0.163330078125, -0.923095703125
273, 1540734878, -5.198201656341553, 1.6745790243148804, 8.238110542297363, -2.4889142513275146, -1.5760774612426758, -2.1918067932128906, 0.2822265625, -0.163818359375, -0.923583984375
274, 1540751545, -5.208094596862793, 1.6700254678726196, 8.222318649291992, -2.506702184677124, -1.5713905096054077, -2.2637271881103516, 0.279296875, -0.163818359375, -0.92138671875
275, 1540768212, -5.198108673095703, 1.6748772859573364, 8.226075172424316, -2.4261245727539062, -1.5733243227005005, -2.280158042907715, 0.28076171875, -0.161865234375, -0.923095703125
276, 1540784879, -5.208373069763184, 1.6670970916748047, 8.230259895324707, -2.3914451599121094, -1.6354094743728638, -2.194342613220215, 0.28125, -0.164306640625, -0.923095703125
277, 1540801546, -5.216572284698486, 1.6769145727157593, 8.194408416748047, -2.443861246109009, -1.6629431247711182, -2.1564996242523193, 0.28125, -0.163818359375, -0.92236328125
278, 1540818213, -5.207906246185303, 1.6809699535369873, 8.249598503112793, -2.338721513748169, -1.8121497631072998, -2.081774950027466, 0.28076171875, -0.164794921875, -0.9208984375
279, 1540834880, -5.187545299530029, 1.6673837900161743, 8.21891975402832, -2.3868730068206787, -1.9104764461517334, -2.101701021194458, 0.28125, -0.164794921875, -0.923583984375
280, 1540851547, -5.2062087059021, 1.6759706735610962, 8.247224807739258, -2.510672092437744, -1.687646508216858, -2.1069393157958984, 0.28076171875, -0.161865234375, -0.923095703125
281, 1540868214, -5.214198589324951, 1.6768089532852173, 8.23259162902832, -2.495112419128418, -1.7543035745620728, -2.2050230503082275, 0.28076171875, -0.162353515625, -0.925048828125
282, 1540884881, -5.204491138458252, 1.681967854499817, 8.234535217285156, -2.5681471824645996, -1.6786437034606934, -2.220646858215332, 0.27978515625, -0.164306640625, -0.922119140625
283, 1540901548, -5.195384979248047, 1.6769604682922363, 8.246142387390137, -2.5392558574676514, -1.7707085609436035, -2.1962380409240723, 0.2802734375, -0.162353515625, -0.922607421875
284, 1540918215, -5.199642658233643, 1.6716601848602295, 8.234768867492676, -2.53080415725708, -1.7374632358551025, -2.2726023197174072, 0.28076171875, -0.163330078125, -0.922119140625
285, 1540934882, -5.203343868255615, 1.6733092069625854, 8.22557258605957, -2.629271984100342, -1.8343689441680908, -2.2286508083343506, 0.27978515625, -0.162353515625, -0.923095703125
286, 1540951549, -5.20635986328125, 1.6642265319824219, 8.245767593383789, -2.5369253158569336, -1.7530995607376099, -2.1429123878479004, 0.27978515625, -0.163818359375, -0.92138671875
287, 1540968216, -5.197950839996338, 1.6566890478134155, 8.249008178710938, -2.481384038925171, -1.8146214485168457, -2.1959433555603027, 0.27978515625, -0.163818359375, -0.922607421875
288, 1540984883, -5.20119571685791, 1.663404941558838, 8.223519325256348, -2.4527747631073, -1.7930426597595215, -2.232326030731201, 0.28173828125, -0.163818359375, -0.924072265625
289, 1541001550, -5.211097717285156, 1.6712679862976074, 8.217524528503418, -2.411576509475708, -1.7735258340835571, -2.216984272003174, 0.28076171875, -0.161865234375, -0.9189453125
290, 1541018217, -5.2017130851745605, 1.6530485153198242, 8.244793891906738, -2.45792293548584, -1.6968413591384888, -2.157357692718506, 0.279296875, -0.163330078125, -0.922119140625
291, 1541034884, -5.198077201843262, 1.671263575553894, 8.236035346984863, -2.376359224319458, -1.5889222621917725, -2.1243300437927246, 0.28173828125, -0.164794921875, -0.922607421875
292, 1541051551, -5.207670211791992, 1.6594825983047485, 8.214978218078613, -2.5222108364105225, -1.6982758045196533, -2.1644399166107178, 0.2783203125, -0.162109375, -0.924560546875
293, 1541068218, -5.208786487579346, 1.6607977151870728, 8.241634368896484, -2.453005313873291, -1.6693590879440308, -2.285062551498413, 0.279296875, -0.162353515625, -0.923583984375
294, 1541084885, -5.184524059295654, 1.676084041595459, 8.223809242248535, -2.4799883365631104, -1.643784761428833, -2.28497314453125, 0.28125, -0.163330078125, -0.92236328125
295, 1541101552, -5.208594799041748, 1.660158395767212, 8.244634628295898, -2.4698455333709717, -1.4444923400878906, -2.316758632659912, 0.28125, -0.161865234375, -0.92041015625
296, 1541118219, -5.2101311683654785, 1.6712535619735718, 8.228883743286133, -2.4236276149749756, -1.4635738134384155, -2.2642269134521484, 0.27880859375, -0.16162109375, -0.922119140625
297, 1541134886, -5.201638698577881, 1.6561495065689087, 8.243887901306152, -2.2745614051818848, -1.583031415939331, -2.2483725547790527, 0.2802734375, -0.163818359375, -0.923583984375
298, 1541151553, -5.210993766784668, 1.6674933433532715, 8.250417709350586, -2.3602359294891357, -1.5478907823562622, -2.2406373023986816, 0.28076171875, -0.162841796875, -0.922119140625
299, 1541168220, -5.189429759979248, 1.6833281517028809, 8.23147201538086, -2.4278151988983154, -1.614291787147522, -2.2346444129943848, 0.28076171875, -0.163818359375, -0.922607421875
300, 1541184887, -5.207861423492432, 1.6570676565170288, 8.239297866821289, -2.4879794120788574, -1.5657044649124146, -2.2492434978485107, 0.27783203125, -0.162841796875, -0.921630859375
301, 1541201554, -5.199801921844482, 1.6799569129943848, 8.230303764343262, -2.396772861480713, -1.6104114055633545, -2.2672622203826904, 0.28125, -0.162841796875, -0.922119140625
302, 1541218221, -5.194191932678223, 1.651987910270691, 8.219012260437012, -2.338196039199829, -1.4307124614715576, -2.1773226261138916, 0.27978515625, -0.161865234375, -0.922607421875
303, 1541234888, -5.200901985168457, 1.6795791387557983, 8.22919750213623, -2.363783359527588, -1.3966350555419922, -2.2607176303863525, 0.2802734375, -0.161865234375, -0.923583984375
304, 1541251555, -5.218204975128174, 1.6469873189926147, 8.242855072021484, -2.358699321746826, -1.3826375007629395, -2.3256587982177734, 0.28125, -0.162353515625, -0.921875
305, 1541268222, -5.200394153594971, 1.66133451461792, 8.242969512939453, -2.415879487991333, -1.3791671991348267, -2.2480783462524414, 0.28125, -0.162353515625, -0.923095703125
306, 1541284889, -5.215123176574707, 1.6660075187683105, 8.247145652770996, -2.439251184463501, -1.4825910329818726, -2.281707525253296, 0.28125, -0.161865234375, -0.922119140625
307, 1541301556, -5.21326208114624, 1.665420651435852, 8.223665237426758, -2.402663469314575, -1.6624947786331177, -2.2326207160949707, 0.28271484375, -0.163330078125, -0.922607421875
308, 1541318223, -5.203924179077148, 1.6674988269805908, 8.219077110290527, -2.5163071155548096, -1.7580174207687378, -2.2185211181640625, 0.28076171875, -0.163818359375, -0.921875
309, 1541334890, -5.194964408874512, 1.6852635145187378, 8.24003791809082, -2.569223165512085, -1.6517375707626343, -2.3351869583129883, 0.28076171875, -0.162353515625, -0.923583984375
310, 1541351557, -5.193314075469971, 1.6545835733413696, 8.243423461914062, -2.594092607498169, -1.673021674156189, -2.4120118618011475, 0.28076171875, -0.162353515625, -0.921875
311, 1541368224, -5.210785388946533, 1.6498109102249146, 8.243295669555664, -2.5316104888916016, -1.5017493963241577, -2.4358062744140625, 0.2802734375, -0.163330078125, -0.922119140625
312, 1541384891, -5.203255653381348, 1.642303705215454, 8.234066009521484, -2.581824541091919, -1.5890377759933472, -2.3153629302978516, 0.28125, -0.161865234375, -0.921875
313, 1541401558, -5.19445276260376, 1.6497600078582764, 8.235696792602539, -2.432361364364624, -1.5945699214935303, -2.3354556560516357, 0.27880859375, -0.162109375, -0.92138671875
314, 1541418225, -5.2037177085876465, 1.6656036376953125, 8.22889232635498, -2.505293607711792, -1.5096638202667236, -2.2533669471740723, 0.2822265625, -0.161865234375, -0.924560546875
315, 1541434892, -5.205742359161377, 1.665798544883728, 8.24096393585205, -2.469461441040039, -1.4946290254592896, -2.282667875289917, 0.28125, -0.163330078125, -0.923095703125
316, 1541451559, -5.222301483154297, 1.6411261558532715, 8.232528686523438, -2.4187097549438477, -1.6576027870178223, -2.278608560562134, 0.27978515625, -0.163818359375, -0.92138671875
317, 1541468226, -5.1980791091918945, 1.6514532566070557, 8.224686622619629, -2.5359904766082764, -1.588448405265808, -2.177565813064575, 0.2822265625, -0.161865234375, -0.923583984375
318, 1541484893, -5.200121879577637, 1.6526670455932617, 8.217472076416016, -2.3597874641418457, -1.488917350769043, -2.140965461730957, 0.27880859375, -0.162109375, -0.924072265625
319, 1541501560, -5.224538803100586, 1.6653523445129395, 8.235448837280273, -2.4417612552642822, -1.686468243598938, -2.249614715576172, 0.28076171875, -0.1611328125, -0.922119140625
320, 1541518227, -5.209493637084961, 1.6458752155303955, 8.229455947875977, -2.4265475273132324, -1.7025017738342285, -2.284294366836548, 0.28125, -0.162353515625, -0.92138671875
321, 1541534894, -5.19776725769043, 1.6458381414413452, 8.24064826965332, -2.5496931076049805, -1.6577563285827637, -2.226243019104004, 0.28173828125, -0.162841796875, -0.922607421875
322, 1541551561, -5.188777446746826, 1.6569879055023193, 8.257843017578125, -2.4905402660369873, -1.6296463012695312, -2.177757740020752, 0.28076171875, -0.164794921875, -0.923095703125
323, 1541568228, -5.215087413787842, 1.6480289697647095, 8.235527038574219, -2.3598904609680176, -1.6174932718276978, -2.2293550968170166, 0.279296875, -0.16162109375, -0.9287109375
324, 1541584895, -5.198427677154541, 1.6459764242172241, 8.235337257385254, -2.486147880554199, -1.59250807762146, -2.264521360397339, 0.28173828125, -0.163330078125, -0.921875
325, 1541601562, -5.220804691314697, 1.6447454690933228, 8.21497917175293, -2.5141940116882324, -1.533778190612793, -2.2222347259521484, 0.2802734375, -0.161865234375, -0.923095703125
326, 1541618229, -5.216836929321289, 1.6435126066207886, 8.235575675964355, -2.43086314201355, -1.7415868043899536, -2.2295854091644287, 0.2802734375, -0.16162109375, -0.923583984375
327, 1541634896, -5.198042869567871, 1.6648608446121216, 8.23846435546875, -2.443464517593384, -1.6377402544021606, -2.2937071323394775, 0.28125, -0.16015625, -0.923583984375
328, 1541651563, -5.20366907119751, 1.652029037475586, 8.244573593139648, -2.3796632289886475, -1.427780032157898, -2.3031837940216064, 0.28125, -0.162353515625, -0.9208984375
329, 1541668230, -5.206428527832031, 1.6441614627838135, 8.229222297668457, -2.345534086227417, -1.380025029182434, -2.171790599822998, 0.2802734375, -0.162353515625, -0.922607421875
330, 1541684897, -5.217592239379883, 1.6448016166687012, 8.236733436584473, -2.399116039276123, -1.5293728113174438, -2.164567708969116, 0.28125, -0.162353515625, -0.922607421875
331, 1541701564, -5.208801746368408, 1.647419810295105, 8.243810653686523, -2.2746124267578125, -1.485600471496582, -2.2203903198242188, 0.28173828125, -0.162353515625, -0.922607421875
332, 1541718231, -5.208428382873535, 1.6289397478103638, 8.226838111877441, -2.1938300132751465, -1.5330862998962402, -2.0792131423950195, 0.28173828125, -0.162353515625, -0.92236328125
333, 1541734898, -5.204461097717285, 1.649605631828308, 8.232677459716797, -2.0990376472473145, -1.511277198791504, -2.025721311569214, 0.2822265625, -0.161376953125, -0.921875
334, 1541751565, -5.2228474617004395, 1.6743390560150146, 8.250265121459961, -2.1474709510803223, -1.5661396980285645, -2.083132028579712, 0.28125, -0.16162109375, -0.924560546875
335, 1541768232, -5.219756603240967, 1.6528475284576416, 8.24803352355957, -2.410935878753662, -1.4771355390548706, -2.1190667152404785, 0.28076171875, -0.16162109375, -0.923095703125
336, 1541784899, -5.213030815124512, 1.6644259691238403, 8.223835945129395, -2.581158399581909, -1.5888711214065552, -2.3246216773986816, 0.28125, -0.161376953125, -0.922607421875
337, 1541801566, -5.196552276611328, 1.6469815969467163, 8.242426872253418, -2.4173521995544434, -1.673085331916809, -2.311251401901245, 0.2822265625, -0.162353515625, -0.923095703125
338, 1541818233, -5.2218523025512695, 1.6917104721069336, 8.22385311126709, -2.5795068740844727, -1.5206005573272705, -2.395172119140625, 0.28125, -0.15966796875, -0.922119140625
339, 1541834900, -5.225644588470459, 1.6470744609832764, 8.25500774383545, -2.552574872970581, -1.7127854824066162, -2.4154186248779297, 0.28076171875, -0.16162109375, -0.925048828125
340, 1541851567, -5.202591419219971, 1.6415618658065796, 8.212729454040527, -2.51615309715271, -1.6458336114883423, -2.279824733734131, 0.28125, -0.16162109375, -0.924072265625
341, 1541868234, -5.197727680206299, 1.6469143629074097, 8.20716667175293, -2.4552462100982666, -1.5570729970932007, -2.2149863243103027, 0.284423828125, -0.15966796875, -0.923095703125
342, 1541884901, -5.215966701507568, 1.6349669694900513, 8.226496696472168, -2.523120164871216, -1.6033679246902466, -2.234989881515503, 0.28271484375, -0.1611328125, -0.923583984375
343, 1541901568, -5.220528602600098, 1.6410859823226929, 8.235268592834473, -2.505882740020752, -1.6877745389938354, -2.183150053024292, 0.28173828125, -0.1611328125, -0.923583984375
344, 1541918235, -5.224266529083252, 1.634415626525879, 8.240936279296875, -2.3598902225494385, -1.6782594919204712, -2.1191437244415283, 0.28125, -0.15966796875, -0.922607421875
345, 1541934902, -5.206686019897461, 1.6576701402664185, 8.24779987335205, -2.381507158279419, -1.557392954826355, -2.0515899658203125, 0.2822265625, -0.15966796875, -0.922607421875
346, 1541951569, -5.197901248931885, 1.6612359285354614, 8.226103782653809, -2.366229295730591, -1.4681198596954346, -2.224475622177124, 0.28271484375, -0.15869140625, -0.923095703125
347, 1541968236, -5.2121758460998535, 1.637498378753662, 8.216050148010254, -2.459446907043457, -1.4811952114105225, -2.328489065170288, 0.28125, -0.16064453125, -0.922607421875
348, 1541984903, -5.211000919342041, 1.649187684059143, 8.218637466430664, -2.393327474594116, -1.534482479095459, -2.417711019515991, 0.28173828125, -0.16015625, -0.923095703125
349, 1542001570, -5.229581832885742, 1.6257351636886597, 8.234129905700684, -2.344189405441284, -1.5361472368240356, -2.262446641921997, 0.283203125, -0.16015625, -0.923583984375
350, 1542018237, -5.221107006072998, 1.638882040977478, 8.248568534851074, -2.3630917072296143, -1.5454447269439697, -2.266019582748413, 0.28173828125, -0.161376953125, -0.922119140625
351, 1542034904, -5.216069221496582, 1.6716480255126953, 8.242942810058594, -2.3742971420288086, -1.498227596282959, -2.2682220935821533, 0.28271484375, -0.161865234375, -0.922607421875
352, 1542051571, -5.217675685882568, 1.6542251110076904, 8.222112655639648, -2.4211301803588867, -1.5648592710494995, -2.3435752391815186, 0.28125, -0.1611328125, -0.923095703125
353, 1542068238, -5.226980686187744, 1.673619270324707, 8.204758644104004, -2.5162432193756104, -1.660356044769287, -2.3379528522491455, 0.28125, -0.162353515625, -0.922119140625
354, 1542084905, -5.188714981079102, 1.6369237899780273, 8.252946853637695, -2.5246822834014893, -1.606223702430725, -2.333995819091797, 0.284912109375, -0.160888671875, -0.92236328125
355, 1542101572, -5.204539775848389, 1.6230953931808472, 8.227898597717285, -2.331357717514038, -1.4853061437606812, -2.2727813720703125, 0.283203125, -0.162353515625, -0.92041015625
356, 1542118239, -5.217611312866211, 1.6276055574417114, 8.22468376159668, -2.2578234672546387, -1.3259822130203247, -2.2089927196502686, 0.28076171875, -0.16015625, -0.921630859375
357, 1542134906, -5.232151985168457, 1.6500056982040405, 8.213869094848633, -2.2488975524902344, -1.3390446901321411, -2.13981294631958, 0.28125, -0.16015625, -0.924560546875
358, 1542151573, -5.227020263671875, 1.6310920715332031, 8.220111846923828, -2.2409958839416504, -1.4581820964813232, -2.2061243057250977, 0.28271484375, -0.1611328125, -0.923583984375
359, 1542168240, -5.212492942810059, 1.6561660766601562, 8.23637580871582, -2.2860872745513916, -1.4678126573562622, -2.254570960998535, 0.283203125, -0.16064453125, -0.921875
360, 1542184907, -5.212549686431885, 1.6438020467758179, 8.24236011505127, -2.3921620845794678, -1.5808671712875366, -2.155052661895752, 0.28369140625, -0.161865234375, -0.923583984375
361, 1542201574, -5.215420722961426, 1.646239161491394, 8.23366928100586, -2.397348642349243, -1.5619136095046997, -2.149916887283325, 0.28125, -0.1591796875, -0.919921875
362, 1542218241, -5.209267616271973, 1.6559629440307617, 8.221240997314453, -2.3670105934143066, -1.5631558895111084, -2.2156264781951904, 0.28173828125, -0.16015625, -0.923583984375
363, 1542234908, -5.2119340896606445, 1.6403334140777588, 8.218462944030762, -2.3793299198150635, -1.4702584743499756, -2.260499954223633, 0.28369140625, -0.161376953125, -0.923583984375
364, 1542251575, -5.203261852264404, 1.6356499195098877, 8.24484634399414, -2.4077603816986084, -1.5044516324996948, -2.254711627960205, 0.28271484375, -0.16064453125, -0.9208984375
365, 1542268242, -5.2291259765625, 1.6454253196716309, 8.19972038269043, -2.494356870651245, -1.4829626083374023, -2.36159348487854, 0.28271484375, -0.16015625, -0.923095703125
366, 1542284909, -5.212090492248535, 1.614514708518982, 8.221634864807129, -2.4642105102539062, -1.544023036956787, -2.239996910095215, 0.2822265625, -0.15869140625, -0.921875
367, 1542301576, -5.207845211029053, 1.6526402235031128, 8.226958274841309, -2.48107647895813, -1.5866427421569824, -2.209568977355957, 0.283203125, -0.160888671875, -0.92236328125
368, 1542318243, -5.235058307647705, 1.630204200744629, 8.232836723327637, -2.419952154159546, -1.5428706407546997, -2.209479570388794, 0.283203125, -0.16064453125, -0.92041015625
369, 1542334910, -5.228307247161865, 1.6382765769958496, 8.221883773803711, -2.2867915630340576, -1.5622978210449219, -2.206892728805542, 0.28076171875, -0.16162109375, -0.922607421875
370, 1542351577, -5.230412483215332, 1.6536153554916382, 8.209473609924316, -2.3114564418792725, -1.618543267250061, -2.1203982830047607, 0.28369140625, -0.1591796875, -0.923095703125
371, 1542368244, -5.213162899017334, 1.6558599472045898, 8.218302726745605, -2.2609994411468506, -1.7008498907089233, -2.0323421955108643, 0.283203125, -0.162353515625, -0.924560546875
372, 1542384911, -5.212425708770752, 1.6462831497192383, 8.213238716125488, -2.1842894554138184, -1.5263758897781372, -2.121307849884033, 0.2822265625, -0.161376953125, -0.923095703125
373, 1542401578, -5.207788944244385, 1.672911286354065, 8.22685432434082, -2.36820125579834, -1.5107522010803223, -2.201885223388672, 0.28125, -0.162841796875, -0.923095703125
374, 1542418245, -5.2250261306762695, 1.6505763530731201, 8.213543891906738, -2.457166910171509, -1.5827367305755615, -2.2756497859954834, 0.2822265625, -0.161376953125, -0.92138671875
375, 1542434912, -5.232522964477539, 1.6421573162078857, 8.225085258483887, -2.2467970848083496, -1.5370948314666748, -2.2343878746032715, 0.28271484375, -0.162353515625, -0.923095703125
376, 1542451579, -5.204260349273682, 1.6396558284759521, 8.20251750946045, -2.3210487365722656, -1.5334707498550415, -2.2574779987335205, 0.283447265625, -0.162841796875, -0.92236328125
377, 1542468246, -5.218560218811035, 1.6443586349487305, 8.212116241455078, -2.2724738121032715, -1.4587072134017944, -2.1442182064056396, 0.283935546875, -0.161376953125, -0.923583984375
378, 1542484913, -5.239772796630859, 1.649674892425537, 8.222345352172852, -2.32209849357605, -1.6022151708602905, -2.304438352584839, 0.283447265625, -0.161865234375, -0.919921875
379, 1542501580, -5.224764347076416, 1.6534801721572876, 8.207801818847656, -2.354165554046631, -1.582570195198059, -2.1902058124542236, 0.2822265625, -0.161865234375, -0.92138671875
380, 1542518247, -5.226897239685059, 1.6606532335281372, 8.225739479064941, -2.3128910064697266, -1.6432340145111084, -2.1839823722839355, 0.283203125, -0.161865234375, -0.922607421875
381, 1542534914, -5.208735942840576, 1.6484341621398926, 8.214783668518066, -2.3984241485595703, -1.6176466941833496, -2.2897753715515137, 0.2802734375, -0.161865234375, -0.921875
382, 1542551581, -5.222560882568359, 1.641710877418518, 8.22235107421875, -2.3245959281921387, -1.5213303565979004, -2.3157851696014404, 0.2802734375, -0.1591796875, -0.92138671875
383, 1542568248, -5.2296929359436035, 1.640769124031067, 8.221402168273926, -2.2380120754241943, -1.5632966756820679, -2.147035598754883, 0.28271484375, -0.16064453125, -0.92041015625
384, 1542584915, -5.229428768157959, 1.6473757028579712, 8.216772079467773, -2.2290732860565186, -1.4605387449264526, -2.069121837615967, 0.283935546875, -0.16015625, -0.923095703125
385, 1542601582, -5.213489055633545, 1.6604598760604858, 8.208041191101074, -2.2328765392303467, -1.529884934425354, -2.1381993293762207, 0.283935546875, -0.15966796875, -0.921875
386, 1542618249, -5.2398505210876465, 1.6487371921539307, 8.220224380493164, -2.310060739517212, -1.644476294517517, -2.1912946701049805, 0.28173828125, -0.164306640625, -0.923095703125
387, 1542634916, -5.220440864562988, 1.6424942016601562, 8.224512100219727, -2.3191144466400146, -1.671138882637024, -2.0945041179656982, 0.2822265625, -0.161376953125, -0.923095703125
388, 1542651583, -5.221795082092285, 1.6300944089889526, 8.216533660888672, -2.378664255142212, -1.6654400825500488, -2.0822227001190186, 0.2822265625, -0.1611328125, -0.923583984375
389, 1542668250, -5.23029088973999, 1.6399372816085815, 8.215807914733887, -2.383082389831543, -1.7361056804656982, -1.9949860572814941, 0.284423828125, -0.16064453125, -0.9228515625
390, 1542684917, -5.217926502227783, 1.6651006937026978, 8.24450397491455, -2.419759750366211, -1.6352810859680176, -2.115147829055786, 0.283935546875, -0.161376953125, -0.92236328125
391, 1542701584, -5.228250503540039, 1.655308723449707, 8.228013038635254, -2.3777551651000977, -1.6123195886611938, -2.2562355995178223, 0.283203125, -0.161865234375, -0.92236328125
392, 1542718251, -5.252623558044434, 1.62798011302948, 8.218332290649414, -2.3010833263397217, -1.6999660730361938, -2.095503091812134, 0.2841796875, -0.16015625, -0.926513671875
393, 1542734918, -5.225897789001465, 1.6485766172409058, 8.219136238098145, -2.322239398956299, -1.6523135900497437, -2.0720160007476807, 0.283935546875, -0.162353515625, -0.92236328125
394, 1542751585, -5.214432239532471, 1.628411889076233, 8.224167823791504, -2.2692339420318604, -1.6660035848617554, -2.0074594020843506, 0.28271484375, -0.158203125, -0.92138671875
395, 1542768252, -5.21162223815918, 1.6484479904174805, 8.206483840942383, -2.218789577484131, -1.7629220485687256, -2.047607183456421, 0.2822265625, -0.1591796875, -0.924560546875
396, 1542784919, -5.241093635559082, 1.6329938173294067, 8.211319923400879, -2.1521453857421875, -1.8021477460861206, -1.9354747533798218, 0.283203125, -0.160888671875, -0.923095703125
397, 1542801586, -5.215881824493408, 1.6491047143936157, 8.232542037963867, -2.137866258621216, -1.8468035459518433, -1.840169906616211, 0.28369140625, -0.16064453125, -0.923095703125
398, 1542818253, -5.208116054534912, 1.6547026634216309, 8.22100830078125, -2.1746206283569336, -1.7661746740341187, -1.9039711952209473, 0.283935546875, -0.161865234375, -0.92138671875
399, 1542834920, -5.22605037689209, 1.6566064357757568, 8.236202239990234, -2.2029359340667725, -1.6800140142440796, -2.0477609634399414, 0.28271484375, -0.161865234375, -0.924560546875
400, 1542851587, -5.22670841217041, 1.642386794090271, 8.246610641479492, -2.281284809112549, -1.7027065753936768, -2.081479787826538, 0.28271484375, -0.162353515625, -0.921875
401, 1542868254, -5.214696407318115, 1.628508448600769, 8.225275993347168, -2.1854677200317383, -1.7790709733963013, -2.0355823040008545, 0.283935546875, -0.164306640625, -0.923583984375
402, 1542884921, -5.203819274902344, 1.6477450132369995, 8.234554290771484, -2.1780402660369873, -1.7521008253097534, -1.9869437217712402, 0.2822265625, -0.162353515625, -0.921875
403, 1542901588, -5.220752716064453, 1.660996675491333, 8.232647895812988, -2.11738920211792, -1.5710701942443848, -2.0585691928863525, 0.28271484375, -0.161865234375, -0.92138671875
404, 1542918255, -5.228904724121094, 1.6627686023712158, 8.227150917053223, -2.2098121643066406, -1.4663141965866089, -2.068392038345337, 0.283203125, -0.161376953125, -0.923583984375
405, 1542934922, -5.236991882324219, 1.6650350093841553, 8.226835250854492, -2.186696767807007, -1.5551389455795288, -2.1683194637298584, 0.2802734375, -0.16064453125, -0.921630859375
406, 1542951589, -5.224340438842773, 1.6660487651824951, 8.220134735107422, -2.3200368881225586, -1.6110389232635498, -2.175389289855957, 0.284423828125, -0.161865234375, -0.9228515625
407, 1542968256, -5.22354793548584, 1.6421552896499634, 8.224699974060059, -2.339233636856079, -1.7614494562149048, -2.0363759994506836, 0.283447265625, -0.161865234375, -0.9208984375
408, 1542984923, -5.1933698654174805, 1.6709513664245605, 8.235745429992676, -2.273664712905884, -1.492221474647522, -2.2284841537475586, 0.285400390625, -0.161865234375, -0.92236328125
409, 1543001590, -5.230251789093018, 1.6479295492172241, 8.217816352844238, -2.280413866043091, -1.3999131917953491, -2.2451579570770264, 0.283203125, -0.16015625, -0.923583984375
410, 1543018257, -5.233423233032227, 1.6417887210845947, 8.218720436096191, -2.1379172801971436, -1.3823813199996948, -2.151376962661743, 0.284423828125, -0.16015625, -0.92236328125
411, 1543034924, -5.223589897155762, 1.6521052122116089, 8.202862739562988, -2.2117717266082764, -1.4677869081497192, -2.0866153240203857, 0.28271484375, -0.162353515625, -0.92236328125
412, 1543051591, -5.232784271240234, 1.6467292308807373, 8.215375900268555, -2.1444616317749023, -1.5740156173706055, -2.1128554344177246, 0.283935546875, -0.163330078125, -0.921875
413, 1543068258, -5.222602367401123, 1.6672186851501465, 8.221339225769043, -2.137315511703491, -1.6059802770614624, -2.1115622520446777, 0.283203125, -0.161865234375, -0.92138671875
414, 1543084925, -5.230497360229492, 1.6560242176055908, 8.220115661621094, -2.004577875137329, -1.5700328350067139, -2.076498508453369, 0.283203125, -0.16015625, -0.923583984375
415, 1543101592, -5.236517429351807, 1.6367992162704468, 8.199265480041504, -1.9963945150375366, -1.621578335762024, -2.1238176822662354, 0.283935546875, -0.161376953125, -0.92236328125
416, 1543118259, -5.248622417449951, 1.6406720876693726, 8.224526405334473, -2.1970064640045166, -1.5290783643722534, -2.063218355178833, 0.284423828125, -0.160888671875, -0.92041015625
417, 1543134926, -5.225613117218018, 1.6461825370788574, 8.218733787536621, -2.1963913440704346, -1.730445146560669, -1.9625729322433472, 0.285400390625, -0.162353515625, -0.921875
418, 1543151593, -5.233703136444092, 1.655203938484192, 8.228999137878418, -2.2897753715515137, -1.7693766355514526, -2.052025556564331, 0.283203125, -0.162841796875, -0.923095703125
419, 1543168260, -5.220980644226074, 1.642184853553772, 8.216653823852539, -2.3092665672302246, -1.6805003881454468, -2.0581722259521484, 0.28369140625, -0.162353515625, -0.9228515625
420, 1543184927, -5.231679916381836, 1.6444224119186401, 8.233928680419922, -2.314260959625244, -1.7833096981048584, -2.0014915466308594, 0.2841796875, -0.161865234375, -0.927001953125
421, 1543201594, -5.211085796356201, 1.6728754043579102, 8.256855964660645, -2.2827060222625732, -1.6553999185562134, -2.015796184539795, 0.284423828125, -0.16015625, -0.9208984375
422, 1543218261, -5.232231140136719, 1.6559741497039795, 8.22433090209961, -2.3131980895996094, -1.6232430934906006, -2.137136220932007, 0.283203125, -0.161376953125, -0.921875
423, 1543234928, -5.239915370941162, 1.6452207565307617, 8.231642723083496, -2.1786160469055176, -1.759682059288025, -2.044034242630005, 0.283935546875, -0.160888671875, -0.92236328125
424, 1543251595, -5.236398220062256, 1.649774432182312, 8.22724723815918, -2.275188684463501, -1.7505383491516113, -2.1042239665985107, 0.283203125, -0.16064453125, -0.923583984375
425, 1543268262, -5.22277307510376, 1.6563341617584229, 8.214516639709473, -2.133768081665039, -1.728562831878662, -1.9015507698059082, 0.2822265625, -0.161376953125, -0.92236328125
426, 1543284929, -5.211065769195557, 1.6532825231552124, 8.206642150878906, -2.1537718772888184, -1.7203408479690552, -1.9996473789215088, 0.283447265625, -0.161865234375, -0.9208984375
427, 1543301596, -5.219082832336426, 1.6672285795211792, 8.222249031066895, -2.1884512901306152, -1.65765380859375, -2.0794565677642822, 0.283935546875, -0.164306640625, -0.921875
428, 1543318263, -5.234488010406494, 1.6588457822799683, 8.228363037109375, -2.2401504516601562, -1.7433923482894897, -2.1060423851013184, 0.28125, -0.1611328125, -0.923095703125
429, 1543334930, -5.228641510009766, 1.6559268236160278, 8.21914291381836, -2.2530980110168457, -1.8284907341003418, -2.0293710231781006, 0.283447265625, -0.162353515625, -0.92041015625
430, 1543351597, -5.218447685241699, 1.6478164196014404, 8.212068557739258, -2.1345114707946777, -1.8780256509780884, -2.0258750915527344, 0.283935546875, -0.163818359375, -0.921875
431, 1543368264, -5.21966028213501, 1.6554027795791626, 8.228503227233887, -2.149686574935913, -1.7691330909729004, -2.0760116577148438, 0.2822265625, -0.164306640625, -0.92236328125
432, 1543384931, -5.204372882843018, 1.6776115894317627, 8.215747833251953, -2.1772334575653076, -1.6262272596359253, -2.2265121936798096, 0.283203125, -0.160888671875, -0.923583984375
433, 1543401598, -5.222188472747803, 1.6551960706710815, 8.221372604370117, -2.278428792953491, -1.4659556150436401, -2.2329790592193604, 0.2822265625, -0.163330078125, -0.923583984375
434, 1543418265, -5.2524614334106445, 1.6564817428588867, 8.202598571777344, -2.1877598762512207, -1.5694820880889893, -2.1204752922058105, 0.28271484375, -0.162353515625, -0.923095703125
435, 1543434932, -5.215729713439941, 1.6716049909591675, 8.23013973236084, -2.3051555156707764, -1.7735257148742676, -2.1219351291656494, 0.283203125, -0.163818359375, -0.92041015625
436, 1543451599, -5.206789970397949, 1.6625629663467407, 8.238630294799805, -2.2665317058563232, -1.6409543752670288, -2.1086935997009277, 0.283935546875, -0.163330078125, -0.9228515625
437, 1543468266, -5.236824035644531, 1.6662577390670776, 8.22634220123291, -2.319972515106201, -1.4161516427993774, -2.172725200653076, 0.28125, -0.162841796875, -0.921875
438, 1543484933, -5.245350360870361, 1.6570281982421875, 8.202350616455078, -2.3329710960388184, -1.637022852897644, -2.1320908069610596, 0.284912109375, -0.163818359375, -0.923583984375
439, 1543501600, -5.231597423553467, 1.67231285572052, 8.226572036743164, -2.2885589599609375, -1.8055930137634277, -2.0596578121185303, 0.283203125, -0.161376953125, -0.924560546875
440, 1543518267, -5.212191104888916, 1.6635513305664062, 8.211930274963379, -2.3026201725006104, -1.8749650716781616, -2.0501811504364014, 0.283447265625, -0.163330078125, -0.92138671875
441, 1543534934, -5.209968090057373, 1.6715000867843628, 8.238487243652344, -2.2807343006134033, -1.7798779010772705, -2.1280057430267334, 0.284423828125, -0.162841796875, -0.921875
442, 1543551601, -5.227065563201904, 1.665380597114563, 8.242074012756348, -2.1208086013793945, -1.5940319299697876, -2.1704840660095215, 0.283203125, -0.161865234375, -0.921875
443, 1543568268, -5.238579750061035, 1.6579370498657227, 8.242100715637207, -2.209902048110962, -1.7423549890518188, -2.01723051071167, 0.285400390625, -0.162841796875, -0.92138671875
444, 1543584935, -5.204135417938232, 1.6841906309127808, 8.235639572143555, -2.237154006958008, -1.6719073057174683, -1.9444775581359863, 0.285400390625, -0.163818359375, -0.923583984375
445, 1543601602, -5.224375247955322, 1.683778166770935, 8.229071617126465, -2.3491201400756836, -1.7578765153884888, -2.128300189971924, 0.283447265625, -0.164306640625, -0.9208984375
446, 1543618269, -5.211338043212891, 1.6788382530212402, 8.214776992797852, -2.5478103160858154, -1.6382266283035278, -2.219276189804077, 0.283203125, -0.162353515625, -0.9208984375
447, 1543634936, -5.213813304901123, 1.668076515197754, 8.242795944213867, -2.4180052280426025, -1.7247974872589111, -2.131629705429077, 0.28369140625, -0.162353515625, -0.9228515625
448, 1543651603, -5.230982303619385, 1.649819254875183, 8.236584663391113, -2.4295310974121094, -1.683433175086975, -2.18650484085083, 0.28369140625, -0.163818359375, -0.9287109375
449, 1543668270, -5.233028411865234, 1.6612286567687988, 8.207447052001953, -2.355036973953247, -1.7386029958724976, -2.0273478031158447, 0.283203125, -0.162841796875, -0.921875
450, 1543684937, -5.213305473327637, 1.6579554080963135, 8.240861892700195, -2.4242420196533203, -1.776689052581787, -2.048823833465576, 0.2822265625, -0.161865234375, -0.921875
451, 1543701604, -5.2180986404418945, 1.6679600477218628, 8.204864501953125, -2.364346981048584, -1.8489552736282349, -1.9576427936553955, 0.283935546875, -0.161865234375, -0.923095703125
452, 1543718271, -5.225120544433594, 1.6708214282989502, 8.242673873901367, -2.3095357418060303, -1.8440375328063965, -2.1238691806793213, 0.284423828125, -0.163818359375, -0.92333984375
453, 1543734938, -5.2242207527160645, 1.6561146974563599, 8.243330955505371, -2.361029863357544, -1.8613005876541138, -2.127006769180298, 0.283935546875, -0.164306640625, -0.9208984375
454, 1543751605, -5.214662551879883, 1.6577211618423462, 8.231886863708496, -2.375206708908081, -1.8695863485336304, -2.126366376876831, 0.28173828125, -0.161376953125, -0.924560546875
455, 1543768272, -5.207319736480713, 1.6759971380233765, 8.204401969909668, -2.3812379837036133, -1.6548619270324707, -2.0572245121002197, 0.283203125, -0.164306640625, -0.923583984375
456, 1543784939, -5.203466892242432, 1.672006368637085, 8.2565279006958, -2.405327081680298, -1.7522544860839844, -2.1217944622039795, 0.285888671875, -0.162841796875, -0.92138671875
457, 1543801606, -5.200687885284424, 1.6775617599487305, 8.216285705566406, -2.395210027694702, -1.800790548324585, -2.1943936347961426, 0.283203125, -0.161865234375, -0.92138671875
458, 1543818273, -5.2173566818237305, 1.686531901359558, 8.240567207336426, -2.494062900543213, -1.7905328273773193, -2.327925682067871, 0.28125, -0.16064453125, -0.921875
459, 1543834940, -5.221754550933838, 1.6266895532608032, 8.222331047058105, -2.4580187797546387, -1.772494912147522, -2.1452622413635254, 0.283203125, -0.163818359375, -0.923095703125
460, 1543851607, -5.215320110321045, 1.6678197383880615, 8.241311073303223, -2.4913856983184814, -1.8597768545150757, -2.040436029434204, 0.28271484375, -0.163330078125, -0.922607421875
461, 1543868274, -5.233883380889893, 1.6697574853897095, 8.204524040222168, -2.5616674423217773, -1.943901777267456, -2.0909314155578613, 0.28369140625, -0.161376953125, -0.922607421875
462, 1543884941, -5.2194013595581055, 1.6372041702270508, 8.228445053100586, -2.4659016132354736, -2.0834908485412598, -2.0703513622283936, 0.28271484375, -0.16064453125, -0.921875
463, 1543901608, -5.2189621925354, 1.6545048952102661, 8.205056190490723, -2.371774196624756, -2.102174758911133, -1.9395856857299805, 0.283935546875, -0.160888671875, -0.921875
464, 1543918275, -5.211094379425049, 1.6692490577697754, 8.237343788146973, -2.238114595413208, -1.9033564329147339, -1.8720449209213257, 0.2822265625, -0.162353515625, -0.921875
465, 1543934942, -5.204908847808838, 1.6622744798660278, 8.233211517333984, -2.0836315155029297, -1.6745327711105347, -1.8645023107528687, 0.283203125, -0.162353515625, -0.922607421875
466, 1543951609, -5.206739902496338, 1.672980785369873, 8.238901138305664, -2.088088035583496, -1.7018613815307617, -1.9093496799468994, 0.28369140625, -0.162353515625, -0.924072265625
467, 1543968276, -5.234722137451172, 1.6541287899017334, 8.231208801269531, -2.061399459838867, -1.701054573059082, -1.863631248474121, 0.28076171875, -0.163330078125, -0.9208984375
468, 1543984943, -5.223607063293457, 1.6459091901779175, 8.216376304626465, -2.074193239212036, -2.041114330291748, -1.782554268836975, 0.28173828125, -0.163818359375, -0.9208984375
469, 1544001610, -5.194401741027832, 1.6653482913970947, 8.243614196777344, -2.0988199710845947, -2.0716960430145264, -1.7020024061203003, 0.283203125, -0.161865234375, -0.922607421875
470, 1544018277, -5.2052903175354, 1.6562060117721558, 8.246356010437012, -2.0965914726257324, -2.0908284187316895, -1.708341360092163, 0.28076171875, -0.165283203125, -0.919921875
471, 1544034944, -5.196850299835205, 1.695218563079834, 8.246838569641113, -2.155820846557617, -1.9672985076904297, -1.7465810775756836, 0.28173828125, -0.164306640625, -0.921875
472, 1544051611, -5.197609901428223, 1.6916046142578125, 8.235416412353516, -2.182368516921997, -1.8143140077590942, -1.969053030014038, 0.28173828125, -0.164306640625, -0.922607421875
473, 1544068278, -5.201029300689697, 1.6773037910461426, 8.246502876281738, -2.220249652862549, -1.7554177045822144, -2.058838367462158, 0.28076171875, -0.162841796875, -0.924072265625
474, 1544084945, -5.207520008087158, 1.6962096691131592, 8.218732833862305, -2.281374454498291, -1.5745407342910767, -2.054023504257202, 0.28125, -0.162841796875, -0.922607421875
475, 1544101612, -5.193741798400879, 1.6809476613998413, 8.227359771728516, -2.311469316482544, -1.7461968660354614, -2.1830215454101562, 0.28125, -0.164794921875, -0.92138671875
476, 1544118279, -5.208996772766113, 1.6789453029632568, 8.219914436340332, -2.5414974689483643, -1.7236709594726562, -2.2640347480773926, 0.28076171875, -0.16162109375, -0.921875
477, 1544134946, -5.196390151977539, 1.6649105548858643, 8.232365608215332, -2.444425106048584, -1.858816385269165, -2.248795509338379, 0.28125, -0.16064453125, -0.92041015625
478, 1544151613, -5.217584133148193, 1.658145546913147, 8.252158164978027, -2.4273154735565186, -1.8476616144180298, -2.1488029956817627, 0.28173828125, -0.162841796875, -0.9208984375
479, 1544168280, -5.208423137664795, 1.6676090955734253, 8.229536056518555, -2.2844865322113037, -1.9035872220993042, -2.0490031242370605, 0.28173828125, -0.163330078125, -0.923583984375
480, 1544184947, -5.195830345153809, 1.6841410398483276, 8.239477157592773, -2.3844528198242188, -1.852643370628357, -2.0330593585968018, 0.28125, -0.162353515625, -0.922607421875
481, 1544201614, -5.201172828674316, 1.6938159465789795, 8.235856056213379, -2.3090362548828125, -1.6920133829116821, -2.0870256423950195, 0.28076171875, -0.162841796875, -0.923095703125
482, 1544218281, -5.205300807952881, 1.6789981126785278, 8.209807395935059, -2.428365707397461, -1.6257790327072144, -2.1329360008239746, 0.28271484375, -0.164306640625, -0.9228515625
483, 1544234948, -5.2004570960998535, 1.6683694124221802, 8.206714630126953, -2.3401682376861572, -1.7010289430618286, -2.197338819503784, 0.2802734375, -0.161865234375, -0.922607421875
484, 1544251615, -5.187244415283203, 1.6752809286117554, 8.241405487060547, -2.2858693599700928, -1.5403093099594116, -2.1823043823242188, 0.283935546875, -0.161376953125, -0.9228515625
485, 1544268282, -5.212229251861572, 1.6897330284118652, 8.218299865722656, -2.3984375, -1.4403941631317139, -2.3178598880767822, 0.28173828125, -0.162353515625, -0.922607421875
486, 1544284949, -5.204427242279053, 1.6656054258346558, 8.211709022521973, -2.4390206336975098, -1.4589505195617676, -2.3592114448547363, 0.28173828125, -0.164794921875, -0.923583984375
487, 1544301616, -5.216981410980225, 1.6684950590133667, 8.224913597106934, -2.4632630348205566, -1.5398483276367188, -2.323955774307251, 0.28125, -0.162353515625, -0.925048828125
488, 1544318283, -5.221207618713379, 1.662847876548767, 8.238517761230469, -2.444629430770874, -1.5568294525146484, -2.1852755546569824, 0.2822265625, -0.163330078125, -0.923583984375
489, 1544334950, -5.230711460113525, 1.6703338623046875, 8.22606372833252, -2.4643642902374268, -1.6437077522277832, -2.1565890312194824, 0.2802734375, -0.163818359375, -0.925048828125
490, 1544351617, -5.211671829223633, 1.6791573762893677, 8.230069160461426, -2.439532518386841, -1.7816193103790283, -2.2606663703918457, 0.2822265625, -0.163330078125, -0.923095703125
491, 1544368284, -5.214024066925049, 1.6625386476516724, 8.23294734954834, -2.5193417072296143, -1.7047171592712402, -2.103724479675293, 0.28173828125, -0.163818359375, -0.92041015625
492, 1544384951, -5.198462009429932, 1.6534377336502075, 8.227890014648438, -2.418748378753662, -1.694523572921753, -2.1275830268859863, 0.28271484375, -0.162841796875, -0.921875
493, 1544401618, -5.219869613647461, 1.6556451320648193, 8.211783409118652, -2.4273154735565186, -1.699082374572754, -2.089432716369629, 0.28125, -0.163330078125, -0.921875
494, 1544418285, -5.221299648284912, 1.6598901748657227, 8.243793487548828, -2.326209306716919, -1.8117271661758423, -1.9839723110198975, 0.28125, -0.1611328125, -0.923095703125
495, 1544434952, -5.231452465057373, 1.668684720993042, 8.23067855834961, -2.407325029373169, -1.8495444059371948, -1.931569218635559, 0.2802734375, -0.162841796875, -0.921875
496, 1544451619, -5.220329284667969, 1.661418080329895, 8.240189552307129, -2.4054808616638184, -2.136713981628418, -1.864681601524353, 0.28125, -0.161865234375, -0.92138671875
497, 1544468286, -5.220444679260254, 1.659316062927246, 8.261173248291016, -2.3699302673339844, -2.1910128593444824, -1.8122906684875488, 0.283447265625, -0.164306640625, -0.92236328125
498, 1544484953, -5.213036060333252, 1.6732717752456665, 8.248120307922363, -2.382237195968628, -2.1576778888702393, -1.6887606382369995, 0.28125, -0.161865234375, -0.92138671875
499, 1544501620, -5.256348133087158, 1.625622034072876, 8.26849365234375, -2.3014161586761475, -2.177950382232666, -1.5206259489059448, 0.2783203125, -0.164794921875, -0.922607421875
500, 1544518287, -5.1831865310668945, 1.67256498336792, 8.20246410369873, -2.4595749378204346, -2.546222686767578, -1.1784147024154663, 0.28125, -0.163818359375, -0.92236328125
501, 1544534954, -5.186587333679199, 1.7214523553848267, 8.213470458984375, -2.6684465408325195, -2.4635705947875977, -1.4861129522323608, 0.27978515625, -0.163330078125, -0.924072265625
502, 1544551621, -5.187217712402344, 1.6901676654815674, 8.245762825012207, -2.5157053470611572, -2.2800941467285156, -1.7324559688568115, 0.2783203125, -0.162841796875, -0.922119140625
503, 1544568288, -5.186063289642334, 1.653439998626709, 8.25412368774414, -2.350067377090454, -1.9999163150787354, -1.5723507404327393, 0.279296875, -0.164306640625, -0.925048828125
504, 1544584955, -5.219366073608398, 1.6646782159805298, 8.256855010986328, -2.1919732093811035, -1.9987767934799194, -1.6143429279327393, 0.28076171875, -0.162841796875, -0.923583984375
505, 1544601622, -5.2210307121276855, 1.6568561792373657, 8.253910064697266, -2.012479543685913, -1.829861044883728, -1.31499445438385, 0.28076171875, -0.162353515625, -0.924560546875
506, 1544618289, -5.249926567077637, 1.611854076385498, 8.225092887878418, -1.7585550546646118, -1.8565363883972168, -1.04630446434021, 0.277587890625, -0.165283203125, -0.924560546875
507, 1544634956, -5.239358901977539, 1.6079022884368896, 8.254581451416016, -1.4177782535552979, -2.2431347370147705, -0.38722559809684753, 0.27783203125, -0.162353515625, -0.921630859375
508, 1544651623, -5.180630683898926, 1.7289613485336304, 8.229994773864746, -1.3723925352096558, -2.5096092224121094, -0.259917676448822, 0.27978515625, -0.164794921875, -0.924560546875
509, 1544668290, -5.177749156951904, 1.7306314706802368, 8.280076026916504, -1.4901340007781982, -2.5097241401672363, -0.6420720219612122, 0.279296875, -0.163818359375, -0.922119140625
510, 1544684957, -5.200085163116455, 1.6840320825576782, 8.24028205871582, -1.4238101243972778, -2.34424090385437, -0.7057835459709167, 0.27880859375, -0.166748046875, -0.925048828125
511, 1544701624, -5.214197635650635, 1.6826621294021606, 8.237567901611328, -1.2794312238693237, -2.41247296333313, -0.6234003305435181, 0.277587890625, -0.165283203125, -0.922119140625
512, 1544718291, -5.179057598114014, 1.7070266008377075, 8.24521541595459, -1.340235710144043, -2.4604969024658203, -0.48935627937316895, 0.277587890625, -0.164794921875, -0.922607421875
513, 1544734958, -5.164539337158203, 1.7093449831008911, 8.24026107788086, -1.4634838104248047, -2.425355911254883, -0.6373975872993469, 0.2783203125, -0.167236328125, -0.924560546875
514, 1544751625, -5.167031764984131, 1.6904983520507812, 8.235173225402832, -1.359419584274292, -2.3283607959747314, -0.7252363562583923, 0.276611328125, -0.168212890625, -0.922607421875
515, 1544768292, -5.1574931144714355, 1.7188224792480469, 8.221837997436523, -1.2855141162872314, -2.1356635093688965, -0.6120922565460205, 0.278076171875, -0.166748046875, -0.923095703125
516, 1544784959, -5.156460285186768, 1.743415117263794, 8.231842994689941, -1.4596678018569946, -2.3645389080047607, -0.7396947145462036, 0.276611328125, -0.168212890625, -0.922607421875
517, 1544801626, -5.129029750823975, 1.7638366222381592, 8.223420143127441, -1.5530515909194946, -2.439366340637207, -0.8568599820137024, 0.276611328125, -0.1689453125, -0.923583984375
518, 1544818293, -5.132607460021973, 1.7690898180007935, 8.239898681640625, -1.85781729221344, -2.1323342323303223, -1.1300708055496216, 0.274658203125, -0.16943359375, -0.922119140625
519, 1544834960, -5.11720085144043, 1.7475743293762207, 8.250540733337402, -1.7628837823867798, -2.1603288650512695, -1.2195872068405151, 0.276123046875, -0.169921875, -0.922607421875
520, 1544851627, -5.136624813079834, 1.7387670278549194, 8.236101150512695, -1.7124394178390503, -2.1004974842071533, -1.2233136892318726, 0.274169921875, -0.168212890625, -0.921630859375
521, 1544868294, -5.127297878265381, 1.7509701251983643, 8.24068546295166, -1.7841167449951172, -2.124586582183838, -1.4749714136123657, 0.274169921875, -0.168701171875, -0.925537109375
522, 1544884961, -5.148168087005615, 1.7107703685760498, 8.265843391418457, -1.6222058534622192, -1.937139868736267, -1.476853847503662, 0.276611328125, -0.168212890625, -0.923095703125
523, 1544901628, -5.13068151473999, 1.7232186794281006, 8.253101348876953, -1.2989225387573242, -1.5680606365203857, -1.3596373796463013, 0.273681640625, -0.17041015625, -0.921630859375
524, 1544918295, -5.117363452911377, 1.7316844463348389, 8.273685455322266, -0.9221723675727844, -0.9303812980651855, -1.3165695667266846, 0.275634765625, -0.1708984375, -0.922119140625
525, 1544934962, -5.146884918212891, 1.6957083940505981, 8.284552574157715, -0.3359745740890503, -0.19335027039051056, -1.1605370044708252, 0.276611328125, -0.17041015625, -0.923583984375
526, 1544951629, -5.203990936279297, 1.670758843421936, 8.222933769226074, 0.22544939815998077, 0.3689573109149933, -0.762515664100647, 0.274658203125, -0.17041015625, -0.924072265625
527, 1544968296, -5.190868377685547, 1.7612069845199585, 8.222816467285156, 0.6541162729263306, 0.22646108269691467, -0.2589443325996399, 0.276123046875, -0.17236328125, -0.924072265625
528, 1544984963, -5.156808853149414, 1.8122142553329468, 8.210917472839355, 0.7427746057510376, -0.02346123196184635, -0.2514270544052124, 0.277587890625, -0.173828125, -0.921875
529, 1545001630, -5.165727615356445, 1.8192631006240845, 8.169737815856934, 0.47254785895347595, 0.22621776163578033, -0.6056378483772278, 0.277587890625, -0.1748046875, -0.9228515625
530, 1545018297, -5.11552619934082, 1.8559831380844116, 8.198776245117188, 0.5422528386116028, -0.013216152787208557, -0.686650812625885, 0.2783203125, -0.17431640625, -0.921875
531, 1545034964, -5.186092853546143, 1.7418909072875977, 8.22907543182373, 0.9817796349525452, 0.46909019351005554, -0.6320702433586121, 0.27783203125, -0.177978515625, -0.92138671875
532, 1545051631, -5.165726184844971, 1.8002547025680542, 8.192965507507324, 1.170417070388794, 0.6673964858055115, -0.44393208622932434, 0.27978515625, -0.177490234375, -0.9208984375
533, 1545068298, -5.206533908843994, 1.7853856086730957, 8.173016548156738, 1.4707645177841187, 0.3031839430332184, -0.26343944668769836, 0.27880859375, -0.177490234375, -0.92333984375
534, 1545084965, -5.211801052093506, 1.8179734945297241, 8.186885833740234, 1.7355358600616455, 0.4883125424385071, 0.02543981373310089, 0.2783203125, -0.179443359375, -0.9208984375
535, 1545101632, -5.101022243499756, 1.8874841928482056, 8.133086204528809, 2.2082693576812744, 0.5826184749603271, -0.09602201730012894, 0.2802734375, -0.181640625, -0.91943359375
536, 1545118299, -5.095152854919434, 1.9594876766204834, 8.167560577392578, 2.1414716243743896, 0.9348187446594238, -0.8178007006645203, 0.2802734375, -0.18359375, -0.92041015625
537, 1545134966, -5.14962911605835, 1.8987786769866943, 8.16520881652832, 2.3682332038879395, 1.4426672458648682, -0.9310728311538696, 0.28271484375, -0.18505859375, -0.918212890625
538, 1545151633, -5.216249465942383, 1.829506754875183, 8.186354637145996, 3.412412643432617, 2.114501714706421, -0.4244537353515625, 0.28125, -0.18603515625, -0.918212890625
539, 1545168300, -5.126446723937988, 1.9209496974945068, 8.182498931884766, 3.906775951385498, 2.5031230449676514, -0.37431684136390686, 0.284423828125, -0.186279296875, -0.918212890625
540, 1545184967, -5.247427463531494, 1.9391754865646362, 8.154048919677734, 3.495819568634033, 2.3544538021087646, -0.7478523254394531, 0.283935546875, -0.188720703125, -0.916259765625
541, 1545201634, -5.312361240386963, 1.9472296237945557, 8.107348442077637, 3.237989664077759, 1.8038960695266724, -0.6295217275619507, 0.282958984375, -0.188720703125, -0.917236328125
542, 1545218301, -5.2738823890686035, 1.9570773839950562, 8.077876091003418, 3.195523500442505, 1.217839002609253, -0.42692527174949646, 0.286376953125, -0.19140625, -0.916015625
543, 1545234968, -5.200214862823486, 2.0124728679656982, 8.11755084991455, 3.1570403575897217, 0.9557185769081116, -0.4702746868133545, 0.285400390625, -0.193359375, -0.91552734375
544, 1545251635, -5.268289566040039, 1.9523719549179077, 8.12863540649414, 3.4605512619018555, 0.8083560466766357, -0.2223694771528244, 0.2880859375, -0.19482421875, -0.91357421875
545, 1545268302, -5.263541221618652, 1.9874320030212402, 8.086421966552734, 3.6780412197113037, 0.9191308617591858, 0.11220283061265945, 0.285888671875, -0.19677734375, -0.91455078125
546, 1545284969, -5.199851036071777, 2.0907979011535645, 8.038092613220215, 3.7342357635498047, 0.5320846438407898, 0.06517792493104935, 0.2880859375, -0.199462890625, -0.91357421875
547, 1545301636, -5.207062721252441, 2.1289138793945312, 8.081097602844238, 2.398482322692871, 0.5791224241256714, -0.06560693681240082, 0.286376953125, -0.200439453125, -0.911865234375
548, 1545318303, -5.290942668914795, 2.043052911758423, 8.095527648925781, 2.942291021347046, 0.467732697725296, 0.1885414868593216, 0.2900390625, -0.203125, -0.912841796875
549, 1545334970, -5.329456806182861, 1.943588137626648, 8.065412521362305, 3.3141870498657227, 0.3560101091861725, 1.089199185371399, 0.291015625, -0.200439453125, -0.909912109375
550, 1545351637, -5.326056480407715, 2.067948579788208, 8.055318832397461, 3.562041997909546, 0.1740575134754181, 1.711332082748413, 0.28955078125, -0.20556640625, -0.909423828125
551, 1545368304, -5.240677356719971, 2.2549431324005127, 8.087913513183594, 3.0780508518218994, -0.26461759209632874, 1.5220282077789307, 0.2900390625, -0.20654296875, -0.910400390625
552, 1545384971, -5.311799049377441, 2.1732337474823, 8.128535270690918, 2.6482315063476562, 0.20023368299007416, 0.39944928884506226, 0.291015625, -0.20654296875, -0.911865234375
553, 1545401638, -5.268370628356934, 2.2208480834960938, 8.16269588470459, 2.8962011337280273, 1.2532999515533447, 0.06946804374456406, 0.291015625, -0.209716796875, -0.91064453125
554, 1545418305, -5.214501857757568, 2.2023394107818604, 8.083372116088867, 1.8395874500274658, 2.126795530319214, -0.42459455132484436, 0.291015625, -0.210693359375, -0.90966796875
555, 1545434972, -5.243940830230713, 2.1244513988494873, 8.052135467529297, 2.2492499351501465, 3.1976754665374756, -0.26160815358161926, 0.2919921875, -0.211669921875, -0.91015625
556, 1545451639, -5.179930210113525, 2.1661627292633057, 8.138443946838379, 2.8173139095306396, 4.802182674407959, -0.1566728949546814, 0.293701171875, -0.21533203125, -0.90869140625
557, 1545468306, -5.279651165008545, 2.0999488830566406, 8.106863021850586, 4.700039863586426, 7.049069881439209, 0.43961000442504883, 0.297119140625, -0.21533203125, -0.90771484375
558, 1545484973, -5.303501129150391, 2.1328892707824707, 8.127946853637695, 6.2787957191467285, 9.578123092651367, 1.3374124765396118, 0.29931640625, -0.218017578125, -0.908447265625
559, 1545501640, -5.3551411628723145, 2.1894118785858154, 8.052399635314941, 7.284466743469238, 11.081628799438477, 1.433370590209961, 0.302490234375, -0.219970703125, -0.90234375
560, 1545518307, -5.42673397064209, 2.1591145992279053, 8.024675369262695, 7.838382244110107, 11.93030834197998, 1.09342622756958, 0.306884765625, -0.22265625, -0.90234375
561, 1545534974, -5.509449481964111, 2.1924591064453125, 7.957828044891357, 8.225275039672852, 12.813897132873535, 1.3605668544769287, 0.31005859375, -0.228759765625, -0.901123046875
562, 1545551641, -5.486082553863525, 2.4332478046417236, 7.919413089752197, 8.270469665527344, 13.14240550994873, 1.2201452255249023, 0.314208984375, -0.230224609375, -0.901123046875
563, 1545568308, -5.523075580596924, 2.430384874343872, 7.846129894256592, 7.684391498565674, 12.742262840270996, 0.41130179166793823, 0.317626953125, -0.23388671875, -0.89599609375
564, 1545584975, -5.527152061462402, 2.458272933959961, 7.831645965576172, 7.356877326965332, 12.44184684753418, -0.27929389476776123, 0.3212890625, -0.23486328125, -0.89697265625
565, 1545601642, -5.475436210632324, 2.5383248329162598, 7.816740989685059, 6.617743492126465, 12.136131286621094, -1.1374479532241821, 0.326416015625, -0.237060546875, -0.893798828125
566, 1545618309, -5.510129928588867, 2.504711627960205, 7.776780605316162, 5.7956390380859375, 11.988473892211914, -1.9592318534851074, 0.327392578125, -0.240234375, -0.890625
567, 1545634976, -5.5584893226623535, 2.4370498657226562, 7.772253036499023, 5.579275608062744, 12.2095365524292, -2.4764297008514404, 0.334228515625, -0.24169921875, -0.890625
568, 1545651643, -5.653786659240723, 2.490701198577881, 7.70094108581543, 5.4176716804504395, 12.369525909423828, -2.7172398567199707, 0.334228515625, -0.243408203125, -0.886474609375
569, 1545668310, -5.704555988311768, 2.5179834365844727, 7.664085388183594, 5.239394187927246, 12.19797134399414, -3.316948890686035, 0.3388671875, -0.246826171875, -0.888427734375
570, 1545684977, -5.738142490386963, 2.527010202407837, 7.639153003692627, 5.515524864196777, 11.92385196685791, -4.1143879890441895, 0.34326171875, -0.24853515625, -0.8857421875
571, 1545701644, -5.7604570388793945, 2.532480001449585, 7.603995323181152, 5.394005298614502, 11.639179229736328, -4.749596118927002, 0.346435546875, -0.25, -0.884521484375
572, 1545718311, -5.6807661056518555, 2.6052727699279785, 7.63531494140625, 5.684787273406982, 12.104333877563477, -5.688225746154785, 0.35009765625, -0.252197265625, -0.88037109375
573, 1545734978, -5.690496444702148, 2.5678062438964844, 7.625246524810791, 6.989168167114258, 13.69140338897705, -7.574117183685303, 0.353759765625, -0.250732421875, -0.87890625
574, 1545751645, -5.746767997741699, 2.5582571029663086, 7.623110771179199, 8.872821807861328, 15.756448745727539, -9.438036918640137, 0.3623046875, -0.25537109375, -0.875244140625
575, 1545768312, -5.8204345703125, 2.526252269744873, 7.611732006072998, 10.895349502563477, 17.509662628173828, -11.046534538269043, 0.366455078125, -0.2568359375, -0.873046875
576, 1545784979, -5.813201904296875, 2.6308372020721436, 7.640084743499756, 10.297178268432617, 19.094722747802734, -11.811065673828125, 0.3740234375, -0.258544921875, -0.869873046875
577, 1545801646, -5.79073429107666, 2.685847759246826, 7.628324508666992, 9.779243469238281, 22.631948471069336, -12.443617820739746, 0.379150390625, -0.2607421875, -0.86669921875
578, 1545818313, -5.807601451873779, 2.49387788772583, 7.636402606964111, 9.641328811645508, 28.83502960205078, -12.316693305969238, 0.387451171875, -0.263671875, -0.863037109375
579, 1545834980, -5.783899784088135, 2.567718744277954, 7.627504348754883, 11.156018257141113, 37.642799377441406, -12.727783203125, 0.396240234375, -0.265380859375, -0.856689453125
580, 1545851647, -5.886770248413086, 2.618917465209961, 7.504059791564941, 12.55939769744873, 47.45491409301758, -12.845845222473145, 0.408447265625, -0.2666015625, -0.849853515625
581, 1545868314, -6.016200542449951, 2.6735734939575195, 7.392412185668945, 13.12377643585205, 57.53886795043945, -13.28491497039795, 0.426025390625, -0.267333984375, -0.843505859375
582, 1545884981, -6.132424354553223, 2.723877429962158, 7.367510795593262, 14.472229957580566, 69.2195053100586, -14.897787094116211, 0.4404296875, -0.271728515625, -0.8330078125
583, 1545901648, -6.061452388763428, 2.794344663619995, 7.505147457122803, 14.317893028259277, 83.24009704589844, -17.52679443359375, 0.4638671875, -0.27197265625, -0.821044921875
584, 1545918315, -6.119943618774414, 2.8585445880889893, 7.530247211456299, 12.238911628723145, 102.65176391601562, -20.85160255432129, 0.488037109375, -0.275390625, -0.80517578125
585, 1545934982, -6.315318584442139, 2.864776134490967, 7.026910305023193, 14.53461742401123, 127.24291229248047, -26.377458572387695, 0.518310546875, -0.275146484375, -0.787841796875
586, 1545951649, -6.679583549499512, 2.916543483734131, 6.834325790405273, 17.992338180541992, 154.58197021484375, -34.9202995300293, 0.552734375, -0.273193359375, -0.762939453125
587, 1545968316, -6.8050312995910645, 2.917222261428833, 6.742116451263428, 12.062193870544434, 179.11570739746094, -46.47161102294922, 0.598388671875, -0.26806640625, -0.735595703125
588, 1545984983, -6.975867748260498, 3.2903192043304443, 7.008765697479248, 5.127303123474121, 205.2332305908203, -59.468101501464844, 0.64404296875, -0.26171875, -0.6982421875
589, 1546001650, -7.112112998962402, 2.504436492919922, 6.14639949798584, -8.940024375915527, 237.51841735839844, -73.27560424804688, 0.693603515625, -0.24658203125, -0.65625
590, 1546018317, -7.54612398147583, 2.649761199951172, 5.956228256225586, -8.970314025878906, 280.34637451171875, -87.75377655029297, 0.751708984375, -0.227783203125, -0.5986328125
591, 1546034984, -9.856173515319824, 2.9034082889556885, 6.199336528778076, -5.305593013763428, 318.12939453125, -101.69374084472656, 0.810546875, -0.20458984375, -0.52880859375
592, 1546051651, -13.287412643432617, 4.269946575164795, 7.668876647949219, -6.5810465812683105, 339.2529296875, -109.64774322509766, 0.866455078125, -0.175048828125, -0.447509765625
593, 1546068318, -18.381803512573242, 6.067111968994141, 9.274910926818848, -10.449860572814941, 348.7430419921875, -124.36630249023438, 0.92138671875, -0.142333984375, -0.35791015625
594, 1546084985, -19.132131576538086, 4.618612766265869, 8.486495971679688, -8.746733665466309, 314.40106201171875, -126.49838256835938, 0.9580078125, -0.107666015625, -0.273193359375
595, 1546101652, -19.58209228515625, 5.916806221008301, 12.770942687988281, 8.695915222167969, 291.7934875488281, -121.17557525634766, 0.9833984375, -0.073974609375, -0.1865234375
596, 1546118319, -17.265180587768555, 7.199045181274414, 14.477174758911133, 5.866334915161133, 266.8976135253906, -128.29486083984375, 1.000732421875, -0.037841796875, -0.10986328125
597, 1546134986, -9.849340438842773, 7.5218987464904785, 15.694931983947754, -2.6721861362457275, 211.19528198242188, -128.953857421875, 1.009033203125, 4.8828125E-4, -0.047607421875
598, 1546151653, -2.9291200637817383, 5.622087001800537, 4.628120422363281, -37.88743209838867, 271.26605224609375, -132.6913604736328, 1.012451171875, 0.037353515625, 0.02392578125
599, 1546168320, -21.344202041625977, 9.45997142791748, 22.415042877197266, -5.475188732147217, 220.6939239501953, -79.52204132080078, 1.010986328125, 0.068603515625, 0.10009765625
600, 1546184987, -16.955842971801758, 9.329085350036621, 23.98332977294922, 5.065741062164307, 35.43303298950195, -17.89790916442871, 1.005126953125, 0.0751953125, 0.121337890625
601, 1546201654, -8.689780235290527, 6.470120429992676, 18.6935977935791, -10.252401351928711, -102.02793884277344, 18.750091552734375, 1.00732421875, 0.070556640625, 0.099365234375
602, 1546218321, -4.651059150695801, 3.2946131229400635, 14.0286865234375, -5.059385299682617, -168.50845336914062, 37.79130554199219, 1.008056640625, 0.06005859375, 0.053955078125
603, 1546234988, -4.696019172668457, 2.1714961528778076, 11.793638229370117, 16.570249557495117, -201.402099609375, 51.3480224609375, 1.011474609375, 0.04443359375, -0.002197265625
604, 1546251655, -6.0795392990112305, 2.7527613639831543, 10.69996452331543, 22.410734176635742, -232.90614318847656, 58.555294036865234, 1.009033203125, 0.0263671875, -0.065673828125
605, 1546268322, -6.530762195587158, 2.9002773761749268, 9.505040168762207, 6.469562530517578, -262.6756286621094, 60.39678192138672, 0.99853515625, 0.010009765625, -0.13720703125
606, 1546284989, -6.512336730957031, 2.168219804763794, 8.18142032623291, -9.801939010620117, -291.7888488769531, 66.18614196777344, 0.97998046875, -0.010498046875, -0.21826171875
607, 1546301656, -6.661311149597168, 0.8042895793914795, 7.922877311706543, -9.070658683776855, -307.8753356933594, 79.97053527832031, 0.95361328125, -0.03271484375, -0.302490234375
608, 1546318323, -7.695499420166016, -0.07223926484584808, 8.223777770996094, 6.549645900726318, -319.4205322265625, 99.68594360351562, 0.920654296875, -0.06298828125, -0.386474609375
609, 1546334990, -9.180728912353516, -0.10753272473812103, 8.749096870422363, 16.702808380126953, -335.0870056152344, 113.93888092041016, 0.875, -0.09521484375, -0.469970703125
610, 1546351657, -10.295890808105469, -0.04459341987967491, 9.151013374328613, 11.195080757141113, -354.2911376953125, 118.6514663696289, 0.818115234375, -0.12841796875, -0.55029296875
611, 1546368324, -10.700297355651855, -0.6826176643371582, 9.332901000976562, 1.1036614179611206, -368.10601806640625, 116.77718353271484, 0.746337890625, -0.157470703125, -0.634033203125
612, 1546384991, -11.170902252197266, -1.2218900918960571, 9.487773895263672, -1.7923535108566284, -373.7062072753906, 112.82183837890625, 0.66796875, -0.18408203125, -0.70703125
613, 1546401658, -11.510026931762695, -1.4103496074676514, 9.857548713684082, -3.2728445529937744, -370.30303955078125, 103.63812255859375, 0.5771484375, -0.203857421875, -0.771240234375
614, 1546418325, -12.042328834533691, -1.6517093181610107, 10.669083595275879, -3.120515823364258, -356.390625, 85.74423217773438, 0.4873046875, -0.219970703125, -0.822998046875
615, 1546434992, -14.165518760681152, -1.5704325437545776, 12.774188995361328, 8.403231620788574, -337.6275634765625, 60.839691162109375, 0.39599609375, -0.2333984375, -0.86669921875
616, 1546451659, -20.974882125854492, 0.2911541163921356, 16.468793869018555, 29.116416931152344, -337.6632385253906, 37.963096618652344, 0.305908203125, -0.2470703125, -0.89599609375
617, 1546468326, -28.350759506225586, 3.4503157138824463, 17.31241226196289, 37.10829544067383, -379.6220703125, 21.299715042114258, 0.207275390625, -0.262451171875, -0.919677734375
618, 1546484993, -31.981019973754883, 5.991696834564209, 12.382205963134766, 37.824771881103516, -421.8431091308594, 13.806089401245117, 0.093017578125, -0.27734375, -0.930419921875
619, 1546501660, -33.78322982788086, 6.935727596282959, 1.5238791704177856, 51.451629638671875, -418.6871337890625, 12.017574310302734, -0.02490234375, -0.294921875, -0.928466796875
620, 1546518327, -33.555904388427734, -0.7211899757385254, -10.56951904296875, 120.33351135253906, -332.19268798828125, 32.57536315917969, -0.126953125, -0.3203125, -0.91015625
621, 1546534994, -37.208335876464844, -12.642032623291016, -22.06279945373535, 235.90121459960938, -194.33047485351562, 91.47066497802734, -0.19580078125, -0.3740234375, -0.880126953125
622, 1546551661, -35.55995178222656, -12.241870880126953, -24.464895248413086, 176.82748413085938, -44.2052001953125, 87.09748077392578, -0.230712890625, -0.425048828125, -0.84912109375
623, 1546568328, -29.104909896850586, -9.60525894165039, -13.610660552978516, -51.04387283325195, 81.35523223876953, -55.357032775878906, -0.215087890625, -0.425537109375, -0.85400390625
624, 1546584995, -19.619508743286133, -5.834964752197266, 1.7582478523254395, -92.22679901123047, 115.95230865478516, -128.16519165039062, -0.1748046875, -0.40625, -0.871337890625
625, 1546601662, 17.87002182006836, 21.832916259765625, 23.393783569335938, -65.1768798828125, 105.3912582397461, -131.2887725830078, -0.130615234375, -0.396484375, -0.88427734375
626, 1546618329, 13.288284301757812, 9.330854415893555, -7.768658638000488, -110.15531158447266, 249.63803100585938, -131.35293579101562, -0.0634765625, -0.374755859375, -0.900390625
627, 1546634996, -24.87073516845703, -5.340317726135254, 15.336787223815918, -47.502777099609375, 370.5594482421875, 20.957157135009766, 0.036376953125, -0.354736328125, -0.90771484375
628, 1546651663, -19.619260787963867, -14.236515998840332, 20.847522735595703, -60.60340118408203, 245.343505859375, -75.94334411621094, 0.1171875, -0.337158203125, -0.90771484375
629, 1546668330, -15.963950157165527, 0.8351813554763794, 13.844252586364746, -22.41782569885254, 169.2447509765625, -125.59706115722656, 0.181396484375, -0.32373046875, -0.90380859375
630, 1546684997, -11.402222633361816, 13.222872734069824, 8.44124698638916, -22.077953338623047, 154.2937774658203, -36.771202087402344, 0.225341796875, -0.314697265625, -0.89404296875
631, 1546701664, -20.92013931274414, 3.842419147491455, 16.174087524414062, -83.46278381347656, 75.45819091796875, -39.176570892333984, 0.258544921875, -0.292236328125, -0.896240234375
632, 1546718331, -6.187586784362793, 1.5885708332061768, 8.4298734664917, -38.64079666137695, 18.89525032043457, -25.569782257080078, 0.26611328125, -0.278076171875, -0.897216796875
633, 1546734998, -6.6925578117370605, 0.010677482932806015, 9.531012535095215, -23.614591598510742, 13.851299285888672, -13.947532653808594, 0.2744140625, -0.27001953125, -0.896240234375
634, 1546751665, -6.3194990158081055, 2.248791456222534, 8.557001113891602, -10.03579330444336, 9.757902145385742, -4.83034086227417, 0.27783203125, -0.265380859375, -0.897216796875
635, 1546768332, -5.2445855140686035, 1.8654316663742065, 8.653169631958008, -3.2035868167877197, 10.328474044799805, -3.9895131587982178, 0.282470703125, -0.26708984375, -0.897216796875
636, 1546784999, -5.301550388336182, 1.122506856918335, 8.682881355285645, 6.4271087646484375, 14.682842254638672, 0.4682837128639221, 0.28564453125, -0.26904296875, -0.896240234375
637, 1546801666, -7.494931221008301, 4.3122358322143555, 1.8142765760421753, 15.930366516113281, 16.73944854736328, 4.5934739112854, 0.291259765625, -0.272705078125, -0.889404296875
638, 1546818333, -5.447371482849121, 1.9957630634307861, 8.176910400390625, 20.932889938354492, 18.049057006835938, 6.066903591156006, 0.2958984375, -0.279052734375, -0.8876953125
639, 1546835000, -5.183901786804199, 2.5491743087768555, 7.896601676940918, 21.04213523864746, 16.61148452758789, 4.1195759773254395, 0.299072265625, -0.287109375, -0.885009765625
640, 1546851667, -5.105890274047852, 2.8715457916259766, 7.701903343200684, 18.47590446472168, 15.360766410827637, 1.172967791557312, 0.30419921875, -0.291748046875, -0.880859375
641, 1546868334, -5.206391334533691, 2.9606773853302, 7.547362804412842, 14.916094779968262, 14.663426399230957, -0.5805767774581909, 0.30859375, -0.29638671875, -0.8818359375
642, 1546885001, -5.328303813934326, 3.1739091873168945, 7.397740840911865, 8.429972648620605, 12.37450885772705, -3.067110300064087, 0.308837890625, -0.300048828125, -0.878173828125
643, 1546901668, -5.531195640563965, 3.261286497116089, 7.471177577972412, 0.6134563088417053, 7.536954402923584, -6.863924026489258, 0.31494140625, -0.300048828125, -0.877685546875
644, 1546918335, -5.588042259216309, 3.2492117881774902, 7.501987934112549, -9.777348518371582, -0.045757122337818146, -11.591791152954102, 0.31689453125, -0.297607421875, -0.87646484375
645, 1546935002, -5.532464027404785, 3.2606964111328125, 7.505095481872559, -21.709854125976562, -11.042003631591797, -17.998319625854492, 0.31640625, -0.2939453125, -0.87646484375
646, 1546951669, -5.762866973876953, 2.5488386154174805, 7.5663323402404785, -23.552001953125, -17.247575759887695, -18.05190658569336, 0.31689453125, -0.286865234375, -0.88134765625
647, 1546968336, -5.189493656158447, 2.210639476776123, 8.042123794555664, -20.099262237548828, -17.009925842285156, -16.336450576782227, 0.311279296875, -0.280029296875, -0.8837890625
648, 1546985003, -5.141985893249512, 2.0150020122528076, 8.235960960388184, -17.127216339111328, -12.590069770812988, -16.071073532104492, 0.3076171875, -0.275390625, -0.884521484375
649, 1547001670, -5.160836696624756, 1.9289271831512451, 8.191722869873047, -10.132037162780762, -6.028519153594971, -14.096259117126465, 0.30908203125, -0.266845703125, -0.8876953125
650, 1547018337, -4.999545097351074, 2.203747034072876, 8.227599143981934, -4.659862995147705, 0.8258885145187378, -13.475018501281738, 0.30908203125, -0.268798828125, -0.8876953125
651, 1547035004, -5.274513244628906, 2.2675774097442627, 8.155314445495605, -2.8589816093444824, 7.31206750869751, -14.898087501525879, 0.31494140625, -0.266357421875, -0.884033203125
652, 1547051671, -5.3800048828125, 2.2551004886627197, 8.076565742492676, -1.1621907949447632, 12.90283489227295, -17.085426330566406, 0.31787109375, -0.2666015625, -0.885498046875
653, 1547068338, -4.990686416625977, 2.4325037002563477, 8.384069442749023, -1.0297490358352661, 20.839691162109375, -21.223876953125, 0.325439453125, -0.2646484375, -0.8818359375
654, 1547085005, -4.962653160095215, 2.572096347808838, 8.628600120544434, 2.057849645614624, 37.3075065612793, -29.750118255615234, 0.337158203125, -0.26220703125, -0.882080078125
