sep=,
DeviceTag:,B,,,,,,,,,,,,,,,,,
FirmwareVersion:,2.2.1,,,,,,,,,,,,,,,,,
AppVersion:,2022.0.1,,,,,,,,,,,,,,,,,
SyncStatus:,Synced,,,,,,,,,,,,,,,,,
OutputRate:,60Hz,,,,,,,,,,,,,,,,,
FilterProfile:,General,,,,,,,,,,,,,,,,,
Measurement Mode:,Inertial Mode - Rate quantities (with mag),,,,,,,,,,,,,,,,,
StartTime:,2022-08-16 15:35:13.144 +0300,,,,,,,,,,,,,,,,,
© Xsens Technologies B. V. 2005-2022,,,,,,,,,,,,,,,,,,,

PacketCounter,SampleTimeFine,Acc_X,Acc_Y,Acc_Z,Gyr_X,Gyr_Y,Gyr_Z,Mag_X,Mag_Y,Mag_Z
1, 1536201454, -5.28609037399292, -1.9593381881713867, 7.895200729370117, -0.4060893654823303, -0.7796121835708618, -1.8840957880020142, 0.266845703125, 0.30029296875, -0.8720703125
2, 1536218121, -5.286894798278809, -1.9667009115219116, 7.875518798828125, -0.33032694458961487, -0.9174084067344666, -1.7191370725631714, 0.265380859375, 0.298828125, -0.87255859375
3, 1536234788, -5.277335166931152, -1.9742581844329834, 7.868444919586182, -0.25880348682403564, -0.9156410694122314, -1.5725939273834229, 0.264404296875, 0.298828125, -0.875244140625
4, 1536251455, -5.2634053230285645, -1.9601389169692993, 7.909675121307373, -0.2773214876651764, -0.85732102394104, -1.50639808177948, 0.26708984375, 0.29736328125, -0.875
5, 1536268122, -5.287423610687256, -1.9387325048446655, 7.901513576507568, -0.23229439556598663, -0.8145990371704102, -1.4968957901000977, 0.264892578125, 0.29833984375, -0.87451171875
6, 1536284789, -5.27377986907959, -1.9573148488998413, 7.899447441101074, -0.2523234784603119, -0.7420895099639893, -1.6307733058929443, 0.26611328125, 0.298828125, -0.875244140625
7, 1536301456, -5.2602763175964355, -1.947577953338623, 7.888898849487305, -0.35439011454582214, -0.803406298160553, -1.6886323690414429, 0.26611328125, 0.29931640625, -0.873046875
8, 1536318123, -5.2947893142700195, -1.9667673110961914, 7.888802528381348, -0.40068504214286804, -0.7087802290916443, -1.602919578552246, 0.264892578125, 0.2978515625, -0.875244140625
9, 1536334790, -5.285991668701172, -1.9591306447982788, 7.904232978820801, -0.20908929407596588, -0.7522962689399719, -1.5933151245117188, 0.264892578125, 0.29931640625, -0.873046875
10, 1536351457, -5.2730631828308105, -1.959496021270752, 7.913279056549072, -0.3517135977745056, -0.6829626560211182, -1.6342439651489258, 0.2685546875, 0.29736328125, -0.875
11, 1536368124, -5.272338390350342, -1.9384722709655762, 7.895585536956787, -0.4399237036705017, -0.55844646692276, -1.6548748016357422, 0.26806640625, 0.298828125, -0.8740234375
12, 1536384791, -5.289623737335205, -1.9574377536773682, 7.90029239654541, -0.34246745705604553, -0.5358433127403259, -1.5938785076141357, 0.265380859375, 0.298828125, -0.874755859375
13, 1536401458, -5.259786605834961, -1.9727243185043335, 7.9113450050354, -0.2815091907978058, -0.5357664227485657, -1.5237250328063965, 0.266357421875, 0.30078125, -0.87451171875
14, 1536418125, -5.289792537689209, -1.943625569343567, 7.859887599945068, -0.3504842221736908, -0.60981285572052, -1.559249997138977, 0.265380859375, 0.301025390625, -0.87353515625
15, 1536434792, -5.293872833251953, -1.9353039264678955, 7.875117778778076, -0.3970608711242676, -0.7454447746276855, -1.7220185995101929, 0.2666015625, 0.30029296875, -0.875
16, 1536451459, -5.2895402908325195, -1.9509519338607788, 7.896385192871094, -0.3906768560409546, -0.8145285844802856, -1.7479959726333618, 0.265869140625, 0.30078125, -0.874755859375
17, 1536468126, -5.274892807006836, -1.9599902629852295, 7.873323917388916, -0.28348132967948914, -0.9353500008583069, -1.7284599542617798, 0.265380859375, 0.298828125, -0.873046875
18, 1536484793, -5.265187740325928, -1.982587456703186, 7.895730495452881, -0.26066043972969055, -0.7617087960243225, -1.7162045240402222, 0.26708984375, 0.30029296875, -0.875732421875
19, 1536501460, -5.2939372062683105, -1.9257168769836426, 7.903013706207275, -0.16557329893112183, -0.9183945059776306, -1.6266753673553467, 0.265380859375, 0.30029296875, -0.875732421875
20, 1536518127, -5.287759780883789, -1.9534409046173096, 7.8873820304870605, -0.19568102061748505, -0.9390895366668701, -1.7978193759918213, 0.26611328125, 0.29736328125, -0.873046875
21, 1536534794, -5.291748046875, -1.9443963766098022, 7.928170204162598, -0.24977503716945648, -0.9274486899375916, -1.741906762123108, 0.266357421875, 0.30029296875, -0.8720703125
22, 1536551461, -5.25621223449707, -1.9716947078704834, 7.9277801513671875, -0.29930999875068665, -0.6773534417152405, -1.7053319215774536, 0.264892578125, 0.29736328125, -0.87353515625
23, 1536568128, -5.266879558563232, -1.9672502279281616, 7.9307451248168945, -0.36017856001853943, -0.5248298048973083, -1.7589648962020874, 0.26611328125, 0.2978515625, -0.873046875
24, 1536584795, -5.278627395629883, -1.9641536474227905, 7.906052589416504, -0.23803164064884186, -0.4932621717453003, -1.651673436164856, 0.265625, 0.295166015625, -0.87109375
25, 1536601462, -5.279749393463135, -1.9537771940231323, 7.909261226654053, -0.1171012595295906, -0.6684145927429199, -1.5946978330612183, 0.264892578125, 0.2978515625, -0.8720703125
26, 1536618129, -5.264395713806152, -1.9672073125839233, 7.8967461585998535, -0.023089846596121788, -0.70577073097229, -1.7064460515975952, 0.26513671875, 0.29736328125, -0.87451171875
27, 1536634796, -5.275691986083984, -1.9523414373397827, 7.884338855743408, -0.10886677354574203, -0.7111877799034119, -1.7089048624038696, 0.265625, 0.296142578125, -0.8740234375
28, 1536651463, -5.282843589782715, -1.9534265995025635, 7.909887313842773, -0.209601491689682, -0.7647054195404053, -1.6518524885177612, 0.2685546875, 0.29736328125, -0.8759765625
29, 1536668130, -5.283545970916748, -1.9564399719238281, 7.920524597167969, -0.1263730525970459, -0.7640523910522461, -1.7162045240402222, 0.263427734375, 0.298828125, -0.875244140625
30, 1536684797, -5.276914119720459, -1.9399349689483643, 7.893398284912109, -0.08074402064085007, -0.6907359957695007, -1.7296637296676636, 0.265625, 0.295654296875, -0.87548828125
31, 1536701464, -5.292520523071289, -1.9341996908187866, 7.89452600479126, -0.11521874368190765, -0.6500887870788574, -1.6769275665283203, 0.265625, 0.2978515625, -0.87353515625
32, 1536718131, -5.3052897453308105, -1.9462177753448486, 7.909973621368408, -0.12847328186035156, -0.8967517614364624, -1.6778110265731812, 0.2666015625, 0.298828125, -0.87548828125
33, 1536734798, -5.276806354522705, -1.9438601732254028, 7.9093451499938965, -0.26933369040489197, -1.0366848707199097, -1.7393345832824707, 0.265380859375, 0.2998046875, -0.873046875
34, 1536751465, -5.281986236572266, -1.9465250968933105, 7.885338306427002, -0.1422785222530365, -0.9848722219467163, -1.641748309135437, 0.264892578125, 0.2978515625, -0.87353515625
35, 1536768132, -5.263921737670898, -1.9401568174362183, 7.921134948730469, -0.12746159732341766, -0.9659188389778137, -1.5909456014633179, 0.264404296875, 0.29931640625, -0.874755859375
36, 1536784799, -5.258127212524414, -1.9487851858139038, 7.925413131713867, -0.08409930020570755, -1.0520927906036377, -1.5209587812423706, 0.263916015625, 0.30029296875, -0.873046875
37, 1536801466, -5.294564723968506, -1.945274829864502, 7.915294647216797, -0.1949126273393631, -0.9004912972450256, -1.5822244882583618, 0.265380859375, 0.29833984375, -0.874755859375
38, 1536818133, -5.277185440063477, -1.94607675075531, 7.903754711151123, -0.19534805417060852, -0.9386029243469238, -1.5891526937484741, 0.264892578125, 0.29736328125, -0.873046875
39, 1536834800, -5.263524532318115, -1.9528107643127441, 7.884766101837158, -0.12642428278923035, -1.0038769245147705, -1.6157258749008179, 0.26611328125, 0.29736328125, -0.8740234375
40, 1536851467, -5.267665863037109, -1.942525029182434, 7.924868583679199, -0.08481646329164505, -0.9049991965293884, -1.4671467542648315, 0.26513671875, 0.296630859375, -0.875732421875
41, 1536868134, -5.26752233505249, -1.9239941835403442, 7.918592929840088, -0.1108645647764206, -0.9369765520095825, -1.5695077180862427, 0.265625, 0.29638671875, -0.875
42, 1536884801, -5.261545658111572, -1.938054084777832, 7.909042835235596, -0.05784628167748451, -0.9219034910202026, -1.5128140449523926, 0.26611328125, 0.296142578125, -0.873046875
43, 1536901468, -5.267845630645752, -1.9475408792495728, 7.89699125289917, -0.11788246035575867, -0.7813155055046082, -1.61471426486969, 0.265625, 0.29736328125, -0.875
44, 1536918135, -5.2562479972839355, -1.9448883533477783, 7.919693470001221, -0.1385262906551361, -0.8870702981948853, -1.4682352542877197, 0.265625, 0.29833984375, -0.875
45, 1536934802, -5.2717366218566895, -1.9333953857421875, 7.892822265625, -0.12068704515695572, -0.8136386871337891, -1.5166049003601074, 0.2666015625, 0.29638671875, -0.875
46, 1536951469, -5.272236347198486, -1.9310864210128784, 7.912130355834961, -0.1273975372314453, -0.9314441084861755, -1.632706880569458, 0.264892578125, 0.296875, -0.873046875
47, 1536968136, -5.239373683929443, -1.9552000761032104, 7.923028945922852, -0.1415741890668869, -0.9144501686096191, -1.6121529340744019, 0.265625, 0.296875, -0.875
48, 1536984803, -5.276604175567627, -1.94001042842865, 7.909097671508789, -0.15430371463298798, -0.8289294838905334, -1.5493507385253906, 0.264404296875, 0.2978515625, -0.87353515625
49, 1537001470, -5.269607067108154, -1.9451000690460205, 7.893340587615967, -0.24405059218406677, -1.0148006677627563, -1.5008913278579712, 0.267578125, 0.29638671875, -0.875
50, 1537018137, -5.25714635848999, -1.9295384883880615, 7.919776439666748, -0.23712240159511566, -0.930688738822937, -1.5399636030197144, 0.26513671875, 0.29638671875, -0.87353515625
51, 1537034804, -5.2640533447265625, -1.9238375425338745, 7.909242630004883, -0.3616896867752075, -1.0244309902191162, -1.5891141891479492, 0.263916015625, 0.296875, -0.876220703125
52, 1537051471, -5.288750171661377, -1.899428367614746, 7.919038772583008, -0.3889160454273224, -0.901387631893158, -1.742739200592041, 0.262451171875, 0.2998046875, -0.875244140625
53, 1537068138, -5.234776973724365, -1.9702106714248657, 7.932289123535156, -0.4775615930557251, -0.831977367401123, -1.5829417705535889, 0.263916015625, 0.29736328125, -0.87353515625
54, 1537084805, -5.270738124847412, -1.9016430377960205, 7.935909748077393, -0.4245944917201996, -0.7860665321350098, -1.6308884620666504, 0.262939453125, 0.295654296875, -0.87890625
55, 1537101472, -5.2601542472839355, -1.9411678314208984, 7.928410530090332, -0.5480861067771912, -0.749337911605835, -1.6841373443603516, 0.263427734375, 0.296875, -0.876708984375
56, 1537118139, -5.274632930755615, -1.9059326648712158, 7.904948711395264, -0.6823222637176514, -0.680055558681488, -1.649176001548767, 0.262451171875, 0.29736328125, -0.873779296875
57, 1537134806, -5.271762847900391, -1.9364153146743774, 7.920573711395264, -0.7881026268005371, -0.7392720580101013, -1.6766070127487183, 0.262939453125, 0.29833984375, -0.874755859375
58, 1537151473, -5.229841709136963, -1.9310847520828247, 7.912175178527832, -0.913835346698761, -0.6400868892669678, -1.7240418195724487, 0.261962890625, 0.29736328125, -0.874755859375
59, 1537168140, -5.263700485229492, -1.935923457145691, 7.9291534423828125, -0.8929484486579895, -0.6053177118301392, -1.8155819177627563, 0.264404296875, 0.29736328125, -0.875732421875
60, 1537184807, -5.260056495666504, -1.9442012310028076, 7.904965400695801, -0.8735338449478149, -0.5585617423057556, -1.7513066530227661, 0.26513671875, 0.2978515625, -0.875244140625
61, 1537201474, -5.255843639373779, -1.9515734910964966, 7.918250560760498, -0.8103985786437988, -0.5379179120063782, -1.840298056602478, 0.264404296875, 0.296875, -0.87255859375
62, 1537218141, -5.265072345733643, -1.9622586965560913, 7.9011640548706055, -0.7736572027206421, -0.6113879680633545, -1.797038197517395, 0.264892578125, 0.296875, -0.873046875
63, 1537234808, -5.263011455535889, -1.9565932750701904, 7.925785064697266, -0.6924521327018738, -0.5350620746612549, -1.7719889879226685, 0.263427734375, 0.29931640625, -0.87158203125
64, 1537251475, -5.23885440826416, -1.9470843076705933, 7.917121887207031, -0.6850500702857971, -0.4253244698047638, -1.711120367050171, 0.2666015625, 0.29931640625, -0.875
65, 1537268142, -5.2669997215271, -1.943646788597107, 7.913444519042969, -0.6243094801902771, -0.4040275514125824, -1.8230605125427246, 0.263427734375, 0.30029296875, -0.875732421875
66, 1537284809, -5.240030765533447, -1.9530727863311768, 7.9250359535217285, -0.572827935218811, -0.41332489252090454, -1.765073299407959, 0.264404296875, 0.29833984375, -0.875244140625
67, 1537301476, -5.2566633224487305, -1.973618745803833, 7.8847432136535645, -0.605663537979126, -0.18082566559314728, -1.6556562185287476, 0.264892578125, 0.29931640625, -0.8740234375
68, 1537318143, -5.284029483795166, -1.9151839017868042, 7.915255069732666, -0.5666936635971069, -0.34714165329933167, -1.6978272199630737, 0.264404296875, 0.2998046875, -0.873046875
69, 1537334810, -5.289163112640381, -1.9529961347579956, 7.889167785644531, -0.5396979451179504, -0.442164808511734, -1.9338483810424805, 0.263916015625, 0.298828125, -0.873046875
70, 1537351477, -5.267313480377197, -1.9668842554092407, 7.896515369415283, -0.3625221252441406, -0.39476847648620605, -1.9255112409591675, 0.264892578125, 0.298828125, -0.8740234375
71, 1537368144, -5.263803005218506, -1.972334623336792, 7.904032230377197, -0.35524818301200867, -0.4068065583705902, -1.7219419479370117, 0.26611328125, 0.298828125, -0.87353515625
72, 1537384811, -5.268695831298828, -1.964695930480957, 7.916218280792236, -0.2913316786289215, -0.3520081639289856, -1.650815486907959, 0.263427734375, 0.2998046875, -0.875732421875
73, 1537401478, -5.248447418212891, -1.9576129913330078, 7.910223484039307, -0.25832971930503845, -0.20587487518787384, -1.7064844369888306, 0.265625, 0.29833984375, -0.8740234375
74, 1537418145, -5.267334461212158, -1.9180070161819458, 7.911106586456299, -0.38358861207962036, -0.18030060827732086, -1.6123065948486328, 0.26611328125, 0.29833984375, -0.87255859375
75, 1537434812, -5.293861389160156, -1.9361261129379272, 7.8834943771362305, -0.4832475781440735, -0.3493059575557709, -1.7118631601333618, 0.26708984375, 0.298828125, -0.87451171875
76, 1537451479, -5.280812740325928, -1.948578953742981, 7.906383991241455, -0.25330957770347595, -0.4781634211540222, -1.8796772956848145, 0.264404296875, 0.29931640625, -0.875244140625
77, 1537468146, -5.260206699371338, -1.9584784507751465, 7.903567790985107, -0.20888438820838928, -0.5660791397094727, -1.6750835180282593, 0.265380859375, 0.2978515625, -0.8740234375
78, 1537484813, -5.276499271392822, -1.9562643766403198, 7.922512531280518, -0.25790706276893616, -0.5924729108810425, -1.71611487865448, 0.26611328125, 0.29931640625, -0.87451171875
79, 1537501480, -5.258289813995361, -1.9556779861450195, 7.916165828704834, -0.32165706157684326, -0.5218716263771057, -1.6579740047454834, 0.264892578125, 0.29736328125, -0.87353515625
80, 1537518147, -5.286803245544434, -1.9505711793899536, 7.91895866394043, -0.27196842432022095, -0.5580622553825378, -1.7357981204986572, 0.263916015625, 0.2978515625, -0.874267578125
81, 1537534814, -5.274845123291016, -1.9182088375091553, 7.910104274749756, -0.2817268669605255, -0.6921576261520386, -1.7886755466461182, 0.265625, 0.29736328125, -0.8720703125
82, 1537551481, -5.286303520202637, -1.935563564300537, 7.9176249504089355, -0.35518404841423035, -0.8138946294784546, -1.8435890674591064, 0.26513671875, 0.2978515625, -0.875732421875
83, 1537568148, -5.25831413269043, -1.945619821548462, 7.919422149658203, -0.33010926842689514, -0.8887222409248352, -1.8378520011901855, 0.263671875, 0.295166015625, -0.875732421875
84, 1537584815, -5.2736358642578125, -1.9543025493621826, 7.893565654754639, -0.3584113121032715, -0.785861611366272, -1.827722191810608, 0.263427734375, 0.2978515625, -0.8720703125
85, 1537601482, -5.253995895385742, -1.937783122062683, 7.915061950683594, -0.4057435393333435, -0.7420126795768738, -1.7194956541061401, 0.264892578125, 0.2978515625, -0.87451171875
86, 1537618149, -5.263309001922607, -1.985490322113037, 7.910909175872803, -0.43722155690193176, -0.649474024772644, -1.7132205963134766, 0.261474609375, 0.30078125, -0.874755859375
87, 1537634816, -5.2803544998168945, -1.9314738512039185, 7.900217056274414, -0.34573298692703247, -0.6190717220306396, -1.7474263906478882, 0.263916015625, 0.29931640625, -0.875244140625
88, 1537651483, -5.261965274810791, -1.9694583415985107, 7.90269136428833, -0.3632008135318756, -0.7302948236465454, -1.744557499885559, 0.26806640625, 0.2998046875, -0.876708984375
89, 1537668150, -5.280802249908447, -1.9282033443450928, 7.895244598388672, -0.37172991037368774, -0.7594037652015686, -1.7597588300704956, 0.265380859375, 0.29833984375, -0.87353515625
90, 1537684817, -5.2635297775268555, -1.950460433959961, 7.919928550720215, -0.4132865071296692, -0.6136417984962463, -1.7357213497161865, 0.26611328125, 0.298828125, -0.873046875
91, 1537701484, -5.277163028717041, -1.9328181743621826, 7.909250259399414, -0.4683281481266022, -0.5290558338165283, -1.698582649230957, 0.264404296875, 0.298828125, -0.874267578125
92, 1537718151, -5.275760650634766, -1.9860219955444336, 7.9022321701049805, -0.4512445032596588, -0.3995068669319153, -1.79214608669281, 0.265625, 0.298828125, -0.875244140625
93, 1537734818, -5.273653507232666, -1.977328896522522, 7.89515495300293, -0.45597004890441895, -0.5547198057174683, -1.5756676197052002, 0.263916015625, 0.29931640625, -0.874267578125
94, 1537751485, -5.276248455047607, -1.946363091468811, 7.909701347351074, -0.45088592171669006, -0.7590963244438171, -1.7580811977386475, 0.264892578125, 0.29833984375, -0.874755859375
95, 1537768152, -5.264057159423828, -1.956804871559143, 7.888612747192383, -0.45946618914604187, -0.6480653285980225, -1.7319178581237793, 0.263916015625, 0.2998046875, -0.873046875
96, 1537784819, -5.261279582977295, -1.9539295434951782, 7.900616645812988, -0.2812402546405792, -0.7524882555007935, -1.6535173654556274, 0.263427734375, 0.2978515625, -0.87255859375
97, 1537801486, -5.2431488037109375, -1.9626755714416504, 7.904157638549805, -0.35623419284820557, -0.6391904950141907, -1.7121577262878418, 0.2666015625, 0.30029296875, -0.87451171875
98, 1537818153, -5.26814603805542, -1.9353199005126953, 7.898573875427246, -0.38908255100250244, -0.5738909840583801, -1.6471656560897827, 0.264404296875, 0.30029296875, -0.873779296875
99, 1537834820, -5.259084701538086, -1.9514198303222656, 7.903615951538086, -0.20906367897987366, -0.6002848148345947, -1.60824716091156, 0.265380859375, 0.29931640625, -0.875244140625
100, 1537851487, -5.2623372077941895, -1.9514161348342896, 7.897444725036621, -0.31585580110549927, -0.5300420522689819, -1.5006225109100342, 0.26708984375, 0.29736328125, -0.8740234375
101, 1537868154, -5.281057357788086, -1.934614658355713, 7.8958001136779785, -0.2914341390132904, -0.5571531057357788, -1.582186222076416, 0.26611328125, 0.29931640625, -0.876220703125
102, 1537884821, -5.26889705657959, -1.9501090049743652, 7.906187534332275, -0.43200939893722534, -0.6887767314910889, -1.68331778049469, 0.265625, 0.29736328125, -0.87255859375
103, 1537901488, -5.262340068817139, -1.9470397233963013, 7.903613567352295, -0.3434278964996338, -0.6607180833816528, -1.5871551036834717, 0.266357421875, 0.30029296875, -0.87255859375
104, 1537918155, -5.274223327636719, -1.951811671257019, 7.9022135734558105, -0.4223790764808655, -0.5794618129730225, -1.623268961906433, 0.265380859375, 0.30029296875, -0.87353515625
105, 1537934822, -5.292880535125732, -1.9409509897232056, 7.897306442260742, -0.4488254487514496, -0.5753982067108154, -1.6607246398925781, 0.264404296875, 0.2978515625, -0.8720703125
106, 1537951489, -5.273675441741943, -1.9594963788986206, 7.9111714363098145, -0.4247994124889374, -0.7717233896255493, -1.6112180948257446, 0.26708984375, 0.296142578125, -0.873046875
107, 1537968156, -5.253879070281982, -1.9715759754180908, 7.890928745269775, -0.3280474841594696, -0.7152603268623352, -1.5703275203704834, 0.2666015625, 0.29833984375, -0.877197265625
108, 1537984823, -5.261494159698486, -1.9625457525253296, 7.900444507598877, -0.4096495509147644, -0.6698745489120483, -1.5581871271133423, 0.265625, 0.29931640625, -0.876708984375
109, 1538001490, -5.261504173278809, -1.9509270191192627, 7.891877174377441, -0.41067400574684143, -0.6136801838874817, -1.5070126056671143, 0.265869140625, 0.29931640625, -0.873046875
110, 1538018157, -5.27430534362793, -1.944711685180664, 7.907416820526123, -0.28227755427360535, -0.5575500726699829, -1.5323693752288818, 0.262939453125, 0.298828125, -0.874267578125
111, 1538034824, -5.270164966583252, -1.9310351610183716, 7.888713359832764, -0.3259856104850769, -0.679210364818573, -1.4995977878570557, 0.26611328125, 0.29931640625, -0.875732421875
112, 1538051491, -5.2738728523254395, -1.9556806087493896, 7.88842248916626, -0.35409557819366455, -0.640458345413208, -1.595632791519165, 0.2666015625, 0.2998046875, -0.8740234375
113, 1538068158, -5.25752592086792, -1.9491589069366455, 7.876415252685547, -0.28686225414276123, -0.6890328526496887, -1.6296849250793457, 0.264892578125, 0.29931640625, -0.87353515625
114, 1538084825, -5.267118453979492, -1.9737292528152466, 7.911972522735596, -0.23438183963298798, -0.6561205387115479, -1.4277927875518799, 0.264404296875, 0.298828125, -0.8740234375
115, 1538101492, -5.261531352996826, -1.9598674774169922, 7.916572093963623, -0.2955705523490906, -0.4165648818016052, -1.5666903257369995, 0.2666015625, 0.29833984375, -0.87353515625
116, 1538118159, -5.28932523727417, -1.9287011623382568, 7.905542373657227, -0.36030662059783936, -0.3925914466381073, -1.4317115545272827, 0.264892578125, 0.30078125, -0.87255859375
117, 1538134826, -5.28606653213501, -1.9397993087768555, 7.877279281616211, -0.48460519313812256, -0.5094366669654846, -1.5982710123062134, 0.265380859375, 0.29833984375, -0.87353515625
118, 1538151493, -5.2662129402160645, -1.9670484066009521, 7.901886940002441, -0.26952242851257324, -0.7086777091026306, -1.6998891830444336, 0.263427734375, 0.29833984375, -0.873046875
119, 1538168160, -5.280242443084717, -1.9278665781021118, 7.905534267425537, -0.3070962727069855, -0.721625030040741, -1.507102608680725, 0.26513671875, 0.296875, -0.877685546875
120, 1538184827, -5.260000228881836, -1.95850670337677, 7.900893211364746, -0.17834122478961945, -0.7856568098068237, -1.4911842346191406, 0.26611328125, 0.2978515625, -0.875
121, 1538201494, -5.277713775634766, -1.9272751808166504, 7.929906845092773, -0.2682417929172516, -0.6489233374595642, -1.5765384435653687, 0.26611328125, 0.29638671875, -0.87451171875
122, 1538218161, -5.2643585205078125, -1.9599181413650513, 7.909378528594971, -0.29740187525749207, -0.5292608737945557, -1.6395457983016968, 0.2666015625, 0.2978515625, -0.873046875
123, 1538234828, -5.283638000488281, -1.9421848058700562, 7.8996262550354, -0.33685827255249023, -0.453818678855896, -1.6632888317108154, 0.264892578125, 0.2998046875, -0.87353515625
124, 1538251495, -5.266027450561523, -1.957807183265686, 7.920509338378906, -0.293022096157074, -0.41733330488204956, -1.6829079389572144, 0.265869140625, 0.2998046875, -0.87060546875
125, 1538268162, -5.269747734069824, -1.9486615657806396, 7.903386116027832, -0.16817298531532288, -0.6392162442207336, -1.6266626119613647, 0.2666015625, 0.29931640625, -0.8740234375
126, 1538284829, -5.2671217918396, -1.951884388923645, 7.897364616394043, -0.1790071725845337, -0.6099793314933777, -1.5860408544540405, 0.265380859375, 0.298828125, -0.87451171875
127, 1538301496, -5.261765480041504, -1.9394679069519043, 7.892767429351807, -0.15298466384410858, -0.5601113438606262, -1.6257277727127075, 0.2666015625, 0.29931640625, -0.873046875
128, 1538318163, -5.28976583480835, -1.9520385265350342, 7.919716835021973, -0.2575613260269165, -0.6776864528656006, -1.642350435256958, 0.265380859375, 0.2998046875, -0.8740234375
129, 1538334830, -5.276760578155518, -1.9423035383224487, 7.874214172363281, -0.1541244238615036, -0.6306999325752258, -1.6897464990615845, 0.264404296875, 0.296875, -0.8740234375
130, 1538351497, -5.293670177459717, -1.9412599802017212, 7.8920416831970215, -0.19442600011825562, -0.7147351503372192, -1.7031675577163696, 0.264404296875, 0.2998046875, -0.875244140625
131, 1538368164, -5.2759270668029785, -1.9502390623092651, 7.9027204513549805, -0.1901230663061142, -0.6387679576873779, -1.6560404300689697, 0.264892578125, 0.29736328125, -0.87353515625
132, 1538384831, -5.252325057983398, -1.9583625793457031, 7.894984245300293, -0.19765321910381317, -0.6761753559112549, -1.6409417390823364, 0.264892578125, 0.29931640625, -0.8740234375
133, 1538401498, -5.2926788330078125, -1.9191035032272339, 7.895252227783203, -0.2143014669418335, -0.6498711109161377, -1.6782466173171997, 0.26611328125, 0.29638671875, -0.87109375
134, 1538418165, -5.2671942710876465, -1.9427226781845093, 7.896954536437988, -0.26607757806777954, -0.6409193873405457, -1.574028491973877, 0.265625, 0.29931640625, -0.874755859375
135, 1538434832, -5.275699615478516, -1.9364206790924072, 7.9259819984436035, -0.21190668642520905, -0.678006649017334, -1.6584992408752441, 0.265380859375, 0.298828125, -0.87255859375
136, 1538451499, -5.261772632598877, -1.9493173360824585, 7.925457000732422, -0.33865106105804443, -0.7042210698127747, -1.6809228658676147, 0.265380859375, 0.29833984375, -0.874755859375
137, 1538468166, -5.269423007965088, -1.9417845010757446, 7.923572540283203, -0.2375577986240387, -0.6743311882019043, -1.6485742330551147, 0.26708984375, 0.29736328125, -0.873046875
138, 1538484833, -5.260745048522949, -1.9389963150024414, 7.895908832550049, -0.2639644742012024, -0.5551937222480774, -1.5681889057159424, 0.26513671875, 0.296875, -0.875
139, 1538501500, -5.268274784088135, -1.948405146598816, 7.884149551391602, -0.17415356636047363, -0.48185181617736816, -1.6235506534576416, 0.26513671875, 0.296875, -0.875244140625
140, 1538518167, -5.28670597076416, -1.9227464199066162, 7.89384651184082, -0.2776416838169098, -0.6160110235214233, -1.60883629322052, 0.265380859375, 0.29638671875, -0.87158203125
141, 1538534834, -5.287900447845459, -1.9372159242630005, 7.91047477722168, -0.21620959043502808, -0.8106034994125366, -1.6264064311981201, 0.264892578125, 0.29833984375, -0.875244140625
142, 1538551501, -5.237072944641113, -1.9416621923446655, 7.911685466766357, -0.18587136268615723, -0.6826425194740295, -1.7270642518997192, 0.265869140625, 0.2998046875, -0.87255859375
143, 1538568168, -5.263881206512451, -1.9414128065109253, 7.90658712387085, -0.27476024627685547, -0.4989354610443115, -1.6103858947753906, 0.265380859375, 0.29736328125, -0.8720703125
144, 1538584835, -5.292376518249512, -1.9460200071334839, 7.907008171081543, -0.23580332100391388, -0.42020195722579956, -1.5377352237701416, 0.265625, 0.29931640625, -0.874755859375
145, 1538601502, -5.281857967376709, -1.9238725900650024, 7.924167156219482, -0.2617105543613434, -0.44000059366226196, -1.5219066143035889, 0.2666015625, 0.29931640625, -0.875
146, 1538618169, -5.276627540588379, -1.9345790147781372, 7.899714469909668, -0.3045606315135956, -0.37981075048446655, -1.6108596324920654, 0.264404296875, 0.296875, -0.8740234375
147, 1538634836, -5.290931224822998, -1.9249380826950073, 7.904382228851318, -0.32296329736709595, -0.40293896198272705, -1.625138521194458, 0.26708984375, 0.29736328125, -0.8720703125
148, 1538651503, -5.298351287841797, -1.939191460609436, 7.913901329040527, -0.34011104702949524, -0.5114344358444214, -1.6684497594833374, 0.264892578125, 0.296142578125, -0.87255859375
149, 1538668170, -5.272729396820068, -1.9372992515563965, 7.898458957672119, -0.21113190054893494, -0.6132640838623047, -1.6650240421295166, 0.26611328125, 0.298828125, -0.8740234375
150, 1538684837, -5.259433746337891, -1.9582468271255493, 7.901550769805908, -0.19643661379814148, -0.7551776766777039, -1.599205732345581, 0.2666015625, 0.2978515625, -0.87353515625
151, 1538701504, -5.26863431930542, -1.9513639211654663, 7.917896270751953, -0.0573212169110775, -0.5453071594238281, -1.5635144710540771, 0.26611328125, 0.29736328125, -0.875732421875
152, 1538718171, -5.284832000732422, -1.9158722162246704, 7.905367374420166, -0.18250331282615662, -0.5189133286476135, -1.5616192817687988, 0.265625, 0.296142578125, -0.876220703125
153, 1538734838, -5.26885461807251, -1.9420462846755981, 7.89166259765625, -0.2686900198459625, -0.5721749067306519, -1.5599030256271362, 0.2666015625, 0.298828125, -0.875
154, 1538751505, -5.2810187339782715, -1.9446234703063965, 7.892462730407715, -0.19911311566829681, -0.5977362990379333, -1.6066076755523682, 0.267578125, 0.29736328125, -0.8740234375
155, 1538768172, -5.2860283851623535, -1.9455034732818604, 7.887619495391846, -0.1232098788022995, -0.7546396851539612, -1.5471094846725464, 0.2685546875, 0.29736328125, -0.875
156, 1538784839, -5.266759395599365, -1.9471951723098755, 7.898056507110596, -0.1867550164461136, -0.7509644031524658, -1.5384012460708618, 0.26513671875, 0.296875, -0.875244140625
157, 1538801506, -5.282959461212158, -1.9239901304244995, 7.893422603607178, -0.1256687045097351, -0.7752452492713928, -1.4826167821884155, 0.2666015625, 0.29736328125, -0.873046875
158, 1538818173, -5.281530857086182, -1.931952714920044, 7.910315036773682, -0.14528803527355194, -0.7266321778297424, -1.5532052516937256, 0.264404296875, 0.296142578125, -0.87353515625
159, 1538834840, -5.276792526245117, -1.9275726079940796, 7.896015644073486, -0.2233939915895462, -0.7729657292366028, -1.5143510103225708, 0.26611328125, 0.295654296875, -0.8740234375
160, 1538851507, -5.275763511657715, -1.9420104026794434, 7.9095916748046875, -0.15977203845977783, -0.6827833652496338, -1.521458387374878, 0.26611328125, 0.296875, -0.876708984375
161, 1538868174, -5.261160373687744, -1.9360356330871582, 7.911177635192871, -0.058704301714897156, -0.6039986610412598, -1.5497090816497803, 0.2666015625, 0.296142578125, -0.876220703125
162, 1538884841, -5.273311614990234, -1.925990104675293, 7.894015789031982, -0.13682304322719574, -0.6781090497970581, -1.474766492843628, 0.265625, 0.2978515625, -0.87451171875
163, 1538901508, -5.26668119430542, -1.9281924962997437, 7.912743091583252, -0.19621887803077698, -0.7385165691375732, -1.45823335647583, 0.2666015625, 0.29833984375, -0.87451171875
164, 1538918175, -5.2600483894348145, -1.930174708366394, 7.886936187744141, -0.14224013686180115, -0.6977028250694275, -1.5049126148223877, 0.265625, 0.294677734375, -0.87548828125
165, 1538934842, -5.284206390380859, -1.9285998344421387, 7.88780403137207, -0.20733480155467987, -0.6304053664207458, -1.4525346755981445, 0.26611328125, 0.295654296875, -0.876708984375
166, 1538951509, -5.304930210113525, -1.924340009689331, 7.893265247344971, -0.22627539932727814, -0.7338678240776062, -1.709391474723816, 0.2666015625, 0.29736328125, -0.87451171875
167, 1538968176, -5.244174003601074, -1.9868533611297607, 7.912383079528809, -0.1369895339012146, -0.8068128228187561, -1.4608075618743896, 0.265625, 0.295654296875, -0.87255859375
168, 1538984843, -5.268282413482666, -1.889981746673584, 7.920954704284668, -0.19405463337898254, -0.7266194224357605, -1.3797818422317505, 0.265625, 0.29833984375, -0.87353515625
169, 1539001510, -5.2568230628967285, -1.9231663942337036, 7.903835773468018, -0.25666487216949463, -0.4850148856639862, -1.628007173538208, 0.263916015625, 0.296875, -0.8720703125
170, 1539018177, -5.279677867889404, -1.9198932647705078, 7.902598857879639, -0.18702392280101776, -0.5165697932243347, -1.4894168376922607, 0.264404296875, 0.295654296875, -0.87255859375
171, 1539034844, -5.267088890075684, -1.9456545114517212, 7.925819396972656, -0.30298539996147156, -0.41876766085624695, -1.5678173303604126, 0.265625, 0.296875, -0.87451171875
172, 1539051511, -5.294602394104004, -1.92496657371521, 7.904304504394531, -0.2710976302623749, -0.47946977615356445, -1.4609100818634033, 0.26708984375, 0.296142578125, -0.8759765625
173, 1539068178, -5.268242835998535, -1.9394463300704956, 7.882669448852539, -0.25840654969215393, -0.5341272354125977, -1.562092900276184, 0.2666015625, 0.29736328125, -0.8720703125
174, 1539084845, -5.293138027191162, -1.9197770357131958, 7.8734846115112305, -0.2703932523727417, -0.6396899223327637, -1.4799015522003174, 0.26513671875, 0.295166015625, -0.875732421875
175, 1539101512, -5.267833232879639, -1.912155270576477, 7.918210029602051, -0.1377963423728943, -0.5557187795639038, -1.6772476434707642, 0.2646484375, 0.294677734375, -0.87353515625
176, 1539118179, -5.258676528930664, -1.9396299123764038, 7.898550033569336, -0.22893911600112915, -0.6375768780708313, -1.5462642908096313, 0.26708984375, 0.296142578125, -0.87255859375
177, 1539134846, -5.279192924499512, -1.9072071313858032, 7.922377586364746, -0.15759159624576569, -0.5671248435974121, -1.6273878812789917, 0.2666015625, 0.296142578125, -0.87255859375
178, 1539151513, -5.282370090484619, -1.9499874114990234, 7.906085968017578, -0.07982197403907776, -0.49146926403045654, -1.4641755819320679, 0.26708984375, 0.296875, -0.87451171875
179, 1539168180, -5.309701919555664, -1.9219317436218262, 7.900719165802002, -0.19098109006881714, -0.6088011264801025, -1.6462819576263428, 0.26708984375, 0.29736328125, -0.87548828125
180, 1539184847, -5.266038417816162, -1.9591718912124634, 7.902734756469727, -0.12329952418804169, -0.6519328951835632, -1.5411289930343628, 0.26513671875, 0.296142578125, -0.87353515625
181, 1539201514, -5.274692535400391, -1.9130847454071045, 7.913011074066162, -0.11343865096569061, -0.6792104244232178, -1.5203698873519897, 0.26611328125, 0.295654296875, -0.875
182, 1539218181, -5.271920680999756, -1.9382617473602295, 7.891743183135986, -0.07437927275896072, -0.6081222891807556, -1.5087800025939941, 0.264404296875, 0.296142578125, -0.8740234375
183, 1539234848, -5.304290771484375, -1.889917016029358, 7.882262706756592, -0.19235137104988098, -0.5973009467124939, -1.508831262588501, 0.2646484375, 0.296630859375, -0.875244140625
184, 1539251515, -5.282260894775391, -1.9076985120773315, 7.9222917556762695, -0.32324501872062683, -0.6755861043930054, -1.6254843473434448, 0.26904296875, 0.2958984375, -0.873046875
185, 1539268182, -5.280483245849609, -1.9117176532745361, 7.924219131469727, -0.288104385137558, -0.7271060943603516, -1.7832072973251343, 0.26513671875, 0.295166015625, -0.8740234375
186, 1539284849, -5.2711687088012695, -1.9235997200012207, 7.906591415405273, -0.20079074800014496, -0.8231152892112732, -1.6793222427368164, 0.26708984375, 0.29736328125, -0.87158203125
187, 1539301516, -5.2636518478393555, -1.922978401184082, 7.918853282928467, -0.15496964752674103, -0.6979076862335205, -1.5921751260757446, 0.26708984375, 0.295166015625, -0.87353515625
188, 1539318183, -5.291775703430176, -1.918988823890686, 7.916024684906006, -0.18097935616970062, -0.6763674020767212, -1.5795352458953857, 0.265625, 0.296875, -0.876220703125
189, 1539334850, -5.284498691558838, -1.8968236446380615, 7.90518045425415, -0.16805770993232727, -0.6309560537338257, -1.6866217851638794, 0.26416015625, 0.295166015625, -0.875
190, 1539351517, -5.285735130310059, -1.9074705839157104, 7.88359260559082, -0.22522525489330292, -0.6898525357246399, -1.6092332601547241, 0.26806640625, 0.295654296875, -0.87548828125
191, 1539368184, -5.264331340789795, -1.921120047569275, 7.9055352210998535, -0.30461183190345764, -0.6390112042427063, -1.7489758729934692, 0.26708984375, 0.296875, -0.87353515625
192, 1539384851, -5.280392169952393, -1.920796513557434, 7.878917694091797, -0.22070463001728058, -0.7092412710189819, -1.6690386533737183, 0.26513671875, 0.295654296875, -0.876220703125
193, 1539401518, -5.296138763427734, -1.9121192693710327, 7.912754535675049, -0.15568679571151733, -0.774540901184082, -1.5657812356948853, 0.26416015625, 0.294189453125, -0.87353515625
194, 1539418185, -5.2728352546691895, -1.9033515453338623, 7.917074680328369, -0.26365718245506287, -0.6685299277305603, -1.6723557710647583, 0.265625, 0.293701171875, -0.8759765625
195, 1539434852, -5.2874531745910645, -1.8944369554519653, 7.917365550994873, -0.3923864960670471, -0.5751459002494812, -1.7223000526428223, 0.26708984375, 0.295166015625, -0.87451171875
196, 1539451519, -5.288654804229736, -1.9077571630477905, 7.930334091186523, -0.41313281655311584, -0.5571786761283875, -1.6992104053497314, 0.265625, 0.296875, -0.87353515625
197, 1539468186, -5.275089263916016, -1.9199092388153076, 7.904010772705078, -0.3306983709335327, -0.46458879113197327, -1.6862249374389648, 0.26904296875, 0.295166015625, -0.87646484375
198, 1539484853, -5.2781243324279785, -1.9050912857055664, 7.907031059265137, -0.3212088644504547, -0.4327521324157715, -1.5997178554534912, 0.26611328125, 0.296875, -0.8740234375
199, 1539501520, -5.294264316558838, -1.9149866104125977, 7.901963710784912, -0.3332212567329407, -0.4114552140235901, -1.5445867776870728, 0.26708984375, 0.295654296875, -0.87451171875
200, 1539518187, -5.295464515686035, -1.912804365158081, 7.897828102111816, -0.3733435273170471, -0.5283771753311157, -1.689324140548706, 0.265625, 0.296875, -0.875
201, 1539534854, -5.28871488571167, -1.9130053520202637, 7.890744686126709, -0.26993224024772644, -0.5299140214920044, -1.7187787294387817, 0.2666015625, 0.296142578125, -0.8759765625
202, 1539551521, -5.267669677734375, -1.9312642812728882, 7.922268390655518, -0.2612367272377014, -0.6368085741996765, -1.6237683296203613, 0.2685546875, 0.2978515625, -0.87451171875
203, 1539568188, -5.281849384307861, -1.9263089895248413, 7.921200275421143, -0.23570089042186737, -0.5940097570419312, -1.6018439531326294, 0.26611328125, 0.295654296875, -0.875
204, 1539584855, -5.266270637512207, -1.9043205976486206, 7.892906665802002, -0.24279557168483734, -0.6392033696174622, -1.6103856563568115, 0.265625, 0.295654296875, -0.87353515625
205, 1539601522, -5.273120403289795, -1.917900562286377, 7.918353080749512, -0.19190314412117004, -0.5382893085479736, -1.666528582572937, 0.26806640625, 0.2978515625, -0.8740234375
206, 1539618189, -5.2851152420043945, -1.9155821800231934, 7.8885393142700195, -0.3187372386455536, -0.5149689316749573, -1.6002942323684692, 0.267578125, 0.295166015625, -0.87451171875
207, 1539634856, -5.278609275817871, -1.915242075920105, 7.881969928741455, -0.19500230252742767, -0.5893482565879822, -1.6726502180099487, 0.2646484375, 0.294189453125, -0.87353515625
208, 1539651523, -5.285978317260742, -1.9092615842819214, 7.898204326629639, -0.14807982742786407, -0.6094797849655151, -1.6087464094161987, 0.26708984375, 0.296142578125, -0.875
209, 1539668190, -5.289458274841309, -1.909881830215454, 7.892480373382568, -0.18985413014888763, -0.6679535508155823, -1.5995386838912964, 0.26611328125, 0.294677734375, -0.87451171875
210, 1539684857, -5.287732124328613, -1.9127819538116455, 7.892131328582764, -0.24260346591472626, -0.7463667988777161, -1.5745662450790405, 0.26806640625, 0.29736328125, -0.8759765625
211, 1539701524, -5.27431058883667, -1.911765456199646, 7.889383792877197, -0.13570888340473175, -0.6666089296340942, -1.671394944190979, 0.26806640625, 0.294189453125, -0.875
212, 1539718191, -5.276230335235596, -1.919464349746704, 7.894574165344238, -0.2210376113653183, -0.62400221824646, -1.6497524976730347, 0.26708984375, 0.294189453125, -0.875
213, 1539734858, -5.276073455810547, -1.9136229753494263, 7.902369022369385, -0.2446012943983078, -0.6432117819786072, -1.616430401802063, 0.26611328125, 0.292724609375, -0.877197265625
214, 1539751525, -5.278531074523926, -1.9093940258026123, 7.922384738922119, -0.21109986305236816, -0.6878930926322937, -1.7004014253616333, 0.2666015625, 0.296142578125, -0.87255859375
215, 1539768192, -5.276050090789795, -1.9180940389633179, 7.894543647766113, -0.18274661898612976, -0.648718535900116, -1.5707244873046875, 0.26611328125, 0.294677734375, -0.876220703125
216, 1539784859, -5.271115303039551, -1.904024362564087, 7.887276649475098, -0.1307784467935562, -0.7291167378425598, -1.5787668228149414, 0.26611328125, 0.294677734375, -0.87451171875
217, 1539801526, -5.2686686515808105, -1.906443476676941, 7.895050048828125, -0.19926679134368896, -0.6822070479393005, -1.6005630493164062, 0.26611328125, 0.295166015625, -0.87255859375
218, 1539818193, -5.269974708557129, -1.9187058210372925, 7.919856548309326, -0.30637916922569275, -0.6208006739616394, -1.6252795457839966, 0.2666015625, 0.293212890625, -0.87451171875
219, 1539834860, -5.286313533782959, -1.914429783821106, 7.900984287261963, -0.24220648407936096, -0.676277756690979, -1.6207332611083984, 0.2666015625, 0.295654296875, -0.87353515625
220, 1539851527, -5.290932655334473, -1.918336272239685, 7.938644886016846, -0.2204228788614273, -0.7690852284431458, -1.6722146272659302, 0.265625, 0.295654296875, -0.875732421875
221, 1539868194, -5.267695903778076, -1.907051682472229, 7.923275470733643, -0.2616593539714813, -0.7280154824256897, -1.5954278707504272, 0.26611328125, 0.293212890625, -0.8759765625
222, 1539884861, -5.278807163238525, -1.9073128700256348, 7.9046525955200195, -0.18617872893810272, -0.7451887726783752, -1.61626398563385, 0.26611328125, 0.295654296875, -0.8740234375
223, 1539901528, -5.2778520584106445, -1.9139364957809448, 7.914356231689453, -0.3246922194957733, -0.6430964469909668, -1.6346025466918945, 0.26806640625, 0.294677734375, -0.8740234375
224, 1539918195, -5.300297737121582, -1.8943812847137451, 7.914177894592285, -0.356080561876297, -0.6409962773323059, -1.6610349416732788, 0.26611328125, 0.295654296875, -0.8740234375
225, 1539934862, -5.266998291015625, -1.8968342542648315, 7.902177810668945, -0.30075711011886597, -0.7140948176383972, -1.6141377687454224, 0.265625, 0.293701171875, -0.875
226, 1539951529, -5.270390033721924, -1.9127227067947388, 7.876139163970947, -0.31250059604644775, -0.5969168543815613, -1.6803853511810303, 0.2666015625, 0.296142578125, -0.8740234375
227, 1539968196, -5.277642726898193, -1.9204899072647095, 7.900080680847168, -0.19365762174129486, -0.6792871952056885, -1.589895486831665, 0.263671875, 0.294189453125, -0.877685546875
228, 1539984863, -5.275178909301758, -1.9073301553726196, 7.900953769683838, -0.25900840759277344, -0.7138899564743042, -1.556944727897644, 0.26513671875, 0.295166015625, -0.876220703125
229, 1540001530, -5.284435272216797, -1.905360460281372, 7.911745071411133, -0.2656036913394928, -0.6193150877952576, -1.5449068546295166, 0.2666015625, 0.294189453125, -0.87353515625
230, 1540018197, -5.271498680114746, -1.9085890054702759, 7.890683174133301, -0.24535685777664185, -0.6605387330055237, -1.6538376808166504, 0.2666015625, 0.295654296875, -0.873046875
231, 1540034864, -5.285157680511475, -1.901169776916504, 7.909996032714844, -0.3063407242298126, -0.6508315801620483, -1.5819427967071533, 0.26708984375, 0.292236328125, -0.8759765625
232, 1540051531, -5.273833751678467, -1.9261924028396606, 7.886066913604736, -0.23267856240272522, -0.6695671081542969, -1.914638876914978, 0.2666015625, 0.292236328125, -0.87548828125
233, 1540068198, -5.2749342918396, -1.9040613174438477, 7.9082159996032715, -0.09139891713857651, -0.6994187831878662, -1.3858648538589478, 0.26806640625, 0.294677734375, -0.875
234, 1540084865, -5.2973761558532715, -1.8641197681427002, 7.9118170738220215, -0.2013414353132248, -0.5355231761932373, -1.628481149673462, 0.26611328125, 0.295654296875, -0.8740234375
235, 1540101532, -5.268834114074707, -1.9181039333343506, 7.891733646392822, -0.254910409450531, -0.6161263585090637, -1.5947749614715576, 0.2685546875, 0.293212890625, -0.872802734375
236, 1540118199, -5.288671016693115, -1.8852756023406982, 7.910102367401123, -0.28596580028533936, -0.6384093761444092, -1.596657395362854, 0.2666015625, 0.293701171875, -0.8740234375
237, 1540134866, -5.288640975952148, -1.9102952480316162, 7.911834716796875, -0.41071242094039917, -0.6585665345191956, -1.8388252258300781, 0.26806640625, 0.294189453125, -0.8740234375
238, 1540151533, -5.2790327072143555, -1.9164621829986572, 7.9056830406188965, -0.3186347484588623, -0.7417308688163757, -1.6868009567260742, 0.2646484375, 0.295654296875, -0.87451171875
239, 1540168200, -5.273282527923584, -1.9223235845565796, 7.896822452545166, -0.2781539261341095, -0.7459698915481567, -1.6270211935043335, 0.26513671875, 0.295166015625, -0.87548828125
240, 1540184867, -5.28162145614624, -1.9052364826202393, 7.898162364959717, -0.3672604262828827, -0.8132542967796326, -1.61249840259552, 0.26513671875, 0.294189453125, -0.875732421875
241, 1540201534, -5.270665645599365, -1.888291358947754, 7.8998308181762695, -0.3714481592178345, -0.6974209547042847, -1.7056008577346802, 0.2666015625, 0.294677734375, -0.876708984375
242, 1540218201, -5.277550220489502, -1.9013051986694336, 7.918190002441406, -0.44753068685531616, -0.5606107115745544, -1.7382826805114746, 0.26611328125, 0.293212890625, -0.875
243, 1540234868, -5.2792181968688965, -1.8997201919555664, 7.915063381195068, -0.3360641896724701, -0.6317628622055054, -1.6725730895996094, 0.265625, 0.295654296875, -0.87255859375
244, 1540251535, -5.2761688232421875, -1.9057711362838745, 7.895344257354736, -0.2614031732082367, -0.7423840165138245, -1.7889058589935303, 0.267578125, 0.296875, -0.877197265625
245, 1540268202, -5.279972076416016, -1.9077961444854736, 7.899023532867432, -0.23422813415527344, -0.7291678786277771, -1.7198671102523804, 0.2666015625, 0.294189453125, -0.8720703125
246, 1540284869, -5.28180456161499, -1.9203145503997803, 7.893414497375488, -0.14642778038978577, -0.9127212762832642, -1.6432595252990723, 0.2646484375, 0.295654296875, -0.8740234375
247, 1540301536, -5.275187015533447, -1.9078278541564941, 7.916369438171387, -0.17213013768196106, -0.8262785077095032, -1.649227261543274, 0.26708984375, 0.294189453125, -0.876708984375
248, 1540318203, -5.275059223175049, -1.905212640762329, 7.915351390838623, -0.201546311378479, -0.7110981345176697, -1.6191067695617676, 0.2666015625, 0.293701171875, -0.87353515625
249, 1540334870, -5.2824249267578125, -1.8985315561294556, 7.904609203338623, -0.25390109419822693, -0.7888544201850891, -1.6611216068267822, 0.265625, 0.294189453125, -0.8720703125
250, 1540351537, -5.294243812561035, -1.8903098106384277, 7.931416034698486, -0.39823904633522034, -0.7845169305801392, -1.6786305904388428, 0.265625, 0.295166015625, -0.875
251, 1540368204, -5.268625259399414, -1.9023686647415161, 7.942524433135986, -0.3474234342575073, -0.7192686796188354, -1.7428032159805298, 0.267578125, 0.294189453125, -0.87353515625
252, 1540384871, -5.280300617218018, -1.8999253511428833, 7.887217998504639, -0.44371432065963745, -0.6518431901931763, -1.7795318365097046, 0.2646484375, 0.295166015625, -0.875
253, 1540401538, -5.267724990844727, -1.9187928438186646, 7.912850379943848, -0.3406488597393036, -0.7106114625930786, -1.7932345867156982, 0.26513671875, 0.294189453125, -0.8720703125
254, 1540418205, -5.273598670959473, -1.9165467023849487, 7.913438320159912, -0.34390172362327576, -0.7157084345817566, -1.8206274509429932, 0.2646484375, 0.293701171875, -0.8740234375
255, 1540434872, -5.285796165466309, -1.914006233215332, 7.916407585144043, -0.3410714566707611, -0.6637146472930908, -1.7190985679626465, 0.2666015625, 0.29638671875, -0.87353515625
256, 1540451539, -5.2816901206970215, -1.892683744430542, 7.895236492156982, -0.383089154958725, -0.7342392206192017, -1.8023782968521118, 0.265625, 0.294677734375, -0.876220703125
257, 1540468206, -5.279496669769287, -1.895012617111206, 7.9233551025390625, -0.485898494720459, -0.6332226991653442, -1.7395504713058472, 0.265625, 0.293701171875, -0.875
258, 1540484873, -5.2795586585998535, -1.9031147956848145, 7.907530784606934, -0.506465494632721, -0.696959912776947, -1.8409767150878906, 0.26708984375, 0.295654296875, -0.877685546875
259, 1540501540, -5.281589031219482, -1.9017703533172607, 7.918987274169922, -0.4418574571609497, -0.7337782382965088, -1.8599172830581665, 0.26611328125, 0.293701171875, -0.87451171875
260, 1540518207, -5.268294811248779, -1.9234355688095093, 7.910521507263184, -0.49191737174987793, -0.6613709926605225, -1.7721296548843384, 0.263671875, 0.295166015625, -0.875732421875
261, 1540534874, -5.2676777839660645, -1.8997305631637573, 7.9369330406188965, -0.4959002435207367, -0.667812705039978, -1.7997275590896606, 0.2666015625, 0.296142578125, -0.87451171875
262, 1540551541, -5.289802074432373, -1.9014463424682617, 7.915268421173096, -0.4767547845840454, -0.6367829442024231, -1.837839126586914, 0.26416015625, 0.295654296875, -0.87451171875
263, 1540568208, -5.270956993103027, -1.9080092906951904, 7.916957855224609, -0.5036737322807312, -0.7284379005432129, -1.8672937154769897, 0.26611328125, 0.295166015625, -0.875
264, 1540584875, -5.2682623863220215, -1.9138599634170532, 7.914785385131836, -0.4821590781211853, -0.6455039978027344, -1.819987177848816, 0.2646484375, 0.295654296875, -0.87451171875
265, 1540601542, -5.279073238372803, -1.895861268043518, 7.92319917678833, -0.49972936511039734, -0.5984407067298889, -1.7534197568893433, 0.2666015625, 0.292724609375, -0.87646484375
266, 1540618209, -5.263366222381592, -1.922307014465332, 7.940977573394775, -0.5830475091934204, -0.6793256402015686, -1.8433843851089478, 0.265625, 0.294189453125, -0.873046875
267, 1540634876, -5.266881942749023, -1.9154770374298096, 7.918960094451904, -0.5385326147079468, -0.6892505288124084, -1.8370579481124878, 0.2666015625, 0.293701171875, -0.87548828125
268, 1540651543, -5.279293060302734, -1.896799921989441, 7.931448459625244, -0.49394088983535767, -0.5655667781829834, -1.7947455644607544, 0.26513671875, 0.294677734375, -0.876220703125
269, 1540668210, -5.267806529998779, -1.9072380065917969, 7.9259514808654785, -0.5592020750045776, -0.609390139579773, -1.8871434926986694, 0.265625, 0.295166015625, -0.8740234375
270, 1540684877, -5.276648044586182, -1.8944083452224731, 7.917830467224121, -0.4957337975502014, -0.592396080493927, -1.8561009168624878, 0.265625, 0.293701171875, -0.87353515625
271, 1540701544, -5.27959680557251, -1.8915473222732544, 7.897860527038574, -0.5254316926002502, -0.5752356052398682, -1.9053542613983154, 0.2646484375, 0.295654296875, -0.875732421875
272, 1540718211, -5.276118278503418, -1.9162237644195557, 7.902170658111572, -0.42791131138801575, -0.7024025917053223, -1.7712332010269165, 0.265625, 0.295654296875, -0.875
273, 1540734878, -5.267118453979492, -1.9218555688858032, 7.9217963218688965, -0.3937312066555023, -0.649781346321106, -1.8941999673843384, 0.26611328125, 0.294189453125, -0.873046875
274, 1540751545, -5.2696380615234375, -1.9209812879562378, 7.928800106048584, -0.5493540167808533, -0.670835018157959, -1.85935378074646, 0.263671875, 0.294677734375, -0.874755859375
275, 1540768212, -5.279535293579102, -1.9221299886703491, 7.89817476272583, -0.6301876902580261, -0.6929259896278381, -1.8991177082061768, 0.265625, 0.296875, -0.87451171875
276, 1540784879, -5.279822826385498, -1.9398908615112305, 7.908569812774658, -0.47578147053718567, -0.725543737411499, -1.8337538242340088, 0.265625, 0.296142578125, -0.876708984375
277, 1540801546, -5.2530622482299805, -1.924599051475525, 7.908753395080566, -0.374918669462204, -0.6796969175338745, -1.703026533126831, 0.26513671875, 0.294189453125, -0.876220703125
278, 1540818213, -5.276062488555908, -1.9043503999710083, 7.9140167236328125, -0.40598687529563904, -0.6537641286849976, -1.7059978246688843, 0.267578125, 0.295654296875, -0.873046875
279, 1540834880, -5.252336025238037, -1.8971060514450073, 7.914271354675293, -0.44320210814476013, -0.6939504146575928, -1.8201920986175537, 0.26611328125, 0.294677734375, -0.87451171875
280, 1540851547, -5.2861738204956055, -1.9063496589660645, 7.917910575866699, -0.4538569450378418, -0.7428833842277527, -1.8110865354537964, 0.2666015625, 0.292236328125, -0.8740234375
281, 1540868214, -5.273035049438477, -1.9288538694381714, 7.89511775970459, -0.46179693937301636, -0.781853199005127, -1.831282377243042, 0.26513671875, 0.295654296875, -0.876220703125
282, 1540884881, -5.2784423828125, -1.9171935319900513, 7.929563999176025, -0.3717811405658722, -0.7496581077575684, -1.8126105070114136, 0.26611328125, 0.295166015625, -0.8740234375
283, 1540901548, -5.267063617706299, -1.9060955047607422, 7.930800437927246, -0.440909743309021, -0.720958948135376, -1.7813117504119873, 0.265625, 0.293701171875, -0.87451171875
284, 1540918215, -5.275742053985596, -1.9155722856521606, 7.928962707519531, -0.35102203488349915, -0.702402651309967, -1.7321484088897705, 0.26513671875, 0.294677734375, -0.875
285, 1540934882, -5.260229587554932, -1.916945457458496, 7.904529094696045, -0.3888007402420044, -0.7675100564956665, -1.7595281600952148, 0.26513671875, 0.295654296875, -0.875244140625
286, 1540951549, -5.267029762268066, -1.9191797971725464, 7.915317058563232, -0.35990965366363525, -0.7610172629356384, -1.7869211435317993, 0.26611328125, 0.295654296875, -0.873046875
287, 1540968216, -5.283872127532959, -1.9165496826171875, 7.912745952606201, -0.5114855766296387, -0.6747024655342102, -1.8304882049560547, 0.262939453125, 0.296630859375, -0.874267578125
288, 1540984883, -5.274109840393066, -1.9195119142532349, 7.912227630615234, -0.4174742102622986, -0.7850036025047302, -1.8413352966308594, 0.26513671875, 0.296142578125, -0.873046875
289, 1541001550, -5.264214992523193, -1.9338680505752563, 7.938819885253906, -0.47599920630455017, -0.7680479288101196, -1.8451640605926514, 0.2685546875, 0.294189453125, -0.87451171875
290, 1541018217, -5.276910305023193, -1.91995108127594, 7.922835350036621, -0.4737708866596222, -0.7035423517227173, -1.8013924360275269, 0.264892578125, 0.29736328125, -0.874755859375
291, 1541034884, -5.266860485076904, -1.924332618713379, 7.935789108276367, -0.6214792728424072, -0.6428018808364868, -1.8195643424987793, 0.265625, 0.293212890625, -0.875
292, 1541051551, -5.2755126953125, -1.9144682884216309, 7.9168620109558105, -0.5201682448387146, -0.6938351988792419, -1.8560112714767456, 0.26416015625, 0.294189453125, -0.87353515625
293, 1541068218, -5.244178295135498, -1.9176249504089355, 7.924228668212891, -0.484605073928833, -0.6611021757125854, -1.7649455070495605, 0.263916015625, 0.295166015625, -0.873046875
294, 1541084885, -5.24686861038208, -1.9114385843276978, 7.938488960266113, -0.5265330672264099, -0.6424689292907715, -1.79788339138031, 0.2666015625, 0.296142578125, -0.875
295, 1541101552, -5.266674041748047, -1.9146568775177002, 7.93105411529541, -0.5673596858978271, -0.48372137546539307, -1.747592806816101, 0.26513671875, 0.294189453125, -0.875732421875
296, 1541118219, -5.286270618438721, -1.9202744960784912, 7.913565635681152, -0.59833824634552, -0.5094494223594666, -1.7468372583389282, 0.263916015625, 0.29736328125, -0.8740234375
297, 1541134886, -5.265439510345459, -1.9143428802490234, 7.928112030029297, -0.6180856227874756, -0.43564632534980774, -1.8483787775039673, 0.262939453125, 0.296875, -0.875244140625
298, 1541151553, -5.274597644805908, -1.914790153503418, 7.890981674194336, -0.5150073766708374, -0.6376537680625916, -1.9377033710479736, 0.2666015625, 0.296142578125, -0.873046875
299, 1541168220, -5.2729034423828125, -1.914901852607727, 7.90236759185791, -0.5371623635292053, -0.7979508638381958, -1.8829303979873657, 0.26708984375, 0.293701171875, -0.87646484375
300, 1541184887, -5.250761985778809, -1.9381463527679443, 7.90794038772583, -0.6143590807914734, -0.6462724804878235, -1.9210805892944336, 0.264404296875, 0.2978515625, -0.875244140625
301, 1541201554, -5.264914512634277, -1.9439069032669067, 7.90410852432251, -0.6450302600860596, -0.5026748180389404, -1.789879322052002, 0.26513671875, 0.296875, -0.876220703125
302, 1541218221, -5.278748035430908, -1.9208168983459473, 7.9254374504089355, -0.7210871577262878, -0.5380076169967651, -1.9106690883636475, 0.2646484375, 0.295166015625, -0.875244140625
303, 1541234888, -5.257364273071289, -1.926462173461914, 7.949916839599609, -0.7265810966491699, -0.4391041398048401, -1.933451533317566, 0.2666015625, 0.296875, -0.876708984375
304, 1541251555, -5.2618231773376465, -1.9028693437576294, 7.913691520690918, -0.8184409737586975, -0.3889031708240509, -1.8619917631149292, 0.26513671875, 0.296142578125, -0.875732421875
305, 1541268222, -5.272380828857422, -1.9665037393569946, 7.899957656860352, -0.8931021094322205, -0.37828680872917175, -1.8698296546936035, 0.265625, 0.296875, -0.87255859375
306, 1541284889, -5.279045581817627, -1.9371172189712524, 7.891061305999756, -0.7584049701690674, -0.5050952434539795, -1.9184298515319824, 0.265380859375, 0.2978515625, -0.87353515625
307, 1541301556, -5.274004936218262, -1.9594558477401733, 7.926548957824707, -0.8107444047927856, -0.5868638157844543, -1.9512394666671753, 0.265380859375, 0.2978515625, -0.87255859375
308, 1541318223, -5.256667613983154, -1.921854853630066, 7.919064044952393, -0.4977443814277649, -0.5902958512306213, -1.8134429454803467, 0.265625, 0.2978515625, -0.876220703125
309, 1541334890, -5.24748420715332, -1.946047306060791, 7.914570331573486, -0.45087307691574097, -0.5767338871955872, -1.8165804147720337, 0.264404296875, 0.29736328125, -0.874267578125
310, 1541351557, -5.274013519287109, -1.9369508028030396, 7.910773754119873, -0.5431941151618958, -0.43588972091674805, -1.8000988960266113, 0.265625, 0.296875, -0.8740234375
311, 1541368224, -5.2771124839782715, -1.9348373413085938, 7.918224334716797, -0.5184009671211243, -0.3000655472278595, -1.7654446363449097, 0.264892578125, 0.298828125, -0.87353515625
312, 1541384891, -5.267404556274414, -1.9263277053833008, 7.909207820892334, -0.5475738644599915, -0.4785604774951935, -1.8139424324035645, 0.2646484375, 0.295166015625, -0.873046875
313, 1541401558, -5.281632900238037, -1.945458173751831, 7.899234771728516, -0.44131961464881897, -0.5735195279121399, -1.740613341331482, 0.265625, 0.294677734375, -0.87451171875
314, 1541418225, -5.276539325714111, -1.949184536933899, 7.892577648162842, -0.4834524393081665, -0.5260720252990723, -1.7179334163665771, 0.264892578125, 0.29736328125, -0.873046875
315, 1541434892, -5.287166595458984, -1.9230778217315674, 7.905036449432373, -0.5017526745796204, -0.6726277470588684, -1.6767477989196777, 0.26416015625, 0.295654296875, -0.875732421875
316, 1541451559, -5.2678704261779785, -1.9427212476730347, 7.885502815246582, -0.44996389746665955, -0.7296545505523682, -1.7842189073562622, 0.265380859375, 0.29833984375, -0.8740234375
317, 1541468226, -5.276740074157715, -1.937266230583191, 7.9079389572143555, -0.4916357398033142, -0.6920294761657715, -1.8594434261322021, 0.2685546875, 0.29736328125, -0.8740234375
318, 1541484893, -5.268760681152344, -1.9496580362319946, 7.906615257263184, -0.4421904385089874, -0.7195759415626526, -1.8382489681243896, 0.267578125, 0.296875, -0.87255859375
319, 1541501560, -5.265422821044922, -1.960019826889038, 7.940552234649658, -0.3789142370223999, -0.8210790753364563, -1.7276405096054077, 0.2666015625, 0.29833984375, -0.876220703125
320, 1541518227, -5.273003578186035, -1.9463634490966797, 7.926894664764404, -0.28686222434043884, -0.7781649827957153, -1.7491037845611572, 0.26513671875, 0.298828125, -0.876220703125
321, 1541534894, -5.280191421508789, -1.9335787296295166, 7.909360885620117, -0.3369680643081665, -0.7013176679611206, -1.6383119821548462, 0.26513671875, 0.296630859375, -0.8740234375
322, 1541551561, -5.275473594665527, -1.9412930011749268, 7.919326305389404, -0.35743799805641174, -0.7094972729682922, -1.7703367471694946, 0.265625, 0.29736328125, -0.8740234375
323, 1541568228, -5.272552967071533, -1.9422165155410767, 7.918745517730713, -0.39954525232315063, -0.6027180552482605, -1.8166828155517578, 0.2666015625, 0.29638671875, -0.87255859375
324, 1541584895, -5.267571926116943, -1.9424614906311035, 7.89390230178833, -0.4005185663700104, -0.6428787112236023, -1.8050549030303955, 0.26708984375, 0.298828125, -0.873046875
325, 1541601562, -5.262206554412842, -1.925249695777893, 7.902091979980469, -0.3980085253715515, -0.7668057680130005, -1.7982676029205322, 0.264892578125, 0.29833984375, -0.87451171875
326, 1541618229, -5.270010948181152, -1.9465874433517456, 7.891796112060547, -0.33053189516067505, -0.7230080366134644, -1.6803467273712158, 0.26708984375, 0.2978515625, -0.87548828125
327, 1541634896, -5.276909351348877, -1.9370917081832886, 7.947608470916748, -0.4787781834602356, -0.6209542155265808, -1.6613932847976685, 0.264892578125, 0.29736328125, -0.874755859375
328, 1541651563, -5.275035381317139, -1.9335594177246094, 7.9172587394714355, -0.5480347871780396, -0.4604778587818146, -1.7479255199432373, 0.265869140625, 0.29931640625, -0.87255859375
329, 1541668230, -5.262340545654297, -1.9537129402160645, 7.893844127655029, -0.48159557580947876, -0.49120032787323, -1.7772268056869507, 0.265625, 0.296875, -0.873046875
330, 1541684897, -5.266354560852051, -1.9529531002044678, 7.907065391540527, -0.4810320734977722, -0.6075332164764404, -1.6774011850357056, 0.264892578125, 0.29736328125, -0.874755859375
331, 1541701564, -5.262209415435791, -1.9352948665618896, 7.9031805992126465, -0.41159605979919434, -0.534613847732544, -1.6655937433242798, 0.26708984375, 0.2978515625, -0.8740234375
332, 1541718231, -5.279421329498291, -1.924694538116455, 7.912740230560303, -0.44924667477607727, -0.6136929988861084, -1.7280244827270508, 0.26513671875, 0.298828125, -0.876220703125
333, 1541734898, -5.278438568115234, -1.9433594942092896, 7.902287483215332, -0.47228533029556274, -0.6188027858734131, -1.7441991567611694, 0.2666015625, 0.2978515625, -0.876708984375
334, 1541751565, -5.225094318389893, -1.9440135955810547, 7.920104503631592, -0.5543868541717529, -0.5028029084205627, -1.5995386838912964, 0.264892578125, 0.29931640625, -0.87353515625
335, 1541768232, -5.305665016174316, -1.8737292289733887, 7.919193267822266, -0.6054969429969788, -0.4982309937477112, -1.683253526687622, 0.267578125, 0.29931640625, -0.8740234375
336, 1541784899, -5.262930870056152, -1.9903620481491089, 7.878943920135498, -0.5322189927101135, -0.5333844423294067, -1.851196050643921, 0.265625, 0.296875, -0.87255859375
337, 1541801566, -5.302727699279785, -1.9486801624298096, 7.92138671875, -0.41879329085350037, -0.5690373778343201, -1.6614959239959717, 0.26513671875, 0.29736328125, -0.875244140625
338, 1541818233, -5.254326343536377, -1.943508505821228, 7.899527072906494, -0.51509690284729, -0.6196094751358032, -1.853334665298462, 0.2666015625, 0.298828125, -0.876220703125
339, 1541834900, -5.283268451690674, -1.998331904411316, 7.883706569671631, -0.42824432253837585, -0.5846225619316101, -1.5967979431152344, 0.265625, 0.29638671875, -0.87451171875
340, 1541851567, -5.267923355102539, -1.9155093431472778, 7.891063213348389, -0.42622095346450806, -0.5747746229171753, -1.6508026123046875, 0.2666015625, 0.29833984375, -0.873046875
341, 1541868234, -5.279945373535156, -1.952116847038269, 7.890646457672119, -0.5100640654563904, -0.48423367738723755, -1.749027132987976, 0.26708984375, 0.29931640625, -0.87353515625
342, 1541884901, -5.2798686027526855, -1.932948112487793, 7.909143924713135, -0.4480685293674469, -0.6098511815071106, -1.7813760042190552, 0.26806640625, 0.2978515625, -0.87451171875
343, 1541901568, -5.26501989364624, -1.9523522853851318, 7.893833160400391, -0.4451102316379547, -0.6850500106811523, -1.7710922956466675, 0.265380859375, 0.30029296875, -0.87353515625
344, 1541918235, -5.256078720092773, -1.9666085243225098, 7.898454666137695, -0.5434630513191223, -0.7421278357505798, -1.646653175354004, 0.2666015625, 0.29833984375, -0.87255859375
345, 1541934902, -5.264466285705566, -1.9488564729690552, 7.904829502105713, -0.3447597622871399, -0.569575309753418, -1.668680191040039, 0.263427734375, 0.296875, -0.87353515625
346, 1541951569, -5.266351222991943, -1.9604251384735107, 7.921787261962891, -0.37572547793388367, -0.5348443984985352, -1.6033293008804321, 0.265869140625, 0.298828125, -0.87353515625
347, 1541968236, -5.27940034866333, -1.9445942640304565, 7.908381938934326, -0.39145171642303467, -0.4656645357608795, -1.6345897912979126, 0.2666015625, 0.2978515625, -0.876220703125
348, 1541984903, -5.274839401245117, -1.9514880180358887, 7.894655227661133, -0.4374009072780609, -0.5397620797157288, -1.6586530208587646, 0.264892578125, 0.296875, -0.873046875
349, 1542001570, -5.280798435211182, -1.941399335861206, 7.886006832122803, -0.3980725407600403, -0.5012533068656921, -1.725399374961853, 0.265625, 0.298828125, -0.875244140625
350, 1542018237, -5.256629467010498, -1.9477298259735107, 7.879567623138428, -0.4070625901222229, -0.5816643238067627, -1.7361180782318115, 0.265380859375, 0.29931640625, -0.874755859375
351, 1542034904, -5.272465229034424, -1.9530677795410156, 7.899159908294678, -0.3068273067474365, -0.6569784283638, -1.7089048624038696, 0.263916015625, 0.2998046875, -0.873046875
352, 1542051571, -5.2641801834106445, -1.9610836505889893, 7.890004634857178, -0.2535400986671448, -0.6463748812675476, -1.6281862258911133, 0.264892578125, 0.2998046875, -0.87158203125
353, 1542068238, -5.262906074523926, -1.9460880756378174, 7.887226581573486, -0.2379804104566574, -0.6298419237136841, -1.591073751449585, 0.26611328125, 0.296875, -0.87353515625
354, 1542084905, -5.267617702484131, -1.948298692703247, 7.915574550628662, -0.2721477150917053, -0.5158525705337524, -1.5334962606430054, 0.26708984375, 0.29833984375, -0.87353515625
355, 1542101572, -5.2772440910339355, -1.9368857145309448, 7.933708190917969, -0.46374353766441345, -0.3559141159057617, -1.643195629119873, 0.2666015625, 0.298828125, -0.8740234375
356, 1542118239, -5.261895179748535, -1.9446660280227661, 7.892989635467529, -0.33707594871520996, -0.44285643100738525, -1.637484073638916, 0.26513671875, 0.2978515625, -0.87451171875
357, 1542134906, -5.269985198974609, -1.9539337158203125, 7.8938140869140625, -0.3673373758792877, -0.409444659948349, -1.614022970199585, 0.2666015625, 0.29638671875, -0.873046875
358, 1542151573, -5.2751336097717285, -1.9364207983016968, 7.8977484703063965, -0.4114552438259125, -0.45741724967956543, -1.666298270225525, 0.26611328125, 0.29931640625, -0.87451171875
359, 1542168240, -5.271805763244629, -1.939236044883728, 7.8928656578063965, -0.33624351024627686, -0.5413628220558167, -1.6309272050857544, 0.265625, 0.29638671875, -0.87109375
360, 1542184907, -5.283661842346191, -1.953634262084961, 7.914979934692383, -0.3294689655303955, -0.44476455450057983, -1.7035776376724243, 0.26611328125, 0.29931640625, -0.87353515625
361, 1542201574, -5.278615474700928, -1.9423003196716309, 7.923127174377441, -0.3335798382759094, -0.5357920527458191, -1.6724965572357178, 0.2666015625, 0.2978515625, -0.87353515625
362, 1542218241, -5.268774032592773, -1.9589451551437378, 7.889088153839111, -0.2082952857017517, -0.5544893145561218, -1.6081191301345825, 0.26611328125, 0.2978515625, -0.873046875
363, 1542234908, -5.2780842781066895, -1.9613714218139648, 7.905865669250488, -0.193491131067276, -0.5577293634414673, -1.5773454904556274, 0.265625, 0.2978515625, -0.873046875
364, 1542251575, -5.281820774078369, -1.9396793842315674, 7.8922810554504395, -0.26717889308929443, -0.6194431781768799, -1.573004126548767, 0.267578125, 0.298828125, -0.87451171875
365, 1542268242, -5.28242301940918, -1.9527041912078857, 7.894088268280029, -0.3185451328754425, -0.403067022562027, -1.6586272716522217, 0.26513671875, 0.29638671875, -0.8720703125
366, 1542284909, -5.26506233215332, -1.949775218963623, 7.919764995574951, -0.3405976891517639, -0.39885374903678894, -1.573272943496704, 0.26708984375, 0.296875, -0.87353515625
367, 1542301576, -5.292869567871094, -1.9575698375701904, 7.900059700012207, -0.34601473808288574, -0.34175023436546326, -1.522303581237793, 0.2666015625, 0.29931640625, -0.873046875
368, 1542318243, -5.294173240661621, -1.9444323778152466, 7.878353118896484, -0.403848260641098, -0.4239286482334137, -1.621885895729065, 0.267578125, 0.296875, -0.87548828125
369, 1542334910, -5.303764343261719, -1.9481006860733032, 7.906671047210693, -0.35891076922416687, -0.5318861603736877, -1.612844467163086, 0.2666015625, 0.2978515625, -0.8740234375
370, 1542351577, -5.285671234130859, -1.9681559801101685, 7.890705585479736, -0.37257516384124756, -0.5961484313011169, -1.6382651329040527, 0.2666015625, 0.29833984375, -0.8720703125
371, 1542368244, -5.2654008865356445, -1.957931399345398, 7.917525768280029, -0.33442503213882446, -0.6533543467521667, -1.5841072797775269, 0.26611328125, 0.298828125, -0.87255859375
372, 1542384911, -5.278682708740234, -1.9472591876983643, 7.903273105621338, -0.34062331914901733, -0.5777201056480408, -1.5532950162887573, 0.267578125, 0.296875, -0.870849609375
373, 1542401578, -5.2863287925720215, -1.9268536567687988, 7.907562732696533, -0.3431973457336426, -0.5085273385047913, -1.5885508060455322, 0.2666015625, 0.29833984375, -0.87158203125
374, 1542418245, -5.280421257019043, -1.96049165725708, 7.903231620788574, -0.34194234013557434, -0.376493901014328, -1.6451678276062012, 0.26611328125, 0.29931640625, -0.8740234375
375, 1542434912, -5.27564001083374, -1.9543240070343018, 7.906493663787842, -0.3514190912246704, -0.4243256151676178, -1.643631100654602, 0.267578125, 0.2978515625, -0.8740234375
376, 1542451579, -5.26991605758667, -1.9502112865447998, 7.919870376586914, -0.3553506135940552, -0.3799388110637665, -1.609258770942688, 0.2666015625, 0.298828125, -0.873046875
377, 1542468246, -5.288863658905029, -1.9413400888442993, 7.906960487365723, -0.3078262507915497, -0.42760398983955383, -1.5458416938781738, 0.264892578125, 0.2998046875, -0.87255859375
378, 1542484913, -5.278266906738281, -1.9321171045303345, 7.903213024139404, -0.3967534899711609, -0.42885902523994446, -1.5751041173934937, 0.26611328125, 0.29736328125, -0.87255859375
379, 1542501580, -5.287249565124512, -1.9311317205429077, 7.897558689117432, -0.4077798128128052, -0.31216761469841003, -1.5896010398864746, 0.26708984375, 0.2978515625, -0.875
380, 1542518247, -5.291149616241455, -1.9296311140060425, 7.880610942840576, -0.3308648467063904, -0.4616433084011078, -1.6845089197158813, 0.264892578125, 0.29833984375, -0.8740234375
381, 1542534914, -5.300312042236328, -1.9550137519836426, 7.885824680328369, -0.32460257411003113, -0.6296754479408264, -1.6079013347625732, 0.265869140625, 0.29931640625, -0.87353515625
382, 1542551581, -5.276480674743652, -1.950655221939087, 7.901928901672363, -0.30780062079429626, -0.5623652338981628, -1.5482107400894165, 0.26611328125, 0.29736328125, -0.87353515625
383, 1542568248, -5.279320240020752, -1.940216302871704, 7.855991363525391, -0.3345787227153778, -0.4776768684387207, -1.4775454998016357, 0.27001953125, 0.29833984375, -0.871826171875
384, 1542584915, -5.275519371032715, -1.9490582942962646, 7.898899555206299, -0.19351674616336823, -0.3994300663471222, -1.5491713285446167, 0.2685546875, 0.29638671875, -0.873046875
385, 1542601582, -5.294421195983887, -1.9335823059082031, 7.923606872558594, -0.42305779457092285, -0.3718964159488678, -1.6301331520080566, 0.26708984375, 0.298828125, -0.873046875
386, 1542618249, -5.29612922668457, -1.934517502784729, 7.883773326873779, -0.4528837502002716, -0.476050466299057, -1.6185688972473145, 0.26904296875, 0.29638671875, -0.8740234375
387, 1542634916, -5.291543960571289, -1.936475157737732, 7.8989458084106445, -0.27914005517959595, -0.6149737238883972, -1.6535688638687134, 0.2666015625, 0.29931640625, -0.875244140625
388, 1542651583, -5.3034515380859375, -1.960571050643921, 7.885847091674805, -0.17919926345348358, -0.8722788691520691, -1.68213951587677, 0.26708984375, 0.29638671875, -0.8740234375
389, 1542668250, -5.280387878417969, -1.9554262161254883, 7.913372039794922, -0.08550799638032913, -0.8168914318084717, -1.537658452987671, 0.26806640625, 0.29736328125, -0.8740234375
390, 1542684917, -5.280815124511719, -1.9546217918395996, 7.910543441772461, -0.09766122698783875, -0.7043235898017883, -1.4708606004714966, 0.26953125, 0.296875, -0.87548828125
391, 1542701584, -5.298694133758545, -1.9260149002075195, 7.914107799530029, -0.10417965054512024, -0.6590275168418884, -1.5182182788848877, 0.2666015625, 0.298828125, -0.873046875
392, 1542718251, -5.296542644500732, -1.9468679428100586, 7.892982006072998, -0.15610940754413605, -0.6847683787345886, -1.5555490255355835, 0.26904296875, 0.29931640625, -0.873046875
393, 1542734918, -5.296626091003418, -1.951385259628296, 7.918793201446533, -0.1795814037322998, -0.6661750674247742, -1.5427327156066895, 0.26611328125, 0.29736328125, -0.870361328125
394, 1542751585, -5.300565719604492, -1.9365949630737305, 7.891359329223633, -0.22046129405498505, -0.8746737837791443, -1.5101375579833984, 0.267578125, 0.30029296875, -0.87255859375
395, 1542768252, -5.291671276092529, -1.9430657625198364, 7.909646987915039, -0.20213542878627777, -0.9366437196731567, -1.5487487316131592, 0.2685546875, 0.294189453125, -0.872314453125
396, 1542784919, -5.2742719650268555, -1.933395266532898, 7.898214340209961, -0.25982803106307983, -0.8837789297103882, -1.6288907527923584, 0.267578125, 0.296875, -0.87255859375
397, 1542801586, -5.2922563552856445, -1.944474458694458, 7.923158168792725, -0.25698500871658325, -0.91169673204422, -1.6224747896194458, 0.2666015625, 0.296875, -0.87548828125
398, 1542818253, -5.295449256896973, -1.93425714969635, 7.920581340789795, -0.18520544469356537, -0.9165889024734497, -1.5428193807601929, 0.2666015625, 0.296875, -0.87548828125
399, 1542834920, -5.278228282928467, -1.9403467178344727, 7.888717174530029, -0.26291438937187195, -0.8245368599891663, -1.583518147468567, 0.267578125, 0.296875, -0.873046875
400, 1542851587, -5.283571243286133, -1.927268624305725, 7.912094593048096, -0.19844719767570496, -0.7893322706222534, -1.6263169050216675, 0.2666015625, 0.298828125, -0.873046875
401, 1542868254, -5.268875598907471, -1.9440927505493164, 7.8924994468688965, -0.18046706914901733, -0.7329073548316956, -1.5902026891708374, 0.26806640625, 0.296875, -0.8740234375
402, 1542884921, -5.281398296356201, -1.9264378547668457, 7.9279069900512695, -0.11155612021684647, -0.7187307476997375, -1.5251593589782715, 0.267578125, 0.29736328125, -0.8740234375
403, 1542901588, -5.2712907791137695, -1.9312974214553833, 7.897888660430908, -0.1286269575357437, -0.6301107406616211, -1.5659987926483154, 0.26611328125, 0.294677734375, -0.87451171875
404, 1542918255, -5.288241386413574, -1.9233031272888184, 7.8965582847595215, -0.1776881217956543, -0.5876321792602539, -1.5658453702926636, 0.2685546875, 0.29736328125, -0.8720703125
405, 1542934922, -5.285976409912109, -1.9198716878890991, 7.89815092086792, -0.2835581600666046, -0.5783987045288086, -1.7110177278518677, 0.2685546875, 0.29638671875, -0.875
406, 1542951589, -5.293951034545898, -1.9461541175842285, 7.879767417907715, -0.22495639324188232, -0.7459699511528015, -1.6034449338912964, 0.267578125, 0.295166015625, -0.87353515625
407, 1542968256, -5.27489709854126, -1.9486799240112305, 7.8804521560668945, -0.2143014371395111, -0.7398868203163147, -1.6790276765823364, 0.26611328125, 0.29638671875, -0.8720703125
408, 1542984923, -5.279741287231445, -1.936591625213623, 7.908357620239258, -0.19857527315616608, -0.6194943785667419, -1.5705708265304565, 0.26708984375, 0.2978515625, -0.8720703125
409, 1543001590, -5.296291828155518, -1.9167025089263916, 7.924079418182373, -0.2412332147359848, -0.49678394198417664, -1.4983686208724976, 0.26806640625, 0.298828125, -0.876220703125
410, 1543018257, -5.27998161315918, -1.9268286228179932, 7.910741329193115, -0.2401062250137329, -0.4353390336036682, -1.5682783126831055, 0.26611328125, 0.295166015625, -0.875
411, 1543034924, -5.284449577331543, -1.9417989253997803, 7.921318531036377, -0.4324832558631897, -0.39826470613479614, -1.5882436037063599, 0.2666015625, 0.295166015625, -0.875
412, 1543051591, -5.289496898651123, -1.939125657081604, 7.899697303771973, -0.39980146288871765, -0.44782525300979614, -1.6430035829544067, 0.26708984375, 0.295166015625, -0.873046875
413, 1543068258, -5.278469562530518, -1.947324275970459, 7.896817207336426, -0.420227587223053, -0.47444966435432434, -1.6908481121063232, 0.27001953125, 0.298828125, -0.87353515625
414, 1543084925, -5.280275344848633, -1.9386622905731201, 7.900365352630615, -0.42173874378204346, -0.49926838278770447, -1.6927050352096558, 0.2685546875, 0.29833984375, -0.87353515625
415, 1543101592, -5.298299312591553, -1.939656376838684, 7.91273832321167, -0.3364228308200836, -0.5171972513198853, -1.686621904373169, 0.26806640625, 0.29833984375, -0.87451171875
416, 1543118259, -5.288086891174316, -1.932796835899353, 7.89560079574585, -0.2866573631763458, -0.5126125812530518, -1.6199649572372437, 0.26611328125, 0.295654296875, -0.87158203125
417, 1543134926, -5.284900188446045, -1.9317976236343384, 7.9091362953186035, -0.281803697347641, -0.6760470867156982, -1.576307773590088, 0.26806640625, 0.29736328125, -0.8740234375
418, 1543151593, -5.296792030334473, -1.9150638580322266, 7.9044365882873535, -0.19752514362335205, -0.6254749298095703, -1.5726455450057983, 0.26708984375, 0.2978515625, -0.873046875
419, 1543168260, -5.284495830535889, -1.9299676418304443, 7.904580593109131, -0.2112535685300827, -0.7533976435661316, -1.555420994758606, 0.26806640625, 0.29638671875, -0.87255859375
420, 1543184927, -5.284279823303223, -1.9284567832946777, 7.901655673980713, -0.18059515953063965, -0.7023771405220032, -1.4402533769607544, 0.26953125, 0.29638671875, -0.875
421, 1543201594, -5.282926082611084, -1.9218778610229492, 7.904115200042725, -0.15233153104782104, -0.7534872889518738, -1.5381195545196533, 0.2685546875, 0.29736328125, -0.87353515625
422, 1543218261, -5.2906060218811035, -1.915828824043274, 7.88562536239624, -0.27710381150245667, -0.7086009979248047, -1.549670934677124, 0.2685546875, 0.296875, -0.87451171875
423, 1543234928, -5.282998561859131, -1.9128307104110718, 7.8841166496276855, -0.2038002610206604, -0.7474297881126404, -1.6335139274597168, 0.267578125, 0.295166015625, -0.87353515625
424, 1543251595, -5.288043022155762, -1.9185255765914917, 7.902108669281006, -0.18055669963359833, -0.8179287314414978, -1.6602790355682373, 0.26611328125, 0.29736328125, -0.87353515625
425, 1543268262, -5.27061128616333, -1.9355769157409668, 7.914972305297852, -0.2307320088148117, -0.8010372519493103, -1.593212366104126, 0.267578125, 0.29638671875, -0.8740234375
426, 1543284929, -5.289578914642334, -1.9270719289779663, 7.916930198669434, -0.2844802737236023, -0.7620546817779541, -1.6212968826293945, 0.2646484375, 0.296875, -0.876220703125
427, 1543301596, -5.29580545425415, -1.930346965789795, 7.901454448699951, -0.19730745255947113, -0.743959367275238, -1.62729012966156, 0.2666015625, 0.295654296875, -0.87548828125
428, 1543318263, -5.29067850112915, -1.939997673034668, 7.909655570983887, -0.19753791391849518, -0.8836764693260193, -1.625573992729187, 0.26806640625, 0.29638671875, -0.873046875
429, 1543334930, -5.271365642547607, -1.9193202257156372, 7.905259132385254, -0.07006353884935379, -0.887992262840271, -1.5263888835906982, 0.26806640625, 0.296875, -0.871337890625
430, 1543351597, -5.2542219161987305, -1.9356286525726318, 7.8990936279296875, -0.07031966745853424, -0.6634714007377625, -1.4444283246994019, 0.2685546875, 0.295166015625, -0.87353515625
431, 1543368264, -5.2900309562683105, -1.9077626466751099, 7.920126438140869, -0.15463665127754211, -0.6626260876655579, -1.3710862398147583, 0.26708984375, 0.29638671875, -0.875
432, 1543384931, -5.302753448486328, -1.8816921710968018, 7.924139022827148, -0.3019353151321411, -0.5408250093460083, -1.6472169160842896, 0.26708984375, 0.294189453125, -0.87353515625
433, 1543401598, -5.276763439178467, -1.9240490198135376, 7.896063327789307, -0.30991366505622864, -0.5910258889198303, -1.5979893207550049, 0.26904296875, 0.2958984375, -0.8740234375
434, 1543418265, -5.293184280395508, -1.9324672222137451, 7.886825084686279, -0.29563453793525696, -0.7188202738761902, -1.6989797353744507, 0.264892578125, 0.296875, -0.87353515625
435, 1543434932, -5.269077777862549, -1.9425549507141113, 7.923066139221191, -0.29613399505615234, -0.8769788146018982, -1.635754942893982, 0.267578125, 0.293701171875, -0.8759765625
436, 1543451599, -5.283525466918945, -1.9262930154800415, 7.927645206451416, -0.24983909726142883, -0.7651410698890686, -1.5744255781173706, 0.2666015625, 0.296142578125, -0.8740234375
437, 1543468266, -5.29145622253418, -1.915880799293518, 7.885072231292725, -0.34970295429229736, -0.7011091709136963, -1.6829206943511963, 0.2666015625, 0.296875, -0.87353515625
438, 1543484933, -5.277620315551758, -1.9375784397125244, 7.915703296661377, -0.3157789707183838, -0.677135705947876, -1.6716127395629883, 0.26806640625, 0.296142578125, -0.875
439, 1543501600, -5.271749019622803, -1.9334503412246704, 7.892198085784912, -0.19314534962177277, -0.6510747671127319, -1.6718559265136719, 0.2666015625, 0.29833984375, -0.87451171875
440, 1543518267, -5.291397571563721, -1.9135674238204956, 7.902778625488281, -0.22505882382392883, -0.6868557333946228, -1.6157387495040894, 0.26806640625, 0.29638671875, -0.87255859375
441, 1543534934, -5.291774749755859, -1.9124865531921387, 7.927610397338867, -0.2581503987312317, -0.7668057680130005, -1.6843806505203247, 0.267578125, 0.294677734375, -0.87255859375
442, 1543551601, -5.2954206466674805, -1.9217537641525269, 7.926849365234375, -0.31775110960006714, -0.762272298336029, -1.6440662145614624, 0.26611328125, 0.296142578125, -0.87353515625
443, 1543568268, -5.283216953277588, -1.9186017513275146, 7.900625705718994, -0.3102850615978241, -0.7194222807884216, -1.6045972108840942, 0.26806640625, 0.295166015625, -0.87451171875
444, 1543584935, -5.282227516174316, -1.9125704765319824, 7.895132064819336, -0.25188812613487244, -0.6092493534088135, -1.5707629919052124, 0.26904296875, 0.296142578125, -0.87646484375
445, 1543601602, -5.289495468139648, -1.912782907485962, 7.922039031982422, -0.4162576198577881, -0.4206501841545105, -1.6389822959899902, 0.26806640625, 0.296142578125, -0.87353515625
446, 1543618269, -5.2911272048950195, -1.9266968965530396, 7.892090320587158, -0.46534430980682373, -0.4301012456417084, -1.5628483295440674, 0.2666015625, 0.296875, -0.87451171875
447, 1543634936, -5.283287525177002, -1.922393560409546, 7.905608177185059, -0.5671932101249695, -0.40582039952278137, -1.7453389167785645, 0.267578125, 0.295166015625, -0.876953125
448, 1543651603, -5.289124965667725, -1.921164631843567, 7.903858661651611, -0.6960633993148804, -0.38814759254455566, -1.8239952325820923, 0.2685546875, 0.296875, -0.8720703125
449, 1543668270, -5.2863359451293945, -1.9314738512039185, 7.905147552490234, -0.42885902523994446, -0.5022906064987183, -1.754623532295227, 0.2666015625, 0.29833984375, -0.876220703125
450, 1543684937, -5.277981281280518, -1.9348998069763184, 7.893006801605225, -0.3467959463596344, -0.6537256836891174, -1.6786305904388428, 0.26806640625, 0.298828125, -0.87255859375
451, 1543701604, -5.302399635314941, -1.9184309244155884, 7.871427536010742, -0.2552049458026886, -0.5995548963546753, -1.6631864309310913, 0.2666015625, 0.294189453125, -0.87158203125
452, 1543718271, -5.291067600250244, -1.9218283891677856, 7.9032440185546875, -0.20141828060150146, -0.6985864639282227, -1.6279305219650269, 0.26708984375, 0.296142578125, -0.8759765625
453, 1543734938, -5.307065010070801, -1.9104632139205933, 7.915729522705078, -0.25067150592803955, -0.7091132998466492, -1.658115029335022, 0.267578125, 0.294189453125, -0.871826171875
454, 1543751605, -5.281092166900635, -1.9141881465911865, 7.905550003051758, -0.3108100891113281, -0.7111749649047852, -1.6685775518417358, 0.26611328125, 0.29638671875, -0.87451171875
455, 1543768272, -5.282806873321533, -1.9234119653701782, 7.907907962799072, -0.24615083634853363, -0.5881956219673157, -1.5912400484085083, 0.26806640625, 0.2958984375, -0.87255859375
456, 1543784939, -5.291425704956055, -1.9298425912857056, 7.908102035522461, -0.24201442301273346, -0.5884389877319336, -1.4972416162490845, 0.267578125, 0.29638671875, -0.876708984375
457, 1543801606, -5.29209566116333, -1.9067723751068115, 7.88913106918335, -0.22934892773628235, -0.6449534893035889, -1.5491074323654175, 0.26611328125, 0.29638671875, -0.870361328125
458, 1543818273, -5.287184238433838, -1.9270740747451782, 7.887455463409424, -0.196449413895607, -0.6046774387359619, -1.5109442472457886, 0.26513671875, 0.294677734375, -0.8740234375
459, 1543834940, -5.28475284576416, -1.9196971654891968, 7.911545753479004, -0.15689058601856232, -0.6188796162605286, -1.544356107711792, 0.26708984375, 0.292724609375, -0.871826171875
460, 1543851607, -5.311236381530762, -1.8641130924224854, 7.916626453399658, -0.05738524720072746, -0.6392800807952881, -1.8101390600204468, 0.26611328125, 0.29736328125, -0.87548828125
461, 1543868274, -5.264721393585205, -1.9858640432357788, 7.867921352386475, -0.1214810237288475, -0.7503368258476257, -1.446105718612671, 0.267578125, 0.29638671875, -0.87548828125
462, 1543884941, -5.287367820739746, -1.9273953437805176, 7.872743606567383, -0.12198047339916229, -0.7428579330444336, -1.4430323839187622, 0.26806640625, 0.2978515625, -0.87548828125
463, 1543901608, -5.287805080413818, -1.9326224327087402, 7.921670436859131, -0.15895241498947144, -0.599862277507782, -1.6400068998336792, 0.26611328125, 0.295654296875, -0.87451171875
464, 1543918275, -5.294290065765381, -1.8796461820602417, 7.941127300262451, -0.2544901967048645, -0.5843375325202942, -1.5420665740966797, 0.26806640625, 0.295166015625, -0.877197265625
465, 1543934942, -5.291546821594238, -1.9187707901000977, 7.916393280029297, -0.30637913942337036, -0.5761449337005615, -1.612959861755371, 0.267578125, 0.296875, -0.87548828125
466, 1543951609, -5.294289588928223, -1.9292691946029663, 7.895381450653076, -0.3833068907260895, -0.6840512156486511, -1.584875464439392, 0.26611328125, 0.295654296875, -0.87353515625
467, 1543968276, -5.28704309463501, -1.903511881828308, 7.903172969818115, -0.3955368995666504, -0.7328305244445801, -1.622410774230957, 0.26806640625, 0.296875, -0.873046875
468, 1543984943, -5.290950775146484, -1.9054559469223022, 7.903096675872803, -0.22941292822360992, -0.78011155128479, -1.7137584686279297, 0.270263671875, 0.295166015625, -0.875
469, 1544001610, -5.294006824493408, -1.9160733222961426, 7.901713848114014, -0.3162655532360077, -0.8566806316375732, -1.6591136455535889, 0.2666015625, 0.29736328125, -0.875
470, 1544018277, -5.265401840209961, -1.9038816690444946, 7.889904975891113, -0.22925925254821777, -0.7984630465507507, -1.739307165145874, 0.26806640625, 0.294189453125, -0.87646484375
471, 1544034944, -5.282461643218994, -1.8969265222549438, 7.900453567504883, -0.21107424795627594, -0.7302180528640747, -1.7523311376571655, 0.2666015625, 0.296142578125, -0.877197265625
472, 1544051611, -5.287118911743164, -1.908060073852539, 7.912913799285889, -0.18571767210960388, -0.6953847408294678, -1.7333778142929077, 0.265625, 0.295654296875, -0.875732421875
473, 1544068278, -5.292520523071289, -1.9104903936386108, 7.932023048400879, -0.3221821188926697, -0.7611708641052246, -1.791953682899475, 0.2666015625, 0.294677734375, -0.87353515625
474, 1544084945, -5.290462017059326, -1.9075584411621094, 7.925388336181641, -0.28372466564178467, -0.636104166507721, -1.8239569664001465, 0.26708984375, 0.295654296875, -0.8740234375
475, 1544101612, -5.282721042633057, -1.9216129779815674, 7.895622730255127, -0.3896523714065552, -0.7172644138336182, -1.7407221794128418, 0.26904296875, 0.29736328125, -0.873046875
476, 1544118279, -5.272496700286865, -1.900185465812683, 7.897760391235352, -0.258163183927536, -0.7293344140052795, -1.7344919443130493, 0.26708984375, 0.295166015625, -0.8740234375
477, 1544134946, -5.291077613830566, -1.909204363822937, 7.905924320220947, -0.38363978266716003, -0.7954534888267517, -1.7017204761505127, 0.2666015625, 0.296142578125, -0.87353515625
478, 1544151613, -5.277072906494141, -1.9017726182937622, 7.9240593910217285, -0.42189234495162964, -0.6657252311706543, -1.7998684644699097, 0.2666015625, 0.295654296875, -0.876220703125
479, 1544168280, -5.296633243560791, -1.922796368598938, 7.919491291046143, -0.44361191987991333, -0.7866172194480896, -1.8323068618774414, 0.26708984375, 0.295166015625, -0.87353515625
480, 1544184947, -5.281595230102539, -1.9143346548080444, 7.892246246337891, -0.4282954931259155, -0.6710782051086426, -1.8083844184875488, 0.26611328125, 0.296142578125, -0.87353515625
481, 1544201614, -5.266674995422363, -1.91074538230896, 7.894383907318115, -0.3953191936016083, -0.7298210263252258, -1.755507230758667, 0.26611328125, 0.296875, -0.8740234375
482, 1544218281, -5.278289794921875, -1.9135322570800781, 7.909882545471191, -0.34391453862190247, -0.6388063430786133, -1.6107571125030518, 0.2666015625, 0.294677734375, -0.87353515625
483, 1544234948, -5.267465591430664, -1.92604660987854, 7.908260345458984, -0.3112967312335968, -0.6376281380653381, -1.7197518348693848, 0.2666015625, 0.294677734375, -0.87548828125
484, 1544251615, -5.277247905731201, -1.9126883745193481, 7.9190826416015625, -0.3625349998474121, -0.5601497888565063, -1.657269835472107, 0.2685546875, 0.296875, -0.8740234375
485, 1544268282, -5.280584335327148, -1.9174692630767822, 7.91173791885376, -0.4270661175251007, -0.5804861783981323, -1.7142322063446045, 0.26708984375, 0.294677734375, -0.87646484375
486, 1544284949, -5.278385639190674, -1.922558069229126, 7.896930694580078, -0.4520385265350342, -0.5291967391967773, -1.810075044631958, 0.265625, 0.295166015625, -0.875
487, 1544301616, -5.275866508483887, -1.9268708229064941, 7.894747734069824, -0.4061533808708191, -0.633363664150238, -1.7232863903045654, 0.264892578125, 0.296142578125, -0.87255859375
488, 1544318283, -5.2981390953063965, -1.9273159503936768, 7.903131484985352, -0.3510860800743103, -0.6548782587051392, -1.6992104053497314, 0.267578125, 0.295166015625, -0.87451171875
489, 1544334950, -5.298095703125, -1.9106931686401367, 7.8991475105285645, -0.26851069927215576, -0.7930459380149841, -1.8013665676116943, 0.2685546875, 0.294677734375, -0.8740234375
490, 1544351617, -5.277264595031738, -1.9308534860610962, 7.9061994552612305, -0.24598436057567596, -0.8349483609199524, -1.7574536800384521, 0.267578125, 0.29638671875, -0.87255859375
491, 1544368284, -5.276801586151123, -1.9287307262420654, 7.89961051940918, -0.34733378887176514, -0.7077557444572449, -1.7045634984970093, 0.267578125, 0.296142578125, -0.87646484375
492, 1544384951, -5.269291400909424, -1.9060428142547607, 7.88578462600708, -0.4429588317871094, -0.7013909816741943, -1.68074369430542, 0.2666015625, 0.294189453125, -0.873046875
493, 1544401618, -5.292782306671143, -1.9143264293670654, 7.9084577560424805, -0.3099776804447174, -0.6434549689292908, -1.7279863357543945, 0.2666015625, 0.295166015625, -0.87255859375
494, 1544418285, -5.302455425262451, -1.9093958139419556, 7.909733772277832, -0.33144113421440125, -0.6806958317756653, -1.7337747812271118, 0.26708984375, 0.292236328125, -0.875
495, 1544434952, -5.287503242492676, -1.9056013822555542, 7.897304058074951, -0.31981295347213745, -0.8761847615242004, -1.7083925008773804, 0.265625, 0.29638671875, -0.87451171875
496, 1544451619, -5.2938947677612305, -1.916914463043213, 7.9217424392700195, -0.3226943612098694, -0.9975889325141907, -1.7422653436660767, 0.26708984375, 0.295654296875, -0.87451171875
497, 1544468286, -5.304419994354248, -1.9124573469161987, 7.897475242614746, -0.30627670884132385, -1.0992459058761597, -1.771425724029541, 0.2666015625, 0.295166015625, -0.87451171875
498, 1544484953, -5.295209884643555, -1.897422194480896, 7.922844886779785, -0.41497695446014404, -1.279059886932373, -1.8564084768295288, 0.26513671875, 0.29638671875, -0.87353515625
499, 1544501620, -5.26841402053833, -1.8982338905334473, 7.886007308959961, -0.33410486578941345, -1.3536183834075928, -2.0558674335479736, 0.26708984375, 0.295166015625, -0.87548828125
500, 1544518287, -5.281185150146484, -1.9233206510543823, 7.913301467895508, -0.4352237582206726, -1.3403637409210205, -2.179384708404541, 0.26611328125, 0.295654296875, -0.87255859375
501, 1544534954, -5.270036220550537, -1.8959996700286865, 7.898510456085205, -0.4911363422870636, -1.346818208694458, -2.324519157409668, 0.265625, 0.294677734375, -0.8740234375
502, 1544551621, -5.28370475769043, -1.9317151308059692, 7.891210079193115, -0.6666730046272278, -1.247248888015747, -2.353294849395752, 0.2646484375, 0.296142578125, -0.875244140625
503, 1544568288, -5.265346527099609, -1.9167999029159546, 7.887014389038086, -0.6664680242538452, -1.3732119798660278, -2.3065130710601807, 0.265625, 0.294677734375, -0.8759765625
504, 1544584955, -5.281090259552002, -1.9183472394943237, 7.900599956512451, -0.6948085427284241, -1.4767003059387207, -2.2491538524627686, 0.2666015625, 0.295654296875, -0.8740234375
505, 1544601622, -5.291832447052002, -1.8465559482574463, 7.901052951812744, -0.9133232235908508, -1.9213365316390991, -2.7912206649780273, 0.264892578125, 0.296630859375, -0.873046875
506, 1544618289, -5.277804374694824, -1.8901442289352417, 7.919866561889648, -0.958683431148529, -1.8149160146713257, -3.184965133666992, 0.261474609375, 0.295654296875, -0.873779296875
507, 1544634956, -5.22953987121582, -1.9660999774932861, 7.93340539932251, -1.0906016826629639, -1.920683741569519, -3.2187485694885254, 0.264892578125, 0.29736328125, -0.875244140625
508, 1544651623, -5.2112345695495605, -2.0152182579040527, 7.918805122375488, -0.8800138831138611, -1.8023399114608765, -2.6007773876190186, 0.262939453125, 0.2978515625, -0.877197265625
509, 1544668290, -5.240037441253662, -1.9949290752410889, 7.915862083435059, -0.4303317964076996, -1.7466069459915161, -2.0329697132110596, 0.263427734375, 0.29736328125, -0.875244140625
510, 1544684957, -5.220650672912598, -1.997205138206482, 7.900083065032959, -0.2655908763408661, -1.687735915184021, -1.9039709568023682, 0.261962890625, 0.296630859375, -0.875732421875
511, 1544701624, -5.22473669052124, -1.9252419471740723, 7.969447612762451, -0.013164927251636982, -1.4199424982070923, -1.8741326332092285, 0.263427734375, 0.2978515625, -0.876220703125
512, 1544718291, -5.196702003479004, -1.9469958543777466, 7.943310737609863, -0.07275287061929703, -1.0612108707427979, -1.7503846883773804, 0.2578125, 0.297119140625, -0.873779296875
513, 1544734958, -5.234161853790283, -1.9106855392456055, 7.910855293273926, -0.17914803326129913, -0.9211864471435547, -1.9059563875198364, 0.260986328125, 0.29833984375, -0.874267578125
514, 1544751625, -5.232851028442383, -1.892099142074585, 7.967394828796387, -0.29781168699264526, -0.7571243047714233, -2.065549373626709, 0.262451171875, 0.29931640625, -0.877685546875
515, 1544768292, -5.245931625366211, -1.9629439115524292, 7.938854217529297, -0.28424975275993347, -0.6844097971916199, -1.9690532684326172, 0.262939453125, 0.296142578125, -0.875732421875
516, 1544784959, -5.240178108215332, -1.9746729135513306, 7.922161102294922, -0.2195904701948166, -0.7245448231697083, -1.8472646474838257, 0.262939453125, 0.2978515625, -0.875244140625
517, 1544801626, -5.220772743225098, -1.967427134513855, 7.931032657623291, -0.0800652951002121, -0.8421199321746826, -1.6252281665802002, 0.262451171875, 0.296142578125, -0.875244140625
518, 1544818293, -5.227639198303223, -1.9511725902557373, 7.945524215698242, -0.03251532092690468, -0.6163312196731567, -1.616737723350525, 0.261962890625, 0.295654296875, -0.874755859375
519, 1544834960, -5.26414155960083, -1.893363118171692, 7.933652877807617, -0.07001231610774994, -0.5998750925064087, -1.665440320968628, 0.261474609375, 0.296142578125, -0.875244140625
520, 1544851627, -5.250496864318848, -1.9421662092208862, 7.930460453033447, -0.4497973620891571, -0.5567943453788757, -1.8353544473648071, 0.261962890625, 0.296630859375, -0.877197265625
521, 1544868294, -5.238682746887207, -1.9170517921447754, 7.939538478851318, -0.8205669522285461, -0.43276500701904297, -2.062347412109375, 0.261474609375, 0.297119140625, -0.876220703125
522, 1544884961, -5.227889537811279, -1.9483153820037842, 7.907553672790527, -0.749978244304657, -0.41611674427986145, -1.9127309322357178, 0.260986328125, 0.296142578125, -0.876708984375
523, 1544901628, -5.256089687347412, -1.867356300354004, 7.93166971206665, -0.6424432992935181, -0.617816686630249, -1.7559808492660522, 0.261962890625, 0.295654296875, -0.874267578125
524, 1544918295, -5.276959419250488, -1.8156192302703857, 7.907851219177246, -0.5231266021728516, -1.0814578533172607, -1.8770395517349243, 0.261474609375, 0.296630859375, -0.877685546875
525, 1544934962, -5.184084415435791, -1.9199135303497314, 7.9602227210998535, -0.905332088470459, -1.1163934469223022, -2.456577777862549, 0.262939453125, 0.296142578125, -0.875244140625
526, 1544951629, -5.218421936035156, -2.0116090774536133, 7.921821594238281, -1.0659621953964233, -0.8235637545585632, -2.8510396480560303, 0.2587890625, 0.29833984375, -0.8759765625
527, 1544968296, -5.182156085968018, -2.104644536972046, 7.91311502456665, -0.5110245943069458, -0.543770432472229, -2.0235955715179443, 0.262939453125, 0.2978515625, -0.873291015625
528, 1544984963, -5.217026233673096, -2.071690797805786, 7.907474994659424, 0.035428766161203384, -0.2902687191963196, -1.1711150407791138, 0.261962890625, 0.2978515625, -0.875244140625
529, 1545001630, -5.264764785766602, -2.0015718936920166, 7.911801815032959, 0.6099472045898438, -0.28800198435783386, -0.7409881949424744, 0.262451171875, 0.297119140625, -0.874267578125
530, 1545018297, -5.279413223266602, -1.8812370300292969, 7.944533348083496, 0.46601665019989014, -0.41780713200569153, -0.8651584982872009, 0.260986328125, 0.298828125, -0.875732421875
531, 1545034964, -5.266148090362549, -1.9352858066558838, 7.894043922424316, 0.532084584236145, -0.5574859976768494, -1.0043635368347168, 0.263427734375, 0.295166015625, -0.87255859375
532, 1545051631, -5.279726982116699, -1.9346206188201904, 7.9437642097473145, 0.13677822053432465, -0.7481597065925598, -1.2813777923583984, 0.262451171875, 0.29736328125, -0.874755859375
533, 1545068298, -5.243402004241943, -1.9391623735427856, 7.923781394958496, -0.018914978951215744, -0.7804189324378967, -1.393215537071228, 0.260498046875, 0.297119140625, -0.875732421875
534, 1545084965, -5.27030086517334, -1.933443307876587, 7.9428582191467285, 0.033290110528469086, -0.7887430787086487, -1.315762996673584, 0.262451171875, 0.293212890625, -0.875732421875
535, 1545101632, -5.231781482696533, -1.9615906476974487, 7.9437456130981445, -0.24100272357463837, -0.8391233086585999, -1.5233154296875, 0.261962890625, 0.295166015625, -0.874755859375
536, 1545118299, -5.256309986114502, -1.9335476160049438, 7.94453763961792, -0.06878703087568283, -0.794732928276062, -1.425842046737671, 0.259521484375, 0.295654296875, -0.873779296875
537, 1545134966, -5.265462875366211, -1.907866358757019, 7.931951999664307, 0.02659238502383232, -0.7753476500511169, -1.4146021604537964, 0.260009765625, 0.295654296875, -0.874755859375
538, 1545151633, -5.2367024421691895, -1.904815912246704, 7.932580471038818, -0.15121738612651825, -0.6678895950317383, -1.6475498676300049, 0.260498046875, 0.297119140625, -0.875732421875
539, 1545168300, -5.29536771774292, -1.946550965309143, 7.954949378967285, -0.42711734771728516, -0.6936047077178955, -1.7710285186767578, 0.261962890625, 0.297119140625, -0.876220703125
540, 1545184967, -5.324315547943115, -1.8969780206680298, 7.943946361541748, -0.49812862277030945, -0.8691926598548889, -2.1712656021118164, 0.260009765625, 0.2978515625, -0.87744140625
541, 1545201634, -5.419384956359863, -1.8382729291915894, 7.944357395172119, -0.3642510175704956, -1.3198609352111816, -2.8073313236236572, 0.263427734375, 0.297119140625, -0.878662109375
542, 1545218301, -5.296370983123779, -1.9688773155212402, 7.929715156555176, -1.0617103576660156, -1.5239683389663696, -3.6713240146636963, 0.261474609375, 0.296630859375, -0.876220703125
543, 1545234968, -5.150822162628174, -1.9678752422332764, 7.911787033081055, -1.1593846082687378, -0.7613760232925415, -3.7390832901000977, 0.260986328125, 0.296630859375, -0.877197265625
544, 1545251635, -5.097051620483398, -2.0598044395446777, 7.961915493011475, -1.0370581150054932, 0.9261744022369385, -3.4864261150360107, 0.262451171875, 0.296142578125, -0.876708984375
545, 1545268302, -4.950066566467285, -2.0494155883789062, 7.980101585388184, -1.682754635810852, 3.287454843521118, -2.964862823486328, 0.262939453125, 0.2998046875, -0.874755859375
546, 1545284969, -4.956917762756348, -2.0613653659820557, 8.00344181060791, -2.447601318359375, 6.331133842468262, -2.0841314792633057, 0.261962890625, 0.2998046875, -0.876708984375
547, 1545301636, -4.881852626800537, -2.1324002742767334, 8.067609786987305, -3.365407705307007, 10.371541023254395, -1.4429049491882324, 0.265380859375, 0.301025390625, -0.8740234375
548, 1545318303, -4.89005708694458, -2.0983798503875732, 8.13818645477295, -4.1697516441345215, 15.580483436584473, -0.01607198640704155, 0.27099609375, 0.300048828125, -0.872802734375
549, 1545334970, -4.798416614532471, -2.0976130962371826, 8.204365730285645, -4.988325595855713, 22.697458267211914, 1.9095391035079956, 0.275146484375, 0.302978515625, -0.86865234375
550, 1545351637, -4.650312900543213, -2.3858118057250977, 8.388757705688477, -5.380649089813232, 33.795841217041016, 6.696718215942383, 0.2841796875, 0.300537109375, -0.86572265625
551, 1545368304, -4.563610553741455, -2.2863845825195312, 8.758859634399414, -6.871952533721924, 48.92279815673828, 16.037805557250977, 0.297607421875, 0.298583984375, -0.864501953125
552, 1545384971, -4.435116767883301, -2.7321794033050537, 9.00590705871582, -10.45529842376709, 66.30078887939453, 28.27971839904785, 0.314697265625, 0.303466796875, -0.857666015625
553, 1545401638, -4.812791347503662, -2.57956862449646, 9.238288879394531, -12.969803810119629, 85.39129638671875, 40.64356994628906, 0.340576171875, 0.299560546875, -0.8466796875
554, 1545418305, -5.78018045425415, -2.481243371963501, 9.199911117553711, -17.55824089050293, 102.55035400390625, 56.265323638916016, 0.369873046875, 0.29833984375, -0.8359375
555, 1545434972, -6.053120136260986, -3.513885736465454, 9.485602378845215, -28.397655487060547, 118.73944854736328, 71.97125244140625, 0.40185546875, 0.295166015625, -0.818603515625
556, 1545451639, -7.106151580810547, -3.863185405731201, 9.491971969604492, -19.528430938720703, 123.26854705810547, 82.61872100830078, 0.441162109375, 0.290283203125, -0.8017578125
557, 1545468306, -6.928532600402832, -3.649587392807007, 9.319513320922852, -11.840545654296875, 119.10165405273438, 93.08248901367188, 0.477783203125, 0.27783203125, -0.78466796875
558, 1545484973, -4.332009792327881, -4.7247185707092285, 10.780146598815918, -6.358527183532715, 110.22331237792969, 87.21395874023438, 0.512451171875, 0.27001953125, -0.7705078125
559, 1545501640, -1.206666111946106, -4.418021202087402, 13.049318313598633, -0.4650443196296692, 85.06684112548828, 71.15119171142578, 0.5419921875, 0.25537109375, -0.75146484375
560, 1545518307, 1.1252331733703613, -5.923405647277832, 13.844060897827148, -1.7931573390960693, 48.43417739868164, 40.616302490234375, 0.558349609375, 0.249267578125, -0.74169921875
561, 1545534974, 3.10901141166687, -5.5908074378967285, 13.347959518432617, 4.3460774421691895, 16.307878494262695, 10.879066467285156, 0.56689453125, 0.244384765625, -0.73974609375
562, 1545551641, 3.465890884399414, -4.283230304718018, 13.071839332580566, 1.466296672821045, -7.1901068687438965, -16.273725509643555, 0.564453125, 0.24462890625, -0.739990234375
563, 1545568308, 2.39709210395813, -3.748194932937622, 13.307497024536133, -4.442928791046143, -30.036785125732422, -35.85327911376953, 0.559326171875, 0.25244140625, -0.74267578125
564, 1545584975, 0.5097497701644897, -3.548430919647217, 13.65884780883789, -5.368182182312012, -57.42394256591797, -47.55335235595703, 0.54248046875, 0.260009765625, -0.7509765625
565, 1545601642, -0.8925316333770752, -3.2178139686584473, 13.533207893371582, -4.469348907470703, -85.50037384033203, -55.181427001953125, 0.5205078125, 0.266845703125, -0.76318359375
566, 1545618309, -2.1413187980651855, -2.8537678718566895, 13.105541229248047, -5.374373912811279, -108.3083267211914, -60.58985137939453, 0.4951171875, 0.275390625, -0.77783203125
567, 1545634976, -3.282273769378662, -2.708848237991333, 12.381041526794434, -6.639065265655518, -124.4647216796875, -63.656761169433594, 0.458251953125, 0.286865234375, -0.796142578125
568, 1545651643, -4.310637474060059, -2.6237902641296387, 11.549734115600586, -4.662175178527832, -132.982666015625, -63.254459381103516, 0.420166015625, 0.298828125, -0.813232421875
569, 1545668310, -5.371911525726318, -2.4001657962799072, 10.902925491333008, -2.5977370738983154, -134.74755859375, -60.29127502441406, 0.385498046875, 0.302001953125, -0.828369140625
570, 1545684977, -6.340020656585693, -2.3548696041107178, 10.420063018798828, -2.3080551624298096, -134.41046142578125, -55.6143684387207, 0.346435546875, 0.3095703125, -0.841064453125
571, 1545701644, -6.822796821594238, -2.4990179538726807, 9.96174144744873, -3.3501007556915283, -133.82763671875, -50.18648910522461, 0.307861328125, 0.3173828125, -0.856201171875
572, 1545718311, -7.067974090576172, -2.6479969024658203, 9.635812759399414, -7.4638991355896, -134.765380859375, -46.94315719604492, 0.2666015625, 0.320068359375, -0.8662109375
573, 1545734978, -7.2968010902404785, -2.915139675140381, 9.547597885131836, -13.319416999816895, -136.34182739257812, -46.30563735961914, 0.227294921875, 0.329833984375, -0.87109375
574, 1545751645, -7.9971442222595215, -3.0026535987854004, 9.616884231567383, -19.25010108947754, -138.75967407226562, -48.32189178466797, 0.185546875, 0.337646484375, -0.880615234375
575, 1545768312, -8.908652305603027, -3.0147509574890137, 9.351863861083984, -24.22958755493164, -143.23226928710938, -51.994686126708984, 0.1455078125, 0.34521484375, -0.884033203125
576, 1545784979, -9.106863021850586, -2.9661715030670166, 8.279478073120117, -23.07109260559082, -146.71170043945312, -52.19514465332031, 0.099609375, 0.35302734375, -0.8876953125
577, 1545801646, -8.994831085205078, -2.331744432449341, 7.126053810119629, -22.36211395263672, -145.48904418945312, -49.09164810180664, 0.056396484375, 0.359130859375, -0.888427734375
578, 1545818313, -8.849228858947754, -1.5195988416671753, 5.839044570922852, -27.755414962768555, -137.56082153320312, -43.356937408447266, 0.011962890625, 0.3671875, -0.886474609375
579, 1545834980, -8.961265563964844, -0.7148293256759644, 4.576234340667725, -36.929195404052734, -123.46713256835938, -33.371063232421875, -0.02294921875, 0.37548828125, -0.883544921875
580, 1545851647, -9.685188293457031, -0.03469058871269226, 3.903108596801758, -50.24062728881836, -104.1551742553711, -21.771343231201172, -0.0546875, 0.386474609375, -0.87548828125
581, 1545868314, -10.718165397644043, -0.036370016634464264, 2.9951226711273193, -59.015750885009766, -86.10529327392578, -9.082051277160645, -0.0791015625, 0.4013671875, -0.86865234375
582, 1545884981, -10.95113754272461, -0.5404722094535828, 1.4582440853118896, -54.838523864746094, -66.92613220214844, 4.850744247436523, -0.09716796875, 0.416748046875, -0.858642578125
583, 1545901648, -10.974298477172852, -0.8549403548240662, -0.3433700203895569, -44.829917907714844, -40.23664855957031, 16.693326950073242, -0.109130859375, 0.42626953125, -0.850830078125
584, 1545918315, -11.106879234313965, -0.6628338694572449, -1.3793390989303589, -40.859127044677734, -7.41759729385376, 22.224971771240234, -0.1083984375, 0.439697265625, -0.848388671875
585, 1545934982, -11.804181098937988, -0.6182846426963806, -1.3088951110839844, -41.569969177246094, 24.765981674194336, 22.87775421142578, -0.0986328125, 0.447509765625, -0.842529296875
586, 1545951649, -13.370274543762207, -0.7799611687660217, -0.5845820307731628, -35.608943939208984, 47.4735107421875, 22.547956466674805, -0.085205078125, 0.463134765625, -0.836181640625
587, 1545968316, -5.709296226501465, -8.484633445739746, 1.6695765256881714, 34.610965728759766, 90.32914733886719, 18.290250778198242, -0.06982421875, 0.4619140625, -0.83837890625
588, 1545984983, 5.0352301597595215, -2.480283260345459, 17.023534774780273, 90.44490814208984, 121.57339477539062, 25.752885818481445, -0.032470703125, 0.435302734375, -0.854736328125
589, 1546001650, 0.5463988780975342, 1.3772026300430298, 4.648759841918945, 72.99678039550781, 159.5108642578125, 28.247726440429688, 0.007568359375, 0.416015625, -0.864501953125
590, 1546018317, -11.19563102722168, 1.7601321935653687, 12.30162525177002, 24.48215103149414, 181.3313751220703, 9.571196556091309, 0.05712890625, 0.40771484375, -0.863525390625
591, 1546034984, -8.715991973876953, 2.1226770877838135, 12.137435913085938, 15.26548957824707, 138.84791564941406, 16.77934455871582, 0.0986328125, 0.40185546875, -0.861572265625
592, 1546051651, -6.258338928222656, 1.1966876983642578, 10.374272346496582, 0.4751910865306854, 128.94281005859375, 41.577392578125, 0.13671875, 0.399169921875, -0.856689453125
593, 1546068318, -7.451930999755859, -4.883997917175293, 8.555105209350586, 1.7816892862319946, 119.26081085205078, 45.172874450683594, 0.173828125, 0.398681640625, -0.85205078125
594, 1546084985, -7.079181671142578, -6.606103897094727, 7.364687442779541, 18.921096801757812, 115.32706451416016, 34.2010612487793, 0.212158203125, 0.3916015625, -0.8486328125
595, 1546101652, -17.12327003479004, -7.729109287261963, 12.891536712646484, 97.0849838256836, 50.8150520324707, 56.200294494628906, 0.237060546875, 0.36572265625, -0.853271484375
596, 1546118319, -8.260099411010742, 0.4103394150733948, 9.699213981628418, 59.388851165771484, 7.532191753387451, 29.449235916137695, 0.24267578125, 0.345947265625, -0.862060546875
597, 1546134986, -5.949827194213867, -1.1745091676712036, 9.338760375976562, 35.57332992553711, -0.06769470870494843, 14.407901763916016, 0.24169921875, 0.335693359375, -0.864990234375
598, 1546151653, -6.31398344039917, -1.469184398651123, 8.793793678283691, 19.422452926635742, -1.3946776390075684, 6.196880340576172, 0.244140625, 0.32763671875, -0.866455078125
599, 1546168320, -5.32020902633667, -1.3113353252410889, 8.63965892791748, 12.349623680114746, -1.091754674911499, 3.079256057739258, 0.24462890625, 0.324462890625, -0.865966796875
600, 1546184987, -5.503594398498535, -1.5579158067703247, 8.335891723632812, 6.764871597290039, -0.08311321586370468, 0.07770253717899323, 0.2451171875, 0.3193359375, -0.868896484375
601, 1546201654, -5.109262466430664, -2.027141809463501, 8.078012466430664, 4.180613040924072, 0.22637143731117249, -0.8065438866615295, 0.248291015625, 0.31884765625, -0.869873046875
602, 1546218321, -4.843052864074707, -2.5248212814331055, 7.858565330505371, 5.824462890625, -0.42779621481895447, 1.267988920211792, 0.246337890625, 0.31982421875, -0.869384765625
603, 1546234988, -5.033568382263184, -2.191382884979248, 7.948248863220215, 7.457529544830322, -0.567551851272583, 3.2236340045928955, 0.248779296875, 0.315673828125, -0.871826171875
604, 1546251655, -5.290149688720703, -1.6078987121582031, 8.114191055297852, 5.537229537963867, -0.10106771439313889, 2.2497236728668213, 0.248779296875, 0.314697265625, -0.87060546875
605, 1546268322, -5.104099273681641, -1.6376956701278687, 8.145894050598145, 2.249326705932617, 0.7945508360862732, 0.29865047335624695, 0.25, 0.313720703125, -0.87158203125
606, 1546284989, -4.957896709442139, -1.8502775430679321, 8.127598762512207, 0.13403762876987457, 1.8117588758468628, -0.736121654510498, 0.25244140625, 0.312744140625, -0.873046875
607, 1546301656, -5.184718132019043, -1.8195384740829468, 8.087419509887695, -1.439331293106079, 2.3624579906463623, -1.1374472379684448, 0.2529296875, 0.312255859375, -0.87158203125
608, 1546318323, -5.118565082550049, -1.9959876537322998, 8.027950286865234, -1.7475180625915527, 2.6853127479553223, -0.6486291885375977, 0.25244140625, 0.314208984375, -0.87060546875
609, 1546334990, -4.995547294616699, -2.241321086883545, 7.87700891494751, 0.7830122709274292, 1.739672303199768, 1.2740206718444824, 0.25341796875, 0.313720703125, -0.87060546875
610, 1546351657, -4.8845648765563965, -2.455650806427002, 7.845650672912598, 5.41312313079834, 0.6994252800941467, 4.760856628417969, 0.254150390625, 0.31103515625, -0.87255859375
611, 1546368324, -4.8797197341918945, -2.562870502471924, 7.831274032592773, 10.771651268005371, -0.359231173992157, 7.968301773071289, 0.255615234375, 0.30908203125, -0.87255859375
612, 1546384991, -5.122750282287598, -2.2280526161193848, 7.821626663208008, 13.368169784545898, -0.8293911814689636, 9.806835174560547, 0.256103515625, 0.303955078125, -0.8740234375
613, 1546401658, -4.799985885620117, -2.043236017227173, 7.849071025848389, 12.020864486694336, 1.9828155040740967, 11.028423309326172, 0.255859375, 0.298828125, -0.87548828125
614, 1546418325, -4.541828155517578, -2.2212448120117188, 8.11650276184082, 10.35993480682373, 7.618885517120361, 15.054736137390137, 0.259033203125, 0.295166015625, -0.874755859375
615, 1546434992, -4.76651668548584, -1.7289479970932007, 8.302562713623047, 7.672001361846924, 15.007469177246094, 18.712547302246094, 0.26513671875, 0.28955078125, -0.8720703125
616, 1546451659, -4.818982124328613, -1.8555121421813965, 8.295493125915527, 4.936858177185059, 23.037221908569336, 20.34654998779297, 0.273193359375, 0.28955078125, -0.874755859375
617, 1546468326, -4.966820240020752, -2.153928518295288, 8.261824607849121, 3.752441883087158, 32.590919494628906, 23.74650764465332, 0.283935546875, 0.2841796875, -0.871826171875
618, 1546484993, -5.010866641998291, -1.941020131111145, 8.444079399108887, 0.8975226283073425, 44.24083709716797, 28.942312240600586, 0.2978515625, 0.28173828125, -0.86474609375
619, 1546501660, -4.963088035583496, -1.7698553800582886, 8.849907875061035, -4.539660930633545, 61.84785461425781, 33.05237579345703, 0.314697265625, 0.27978515625, -0.861572265625
620, 1546518327, -4.624603271484375, -1.7341046333312988, 9.192758560180664, -7.613051891326904, 87.65994262695312, 35.08191680908203, 0.3369140625, 0.2783203125, -0.853271484375
621, 1546534994, -4.829571723937988, -0.903963029384613, 9.464120864868164, -6.994438171386719, 123.42401885986328, 33.036216735839844, 0.370361328125, 0.274658203125, -0.83984375
622, 1546551661, -5.126764297485352, -0.5124428868293762, 9.460674285888672, -4.27569055557251, 164.6583709716797, 26.270784378051758, 0.409912109375, 0.2734375, -0.821533203125
623, 1546568328, -5.49367618560791, -1.3401191234588623, 9.377252578735352, -0.698482871055603, 214.12586975097656, 23.150028228759766, 0.461181640625, 0.26904296875, -0.79541015625
624, 1546584995, -5.137835502624512, -2.961334228515625, 9.485161781311035, 9.372958183288574, 263.90350341796875, 33.9202880859375, 0.523681640625, 0.26123046875, -0.759765625
625, 1546601662, -5.845651626586914, -2.4979705810546875, 9.236857414245605, 11.134079933166504, 326.7269287109375, 65.36640930175781, 0.594482421875, 0.251708984375, -0.7119140625
626, 1546618329, -6.435713291168213, -3.3990321159362793, 10.567169189453125, 15.499369621276855, 400.1883239746094, 100.70185852050781, 0.677734375, 0.230224609375, -0.638671875
627, 1546634996, -10.745988845825195, -6.611688137054443, 12.955048561096191, 7.742891311645508, 446.5997009277344, 155.09771728515625, 0.76806640625, 0.19873046875, -0.546142578125
628, 1546651663, -16.30716896057129, -7.1897873878479, 14.513181686401367, -29.646133422851562, 452.3432312011719, 207.52923583984375, 0.849609375, 0.15234375, -0.437255859375
629, 1546668330, -22.042678833007812, -6.374310493469238, 17.549020767211914, -66.50312805175781, 440.8514099121094, 206.4873504638672, 0.9130859375, 0.104248046875, -0.32177734375
630, 1546684997, -18.645463943481445, -10.03538990020752, 17.736698150634766, -57.65972137451172, 367.1307067871094, 197.29916381835938, 0.95556640625, 0.054443359375, -0.214599609375
631, 1546701664, -6.942163467407227, -10.945695877075195, 14.325547218322754, 6.260112762451172, 337.646728515625, 235.8067626953125, 0.975830078125, -0.008544921875, -0.116943359375
632, 1546718331, -20.392248153686523, -18.189786911010742, 16.96547508239746, 66.25696563720703, 337.84490966796875, 126.84557342529297, 0.98486328125, -0.062255859375, -0.02099609375
633, 1546734998, -24.30181312561035, -19.765851974487305, 27.893136978149414, 91.52256774902344, 88.7747573852539, -42.792686462402344, 0.987060546875, -0.060546875, 0.025634765625
634, 1546751665, -8.077481269836426, -12.37253189086914, 17.61422348022461, 154.67098999023438, -102.82624816894531, -132.05215454101562, 0.988037109375, -0.027587890625, 0.00830078125
635, 1546768332, -0.13899795711040497, -3.8151063919067383, 10.180240631103516, 172.54725646972656, -158.18426513671875, -144.3024444580078, 0.985107421875, 0.012451171875, -0.036865234375
636, 1546784999, 2.1389107704162598, 0.3312455117702484, 7.0814337730407715, 134.98291015625, -159.35983276367188, -142.40020751953125, 0.9814453125, 0.050537109375, -0.080078125
637, 1546801666, 1.4299020767211914, 2.9493255615234375, 6.435219764709473, 69.82455444335938, -153.49449157714844, -139.20021057128906, 0.970947265625, 0.08642578125, -0.1259765625
638, 1546818333, -0.623081624507904, 2.817885637283325, 6.581851005554199, 9.242669105529785, -156.89453125, -122.45394134521484, 0.958740234375, 0.12060546875, -0.172607421875
639, 1546835000, -4.185753345489502, 1.6271198987960815, 7.605959892272949, -12.788580894470215, -179.27285766601562, -91.97320556640625, 0.943359375, 0.148681640625, -0.218994140625
640, 1546851667, -7.918104648590088, 1.3416154384613037, 8.86922836303711, -15.869946479797363, -225.13998413085938, -66.6401138305664, 0.923583984375, 0.16845703125, -0.277587890625
641, 1546868334, -9.165607452392578, 1.627847671508789, 8.877175331115723, -23.944408416748047, -277.03082275390625, -57.331214904785156, 0.89501953125, 0.18359375, -0.3408203125
642, 1546885001, -8.729772567749023, 1.4188021421432495, 8.072941780090332, -37.90177917480469, -306.6394958496094, -60.877044677734375, 0.855224609375, 0.203125, -0.416748046875
643, 1546901668, -8.767718315124512, 0.5730181336402893, 7.559968948364258, -40.5698127746582, -316.0071105957031, -64.70096588134766, 0.8056640625, 0.22802734375, -0.48876953125
644, 1546918335, -9.633696556091309, 0.21539044380187988, 7.673615455627441, -33.43373107910156, -320.40203857421875, -67.79998779296875, 0.7509765625, 0.24658203125, -0.55810546875
645, 1546935002, -10.251581192016602, 0.21003267168998718, 8.272242546081543, -28.997739791870117, -321.5242919921875, -73.4720458984375, 0.6875, 0.265869140625, -0.621826171875
646, 1546951669, -11.179813385009766, 0.0723852664232254, 9.31064224243164, -31.611406326293945, -320.91552734375, -80.88457489013672, 0.61865234375, 0.28662109375, -0.6806640625
647, 1546968336, -12.488319396972656, -0.4841575622558594, 10.548202514648438, -34.29784393310547, -323.19940185546875, -86.77312469482422, 0.54345703125, 0.30908203125, -0.731689453125
648, 1546985003, -14.392234802246094, -1.2055517435073853, 12.158342361450195, -36.23777389526367, -328.0834045410156, -91.14930725097656, 0.458984375, 0.331787109375, -0.777587890625
649, 1547001670, -16.586275100708008, -1.8760279417037964, 13.754365921020508, -41.54414367675781, -336.5000915527344, -96.48456573486328, 0.372802734375, 0.35302734375, -0.816650390625
650, 1547018337, -19.347272872924805, -2.0959110260009766, 14.258014678955078, -53.50049591064453, -339.5749206542969, -103.04011535644531, 0.277099609375, 0.372314453125, -0.8388671875
651, 1547035004, -24.198959350585938, -2.2653982639312744, 11.732610702514648, -67.77615356445312, -336.207763671875, -105.76998901367188, 0.1767578125, 0.398193359375, -0.851318359375
652, 1547051671, -29.4671573638916, -4.289409637451172, 6.756311416625977, -53.738624572753906, -329.991455078125, -86.09806060791016, 0.0810546875, 0.415771484375, -0.859619140625
653, 1547068338, -32.28771209716797, -1.9331116676330566, 0.8213418126106262, -37.584781646728516, -321.7662048339844, -51.62959671020508, -0.009521484375, 0.42529296875, -0.85595703125
