sep=,
DeviceTag:,A,,,,,,,,,,,,,,,,,
FirmwareVersion:,2.2.1,,,,,,,,,,,,,,,,,
AppVersion:,2023.6.1,,,,,,,,,,,,,,,,,
SyncStatus:,Synced,,,,,,,,,,,,,,,,,
OutputRate:,60Hz,,,,,,,,,,,,,,,,,
FilterProfile:,General,,,,,,,,,,,,,,,,,
Measurement Mode:,Inertial Mode - Rate quantities (with mag),,,,,,,,,,,,,,,,,
StartTime:,2023-12-07 13:39:29.530 +0200,,,,,,,,,,,,,,,,,
 2023,,,,,,,,,,,,,,,,,,,

PacketCounter,SampleTimeFine,Acc_X,Acc_Y,Acc_Z,Gyr_X,Gyr_Y,Gyr_Z,Mag_X,Mag_Y,Mag_Z
1, 113232693, -6.78740930557251, -0.8511699438095093, 7.166116237640381, -2.3501060009002686, -1.613702654838562, -2.325671434402466, 1.12255859375, -0.406005859375, 0.053955078125
2, 113249360, -6.7884297370910645, -0.8661283254623413, 7.165719509124756, -2.4417741298675537, -1.5714930295944214, -2.2875473499298096, 1.12548828125, -0.405517578125, 0.053955078125
3, 113266027, -6.776057720184326, -0.8589564561843872, 7.191073894500732, -2.451712131500244, -1.5318059921264648, -2.1680893898010254, 1.1220703125, -0.406005859375, 0.053955078125
4, 113282694, -6.771656036376953, -0.8529616594314575, 7.149526119232178, -2.395171642303467, -1.5936349630355835, -2.2179956436157227, 1.120361328125, -0.406005859375, 0.053955078125
5, 113299361, -6.780943393707275, -0.8634890913963318, 7.1582183837890625, -2.284306764602661, -1.6280839443206787, -2.1934714317321777, 1.120849609375, -0.405517578125, 0.05224609375
6, 113316028, -6.77381706237793, -0.8651224374771118, 7.176229476928711, -2.2905821800231934, -1.7116841077804565, -2.277750253677368, 1.121337890625, -0.404541015625, 0.055419921875
7, 113332695, -6.777007579803467, -0.8420267701148987, 7.156630992889404, -2.3330607414245605, -1.7312006950378418, -2.2568628787994385, 1.12158203125, -0.408447265625, 0.053466796875
8, 113349362, -6.763017177581787, -0.866839587688446, 7.170450687408447, -2.36660099029541, -1.6647871732711792, -2.3016085624694824, 1.120849609375, -0.406982421875, 0.053955078125
9, 113366029, -6.7744317054748535, -0.8594849705696106, 7.160734176635742, -2.2517662048339844, -1.7370021343231201, -2.229342222213745, 1.1240234375, -0.408447265625, 0.0517578125
10, 113382696, -6.776130199432373, -0.8740536570549011, 7.181733131408691, -2.157947063446045, -1.7293055057525635, -2.264444351196289, 1.121337890625, -0.405029296875, 0.05322265625
11, 113399363, -6.764039993286133, -0.8714738488197327, 7.163869380950928, -2.0869100093841553, -1.8131099939346313, -2.038079261779785, 1.123046875, -0.405029296875, 0.052734375
12, 113416030, -6.782483100891113, -0.8459272980690002, 7.162351131439209, -2.075115203857422, -1.8136351108551025, -1.9881088733673096, 1.121337890625, -0.406494140625, 0.052734375
13, 113432697, -6.772291660308838, -0.8624978065490723, 7.161890983581543, -1.9738807678222656, -1.956618070602417, -1.9148437976837158, 1.121337890625, -0.405029296875, 0.053955078125
14, 113449364, -6.78646993637085, -0.8378252983093262, 7.1661295890808105, -2.0671112537384033, -1.8737610578536987, -2.022852659225464, 1.12451171875, -0.406982421875, 0.053955078125
15, 113466031, -6.762846946716309, -0.8526172637939453, 7.168097019195557, -2.0708374977111816, -1.7240419387817383, -1.9774025678634644, 1.123046875, -0.404541015625, 0.053466796875
16, 113482698, -6.757214069366455, -0.863918125629425, 7.154078483581543, -2.0372211933135986, -1.6051222085952759, -2.0704920291900635, 1.121826171875, -0.406494140625, 0.05224609375
17, 113499365, -6.768518447875977, -0.8503258228302002, 7.161471366882324, -2.227933645248413, -1.9543256759643555, -2.164452314376831, 1.120849609375, -0.406494140625, 0.0517578125
18, 113516032, -6.772633075714111, -0.8523728251457214, 7.167778968811035, -2.1070799827575684, -1.8978495597839355, -2.0772666931152344, 1.120849609375, -0.405517578125, 0.05322265625
19, 113532699, -6.76778507232666, -0.8475191593170166, 7.160655975341797, -2.2155628204345703, -1.9357566833496094, -2.0982437133789062, 1.121826171875, -0.406494140625, 0.0517578125
20, 113549366, -6.771615028381348, -0.8251792788505554, 7.152475833892822, -2.196058511734009, -1.8109843730926514, -2.0920963287353516, 1.12109375, -0.40869140625, 0.05224609375
21, 113566033, -6.772581577301025, -0.8479890823364258, 7.161637783050537, -2.3049635887145996, -1.704179286956787, -2.13716197013855, 1.12255859375, -0.4091796875, 0.052978515625
22, 113582700, -6.756379127502441, -0.8587616086006165, 7.167093276977539, -2.333035469055176, -1.591803789138794, -2.1992218494415283, 1.1220703125, -0.406494140625, 0.053466796875
23, 113599367, -6.774689674377441, -0.8483960032463074, 7.15763521194458, -2.323481559753418, -1.421568751335144, -2.189655065536499, 1.121337890625, -0.406494140625, 0.05126953125
24, 113616034, -6.763922691345215, -0.8442676663398743, 7.176215648651123, -2.405532121658325, -1.50309419631958, -2.2600135803222656, 1.121337890625, -0.406494140625, 0.054931640625
25, 113632701, -6.770685195922852, -0.8454013466835022, 7.163119316101074, -2.467578887939453, -1.5143766403198242, -2.323084831237793, 1.123046875, -0.406494140625, 0.053466796875
26, 113649368, -6.780073165893555, -0.8556494116783142, 7.160821437835693, -2.4976096153259277, -1.624895453453064, -2.331191301345825, 1.12255859375, -0.406494140625, 0.052490234375
27, 113666035, -6.766674995422363, -0.8343653082847595, 7.166085720062256, -2.4817683696746826, -1.5160413980484009, -2.3528082370758057, 1.123046875, -0.406982421875, 0.052490234375
28, 113682702, -6.775484085083008, -0.8483080863952637, 7.15409517288208, -2.5515503883361816, -1.5571755170822144, -2.405186653137207, 1.121826171875, -0.404541015625, 0.052734375
29, 113699369, -6.752923488616943, -0.8274160623550415, 7.178489685058594, -2.5163328647613525, -1.583044409751892, -2.4795401096343994, 1.119873046875, -0.407958984375, 0.05322265625
30, 113716036, -6.765007495880127, -0.8565589189529419, 7.171627521514893, -2.739061117172241, -1.3709455728530884, -2.5939137935638428, 1.120849609375, -0.406982421875, 0.052734375
31, 113732703, -6.765260219573975, -0.8435140252113342, 7.1696367263793945, -2.8166513442993164, -1.3748583793640137, -2.6615118980407715, 1.12255859375, -0.406982421875, 0.052490234375
32, 113749370, -6.75754451751709, -0.8813599944114685, 7.178316116333008, -2.69514799118042, -1.3462164402008057, -2.661595106124878, 1.120849609375, -0.404541015625, 0.053466796875
33, 113766037, -6.772328853607178, -0.8401200175285339, 7.155207633972168, -2.92484188079834, -1.1291357278823853, -2.693751335144043, 1.121826171875, -0.406005859375, 0.052734375
34, 113782704, -6.7684645652771, -0.8834946155548096, 7.150691509246826, -2.7631750106811523, -1.3555651903152466, -2.5277178287506104, 1.120361328125, -0.407470703125, 0.05224609375
35, 113799371, -6.775170803070068, -0.884198784828186, 7.161810398101807, -2.6122140884399414, -1.572351098060608, -2.3559844493865967, 1.122314453125, -0.405029296875, 0.052978515625
36, 113816038, -6.778936862945557, -0.8587725758552551, 7.153142929077148, -2.576509714126587, -1.5504649877548218, -2.4180569648742676, 1.121337890625, -0.406005859375, 0.05322265625
37, 113832705, -6.776690483093262, -0.8619970679283142, 7.171555519104004, -2.515474557876587, -1.4846274852752686, -2.4450907707214355, 1.122314453125, -0.405517578125, 0.053955078125
38, 113849372, -6.782511234283447, -0.8597955703735352, 7.152276515960693, -2.506113290786743, -1.6093101501464844, -2.469064474105835, 1.1220703125, -0.407470703125, 0.052734375
39, 113866039, -6.759494304656982, -0.8673925995826721, 7.130428791046143, -2.3708393573760986, -1.6944849491119385, -2.4082980155944824, 1.119384765625, -0.406982421875, 0.052734375
40, 113882706, -6.775592803955078, -0.8510042428970337, 7.157689571380615, -2.4309144020080566, -1.676171898841858, -2.3492095470428467, 1.12255859375, -0.406494140625, 0.052978515625
41, 113899373, -6.765023231506348, -0.8585053086280823, 7.17247200012207, -2.4081318378448486, -1.527772068977356, -2.306205987930298, 1.120849609375, -0.405029296875, 0.052734375
42, 113916040, -6.770580768585205, -0.8806571364402771, 7.170198440551758, -2.436971664428711, -1.5127246379852295, -2.248013973236084, 1.12353515625, -0.406005859375, 0.053955078125
43, 113932707, -6.758239269256592, -0.8617629408836365, 7.1582818031311035, -2.4335265159606934, -1.4874321222305298, -2.248155117034912, 1.120849609375, -0.405517578125, 0.053955078125
44, 113949374, -6.771096706390381, -0.8661091327667236, 7.157858848571777, -2.4587807655334473, -1.513723373413086, -2.285421371459961, 1.121826171875, -0.406005859375, 0.052734375
45, 113966041, -6.7721686363220215, -0.8668079376220703, 7.157680988311768, -2.465068817138672, -1.6332322359085083, -2.28452467918396, 1.12353515625, -0.405029296875, 0.053466796875
46, 113982708, -6.767666816711426, -0.8685282468795776, 7.158249378204346, -2.4599201679229736, -1.6140353679656982, -2.2466819286346436, 1.121337890625, -0.405517578125, 0.05322265625
47, 113999375, -6.773767471313477, -0.8609685301780701, 7.15158224105835, -2.403111696243286, -1.712964653968811, -2.2757396697998047, 1.119384765625, -0.405029296875, 0.0517578125
48, 114016042, -6.771768569946289, -0.8696058392524719, 7.15940523147583, -2.4709980487823486, -1.6062620878219604, -2.2741005420684814, 1.122314453125, -0.403564453125, 0.052734375
49, 114032709, -6.779597759246826, -0.8713801503181458, 7.175042152404785, -2.477221965789795, -1.4921960830688477, -2.3470070362091064, 1.121826171875, -0.403564453125, 0.05224609375
50, 114049376, -6.778666973114014, -0.8727272152900696, 7.163164138793945, -2.4974172115325928, -1.5277718305587769, -2.1816513538360596, 1.12255859375, -0.405029296875, 0.053466796875
51, 114066043, -6.786218643188477, -0.8613350987434387, 7.152154922485352, -2.4388670921325684, -1.4795559644699097, -2.205061435699463, 1.120849609375, -0.405029296875, 0.053466796875
52, 114082710, -6.774002552032471, -0.8673524856567383, 7.1631975173950195, -2.5098013877868652, -1.5641292333602905, -2.1852245330810547, 1.120361328125, -0.406005859375, 0.05126953125
53, 114099377, -6.768800258636475, -0.8568675518035889, 7.159474849700928, -2.4621999263763428, -1.5403733253479004, -2.212296724319458, 1.122314453125, -0.406005859375, 0.0517578125
54, 114116044, -6.773970127105713, -0.8611298203468323, 7.168609142303467, -2.3407318592071533, -1.6134594678878784, -2.213616132736206, 1.121337890625, -0.405029296875, 0.052734375
55, 114132711, -6.7627644538879395, -0.8668361306190491, 7.157097339630127, -2.4339489936828613, -1.6310551166534424, -2.1785264015197754, 1.12353515625, -0.406005859375, 0.054443359375
56, 114149378, -6.755995273590088, -0.862236499786377, 7.159872055053711, -2.336198091506958, -1.5800343751907349, -2.233760356903076, 1.12255859375, -0.406982421875, 0.052490234375
57, 114166045, -6.772843837738037, -0.8694406747817993, 7.170608997344971, -2.242199659347534, -1.675736427307129, -2.144960880279541, 1.1220703125, -0.406982421875, 0.052978515625
58, 114182712, -6.771795272827148, -0.8595986366271973, 7.187775611877441, -2.2966134548187256, -1.7522543668746948, -2.080122470855713, 1.120361328125, -0.405029296875, 0.052734375
59, 114199379, -6.7632527351379395, -0.8547796010971069, 7.157126426696777, -2.181663990020752, -1.6534022092819214, -2.1378791332244873, 1.123046875, -0.404541015625, 0.053955078125
60, 114216046, -6.781049728393555, -0.8532894253730774, 7.183721542358398, -2.237294912338257, -1.6231919527053833, -2.1023926734924316, 1.119873046875, -0.405029296875, 0.054443359375
61, 114232713, -6.769707679748535, -0.8558688163757324, 7.181119441986084, -2.196071147918701, -1.6559889316558838, -2.1383402347564697, 1.12255859375, -0.407958984375, 0.055908203125
62, 114249380, -6.7602314949035645, -0.8690108060836792, 7.166364669799805, -2.2317111492156982, -1.694023847579956, -2.1709067821502686, 1.121826171875, -0.406494140625, 0.053955078125
63, 114266047, -6.758654594421387, -0.8505547046661377, 7.161508560180664, -2.2543015480041504, -1.674250841140747, -2.179550886154175, 1.121337890625, -0.406005859375, 0.053955078125
64, 114282714, -6.756999492645264, -0.8654764294624329, 7.166119575500488, -2.232876777648926, -1.7246055603027344, -2.218841075897217, 1.12255859375, -0.405029296875, 0.052978515625
65, 114299381, -6.7798991203308105, -0.860785722732544, 7.185835838317871, -2.2658143043518066, -1.7992664575576782, -2.1699588298797607, 1.122314453125, -0.405517578125, 0.054443359375
66, 114316048, -6.778834342956543, -0.8574919700622559, 7.183618068695068, -2.2854340076446533, -1.7636265754699707, -2.2174837589263916, 1.122314453125, -0.405517578125, 0.052978515625
67, 114332715, -6.77308988571167, -0.8606331944465637, 7.158123970031738, -2.356316566467285, -1.7133485078811646, -2.2854762077331543, 1.122314453125, -0.405029296875, 0.05126953125
68, 114349382, -6.7576069831848145, -0.8438993096351624, 7.143479347229004, -2.4014856815338135, -1.7036930322647095, -2.452301025390625, 1.1220703125, -0.407470703125, 0.052978515625
69, 114366049, -6.773364543914795, -0.8772934079170227, 7.17336893081665, -2.5226080417633057, -1.5720821619033813, -2.4206695556640625, 1.125, -0.406494140625, 0.052490234375
70, 114382716, -6.779755115509033, -0.8614731431007385, 7.164994716644287, -2.5454673767089844, -1.4967041015625, -2.477670669555664, 1.120361328125, -0.406494140625, 0.05126953125
71, 114399383, -6.780652046203613, -0.8545506000518799, 7.147404193878174, -2.35585618019104, -1.4701178073883057, -2.4367921352386475, 1.121337890625, -0.403564453125, 0.0517578125
72, 114416050, -6.774819850921631, -0.8687165379524231, 7.183565616607666, -2.3983733654022217, -1.6876336336135864, -2.3575849533081055, 1.121337890625, -0.405029296875, 0.05322265625
73, 114432717, -6.7748494148254395, -0.8703405857086182, 7.17348051071167, -2.356112241744995, -1.6683471202850342, -2.3690977096557617, 1.121337890625, -0.406005859375, 0.054443359375
74, 114449384, -6.770191669464111, -0.8515976071357727, 7.1598286628723145, -2.506894588470459, -1.6493556499481201, -2.3783955574035645, 1.1240234375, -0.405029296875, 0.0517578125
75, 114466051, -6.76177978515625, -0.857201337814331, 7.169429779052734, -2.6998095512390137, -1.4806448221206665, -2.500850200653076, 1.12255859375, -0.405029296875, 0.05126953125
76, 114482718, -6.764584541320801, -0.8488997220993042, 7.178415298461914, -2.615556478500366, -1.3832526206970215, -2.5404984951019287, 1.121826171875, -0.405029296875, 0.053466796875
77, 114499385, -6.770459175109863, -0.8826184272766113, 7.144435882568359, -2.5628323554992676, -1.5522321462631226, -2.4619696140289307, 1.118896484375, -0.404052734375, 0.05322265625
78, 114516052, -6.77748441696167, -0.8868685960769653, 7.163671016693115, -2.471254348754883, -1.6572058200836182, -2.4031500816345215, 1.1220703125, -0.406494140625, 0.05224609375
79, 114532719, -6.771970272064209, -0.8725976347923279, 7.168491363525391, -2.50785493850708, -1.5858104228973389, -2.2952566146850586, 1.12158203125, -0.407958984375, 0.053955078125
80, 114549386, -6.758787631988525, -0.8679786324501038, 7.149413585662842, -2.481473684310913, -1.5864123106002808, -2.325901985168457, 1.12255859375, -0.406982421875, 0.054931640625
81, 114566053, -6.755199432373047, -0.8685423135757446, 7.174206733703613, -2.515308380126953, -1.4757270812988281, -2.3483006954193115, 1.121826171875, -0.405029296875, 0.05078125
82, 114582720, -6.7623138427734375, -0.8558929562568665, 7.164192199707031, -2.464005708694458, -1.554985523223877, -2.3927128314971924, 1.1220703125, -0.406494140625, 0.052978515625
83, 114599387, -6.759225368499756, -0.8723500370979309, 7.1767897605896, -2.4544520378112793, -1.5275285243988037, -2.377319574356079, 1.121337890625, -0.405517578125, 0.05322265625
84, 114616054, -6.770819187164307, -0.8786444664001465, 7.152842044830322, -2.46372389793396, -1.626880168914795, -2.241302967071533, 1.120849609375, -0.406005859375, 0.05322265625
85, 114632721, -6.766721725463867, -0.8747466802597046, 7.159838676452637, -2.362797498703003, -1.6448348760604858, -2.1570122241973877, 1.121826171875, -0.406005859375, 0.05224609375
86, 114649388, -6.760720252990723, -0.8734245300292969, 7.152039527893066, -2.2762646675109863, -1.6742383241653442, -2.0654211044311523, 1.121826171875, -0.406005859375, 0.05224609375
87, 114666055, -6.775213241577148, -0.8750086426734924, 7.16283655166626, -2.320831060409546, -1.6285067796707153, -2.1967499256134033, 1.122314453125, -0.40283203125, 0.053955078125
88, 114682722, -6.769041061401367, -0.8743124604225159, 7.153296947479248, -2.248628616333008, -1.709775686264038, -2.1322317123413086, 1.120849609375, -0.407470703125, 0.05078125
89, 114699389, -6.770641326904297, -0.8589411973953247, 7.163177013397217, -2.218571901321411, -1.6174288988113403, -2.065049171447754, 1.120361328125, -0.404052734375, 0.05224609375
90, 114716056, -6.766120910644531, -0.8736090660095215, 7.180899143218994, -2.286714553833008, -1.539463996887207, -2.097398281097412, 1.1220703125, -0.406494140625, 0.052734375
91, 114732723, -6.752307415008545, -0.8614597320556641, 7.155506610870361, -2.2928359508514404, -1.518999695777893, -2.0895864963531494, 1.12255859375, -0.404541015625, 0.054443359375
92, 114749390, -6.758700370788574, -0.8529816269874573, 7.15868616104126, -2.383363962173462, -1.3678717613220215, -2.068814277648926, 1.1220703125, -0.406982421875, 0.052734375
93, 114766057, -6.782346725463867, -0.8584626317024231, 7.170599460601807, -2.3197293281555176, -1.4585661888122559, -2.125495433807373, 1.121826171875, -0.406005859375, 0.054443359375
94, 114782724, -6.7736430168151855, -0.8642604351043701, 7.177019119262695, -2.3633480072021484, -1.60610830783844, -2.1679484844207764, 1.122802734375, -0.404541015625, 0.052978515625
95, 114799391, -6.770902633666992, -0.852377712726593, 7.156070709228516, -2.372389078140259, -1.5466612577438354, -2.1457293033599854, 1.120849609375, -0.408203125, 0.05224609375
96, 114816058, -6.783620834350586, -0.8547451496124268, 7.179255962371826, -2.370948314666748, -1.59768807888031, -2.1746909618377686, 1.12255859375, -0.405029296875, 0.0517578125
97, 114832725, -6.765601634979248, -0.8632426857948303, 7.169631004333496, -2.3814303874969482, -1.604520559310913, -2.1576650142669678, 1.120361328125, -0.406494140625, 0.05322265625
98, 114849392, -6.757757663726807, -0.8627259731292725, 7.187403202056885, -2.2542245388031006, -1.56309175491333, -2.1621856689453125, 1.122802734375, -0.404541015625, 0.05224609375
99, 114866059, -6.778140068054199, -0.854660153388977, 7.169540882110596, -2.2270243167877197, -1.548057198524475, -2.1347672939300537, 1.121337890625, -0.406494140625, 0.053466796875
100, 114882726, -6.756180286407471, -0.8615338802337646, 7.146796226501465, -2.2884817123413086, -1.6054424047470093, -2.2003226280212402, 1.121826171875, -0.405517578125, 0.05224609375
101, 114899393, -6.768706321716309, -0.8617844581604004, 7.17794132232666, -2.2917091846466064, -1.4892246723175049, -2.1491870880126953, 1.119873046875, -0.405029296875, 0.052734375
102, 114916060, -6.765129089355469, -0.8534903526306152, 7.152351379394531, -2.3367106914520264, -1.5105986595153809, -2.0825815200805664, 1.121826171875, -0.406494140625, 0.053955078125
103, 114932727, -6.766058444976807, -0.8603558540344238, 7.148314952850342, -2.316657781600952, -1.6004928350448608, -2.149519205093384, 1.12158203125, -0.407958984375, 0.053466796875
104, 114949394, -6.776747703552246, -0.8563224077224731, 7.165338039398193, -2.358699083328247, -1.5718129873275757, -2.1523380279541016, 1.120849609375, -0.406005859375, 0.052734375
105, 114966061, -6.775821685791016, -0.8567253351211548, 7.159716606140137, -2.3676507472991943, -1.5070255994796753, -2.2307894229888916, 1.121826171875, -0.406494140625, 0.05224609375
106, 114982728, -6.776494026184082, -0.8668721914291382, 7.164543151855469, -2.3710572719573975, -1.5845168828964233, -2.279581308364868, 1.120361328125, -0.406005859375, 0.05126953125
107, 114999395, -6.762818813323975, -0.8540257215499878, 7.1759562492370605, -2.406095504760742, -1.5828009843826294, -2.270796537399292, 1.12353515625, -0.406982421875, 0.0498046875
108, 115016062, -6.771730422973633, -0.8540678024291992, 7.176994323730469, -2.4348199367523193, -1.5441895723342896, -2.2929129600524902, 1.120849609375, -0.406494140625, 0.05322265625
109, 115032729, -6.747903347015381, -0.8535406589508057, 7.163906574249268, -2.4549965858459473, -1.4560372829437256, -2.2573049068450928, 1.121826171875, -0.406982421875, 0.05224609375
110, 115049396, -6.7661027908325195, -0.8628442883491516, 7.1702961921691895, -2.4325788021087646, -1.4642267227172852, -2.2614474296569824, 1.120849609375, -0.406005859375, 0.052734375
111, 115066063, -6.789077281951904, -0.8562836647033691, 7.170041084289551, -2.5245542526245117, -1.4302644729614258, -2.2634198665618896, 1.12255859375, -0.405517578125, 0.054443359375
112, 115082730, -6.762942314147949, -0.8638738393783569, 7.164977073669434, -2.4088616371154785, -1.399669885635376, -2.2843451499938965, 1.120849609375, -0.406005859375, 0.0517578125
113, 115099397, -6.763500690460205, -0.8666058778762817, 7.172275543212891, -2.4174675941467285, -1.4630998373031616, -2.3366336822509766, 1.121337890625, -0.405029296875, 0.05322265625
114, 115116064, -6.762232303619385, -0.8878017067909241, 7.165229320526123, -2.3786003589630127, -1.5955560207366943, -2.254007339477539, 1.12353515625, -0.404541015625, 0.052978515625
115, 115132731, -6.76966667175293, -0.8659289479255676, 7.177566051483154, -2.3721845149993896, -1.483910322189331, -2.251420259475708, 1.120849609375, -0.406494140625, 0.053466796875
116, 115149398, -6.774146556854248, -0.8482116460800171, 7.152095317840576, -2.366011619567871, -1.547775387763977, -2.2469255924224854, 1.1220703125, -0.406005859375, 0.053466796875
117, 115166065, -6.788105010986328, -0.8575645685195923, 7.164047718048096, -2.43711256980896, -1.6143044233322144, -2.3867833614349365, 1.12255859375, -0.405517578125, 0.052734375
118, 115182732, -6.782878875732422, -0.8532354235649109, 7.162569046020508, -2.449355363845825, -1.6652737855911255, -2.340578317642212, 1.120361328125, -0.406494140625, 0.0517578125
119, 115199399, -6.761857986450195, -0.8476277589797974, 7.1849493980407715, -2.498339891433716, -1.6369848251342773, -2.4015753269195557, 1.12255859375, -0.406005859375, 0.052734375
120, 115216066, -6.75812292098999, -0.8682652115821838, 7.1728129386901855, -2.6633756160736084, -1.3943171501159668, -2.5086236000061035, 1.122314453125, -0.404541015625, 0.052978515625
121, 115232733, -6.775547027587891, -0.8494343161582947, 7.176172733306885, -2.864140033721924, -1.107032060623169, -2.7495102882385254, 1.122314453125, -0.405029296875, 0.054443359375
122, 115249400, -6.766119480133057, -0.8451564908027649, 7.145476818084717, -3.2536582946777344, -0.8954968452453613, -3.1212666034698486, 1.123291015625, -0.403076171875, 0.05224609375
123, 115266067, -6.782096862792969, -0.8652145266532898, 7.140286445617676, -3.6296398639678955, -0.6818997263908386, -3.277862071990967, 1.120849609375, -0.405029296875, 0.05224609375
124, 115282734, -6.76226282119751, -0.8916596174240112, 7.109428882598877, -3.3371047973632812, -1.0547183752059937, -3.169097900390625, 1.122314453125, -0.403564453125, 0.053955078125
125, 115299401, -6.782315731048584, -0.8981480598449707, 7.163057804107666, -2.936009407043457, -1.4689908027648926, -2.850757598876953, 1.120849609375, -0.404541015625, 0.053466796875
126, 115316068, -6.778747081756592, -0.8852777481079102, 7.165709495544434, -2.549769878387451, -1.7575305700302124, -2.6507349014282227, 1.120361328125, -0.406005859375, 0.052734375
127, 115332735, -6.767623424530029, -0.8932085633277893, 7.171272277832031, -2.407632827758789, -1.9169957637786865, -2.408759593963623, 1.120849609375, -0.40234375, 0.055419921875
128, 115349402, -6.755682945251465, -0.874753475189209, 7.164346218109131, -2.4369590282440186, -1.767993688583374, -2.416776180267334, 1.121826171875, -0.403564453125, 0.053466796875
129, 115366069, -6.774224281311035, -0.8679627776145935, 7.169132232666016, -2.4959447383880615, -1.540091633796692, -2.3602871894836426, 1.122314453125, -0.403564453125, 0.053466796875
130, 115382736, -6.766019344329834, -0.88387131690979, 7.15150785446167, -2.6891028881073, -1.4421359300613403, -2.4578843116760254, 1.120849609375, -0.403564453125, 0.0537109375
131, 115399403, -6.771767616271973, -0.8815301060676575, 7.165162563323975, -2.619821071624756, -1.3795002698898315, -2.42549729347229, 1.122802734375, -0.40283203125, 0.052734375
132, 115416070, -6.763794898986816, -0.8724532127380371, 7.154830455780029, -2.5579917430877686, -1.365041732788086, -2.361311674118042, 1.120361328125, -0.403076171875, 0.05224609375
133, 115432737, -6.767000198364258, -0.8859155178070068, 7.147724628448486, -2.455284833908081, -1.4813618659973145, -2.3736186027526855, 1.121337890625, -0.406005859375, 0.055908203125
134, 115449404, -6.763639450073242, -0.8766135573387146, 7.149285316467285, -2.542649507522583, -1.287396788597107, -2.4209253787994385, 1.120849609375, -0.403076171875, 0.054931640625
135, 115466071, -6.788321018218994, -0.8707602024078369, 7.151912212371826, -2.709439516067505, -1.3178887367248535, -2.5313546657562256, 1.121826171875, -0.403564453125, 0.052734375
136, 115482738, -6.77345609664917, -0.8830400109291077, 7.171867847442627, -2.695967674255371, -1.3814852237701416, -2.596987247467041, 1.123046875, -0.404052734375, 0.052978515625
137, 115499405, -6.748414993286133, -0.8899438381195068, 7.161404609680176, -2.565291166305542, -1.4627541303634644, -2.567826986312866, 1.122802734375, -0.403076171875, 0.052734375
138, 115516072, -6.77631139755249, -0.8836852312088013, 7.171088218688965, -2.674286127090454, -1.324458360671997, -2.5084054470062256, 1.122314453125, -0.403564453125, 0.053466796875
139, 115532739, -6.7871503829956055, -0.8776399493217468, 7.16310453414917, -2.771653175354004, -1.2423337697982788, -2.5434834957122803, 1.121337890625, -0.403076171875, 0.054931640625
140, 115549406, -6.771602153778076, -0.8984665870666504, 7.150520324707031, -2.608461618423462, -1.0809201002120972, -2.3994874954223633, 1.120849609375, -0.404541015625, 0.055419921875
141, 115566073, -6.776630401611328, -0.9046295881271362, 7.146224498748779, -2.510723114013672, -1.215450644493103, -2.3199214935302734, 1.121826171875, -0.403076171875, 0.053955078125
142, 115582740, -6.760593414306641, -0.8992250561714172, 7.162933349609375, -2.3838250637054443, -1.2662533521652222, -2.200374126434326, 1.121337890625, -0.404052734375, 0.055419921875
143, 115599407, -6.779653072357178, -0.9086824655532837, 7.137739181518555, -2.2299695014953613, -1.300279974937439, -2.0638840198516846, 1.12353515625, -0.40234375, 0.056396484375
144, 115616074, -6.778511047363281, -0.9226371049880981, 7.1504034996032715, -2.105863332748413, -1.5979379415512085, -1.884006142616272, 1.123046875, -0.4033203125, 0.054443359375
145, 115632741, -6.768467426300049, -0.8673729300498962, 7.159297943115234, -2.302440881729126, -1.4483468532562256, -2.060093402862549, 1.12353515625, -0.404541015625, 0.055908203125
146, 115649408, -6.785867214202881, -0.8499680757522583, 7.154722213745117, -2.6944305896759033, -0.9375529885292053, -2.4002044200897217, 1.122802734375, -0.4033203125, 0.056396484375
147, 115666075, -6.803563594818115, -0.8480388522148132, 7.162999153137207, -3.3599767684936523, -0.6821686625480652, -3.044837713241577, 1.12353515625, -0.404052734375, 0.054931640625
148, 115682742, -6.807581424713135, -0.8858479261398315, 7.127020359039307, -3.5014615058898926, -0.8169556260108948, -3.2065951824188232, 1.122802734375, -0.40283203125, 0.053955078125
149, 115699409, -6.8076887130737305, -0.8724627494812012, 7.1500749588012695, -3.421600818634033, -1.270351529121399, -3.2832794189453125, 1.121826171875, -0.403076171875, 0.056884765625
150, 115716076, -6.795939922332764, -0.8926767706871033, 7.150842666625977, -3.2901816368103027, -1.4601672887802124, -3.3024117946624756, 1.122314453125, -0.400390625, 0.055419921875
151, 115732743, -6.784631729125977, -0.9110593795776367, 7.145123481750488, -3.109126091003418, -1.4422128200531006, -3.1114182472229004, 1.12451171875, -0.4033203125, 0.053466796875
152, 115749410, -6.781780242919922, -0.939611554145813, 7.131227016448975, -2.8617069721221924, -1.6021127700805664, -2.875870704650879, 1.12353515625, -0.40283203125, 0.055419921875
153, 115766077, -6.78680419921875, -0.9112851023674011, 7.154384613037109, -2.6793057918548584, -1.7253609895706177, -2.6031339168548584, 1.120849609375, -0.40234375, 0.055419921875
154, 115782744, -6.764352798461914, -0.9221841096878052, 7.1299638748168945, -2.521045446395874, -1.8387744426727295, -2.5294976234436035, 1.122802734375, -0.4013671875, 0.055419921875
155, 115799411, -6.783019065856934, -0.9206516146659851, 7.115066051483154, -2.38727068901062, -2.100856065750122, -2.515308380126953, 1.123779296875, -0.400390625, 0.055908203125
156, 115816078, -6.778354167938232, -0.9165072441101074, 7.143856525421143, -2.198991298675537, -2.430043935775757, -2.316810131072998, 1.121337890625, -0.40087890625, 0.05322265625
157, 115832745, -6.771587371826172, -0.930277407169342, 7.154512882232666, -1.9192620515823364, -2.5810303688049316, -2.1944832801818848, 1.122802734375, -0.40185546875, 0.054931640625
158, 115849412, -6.75455379486084, -0.9054068326950073, 7.160280704498291, -2.021482467651367, -2.3567912578582764, -2.1068496704101562, 1.121826171875, -0.400390625, 0.05322265625
159, 115866079, -6.763817310333252, -0.8766288757324219, 7.20647668838501, -2.5087642669677734, -1.8703805208206177, -2.4973151683807373, 1.122314453125, -0.403076171875, 0.054931640625
160, 115882746, -6.777815341949463, -0.8792070746421814, 7.149510860443115, -2.8098411560058594, -1.521432638168335, -2.818639039993286, 1.123291015625, -0.39990234375, 0.054443359375
161, 115899413, -6.768784999847412, -0.8963963985443115, 7.148123264312744, -3.089698314666748, -1.4004000425338745, -2.906554937362671, 1.120849609375, -0.4013671875, 0.055419921875
162, 115916080, -6.770660400390625, -0.9387844800949097, 7.173588275909424, -4.117088794708252, -0.5842514038085938, -3.4780771732330322, 1.122314453125, -0.400390625, 0.05322265625
163, 115932747, -6.766435146331787, -0.7684221863746643, 7.193970680236816, -5.830296516418457, 0.7617154121398926, -5.045651435852051, 1.121826171875, -0.39990234375, 0.056396484375
164, 115949414, -6.809382438659668, -0.8316714763641357, 7.204904556274414, -7.891365051269531, 2.313755989074707, -7.382350921630859, 1.121826171875, -0.3984375, 0.056884765625
165, 115966081, -6.826972961425781, -0.9002619385719299, 7.172632217407227, -9.025510787963867, 3.027672529220581, -8.555607795715332, 1.122802734375, -0.395263671875, 0.058349609375
166, 115982748, -6.834537029266357, -1.0231831073760986, 7.114512920379639, -9.088364601135254, 3.208165407180786, -9.05159854888916, 1.125244140625, -0.39208984375, 0.060546875
167, 115999415, -6.7704854011535645, -1.1204698085784912, 7.047399997711182, -7.603056907653809, 2.500562906265259, -7.970611572265625, 1.124267578125, -0.39013671875, 0.060546875
168, 116016082, -6.790034770965576, -1.1978524923324585, 7.065694332122803, -5.829425811767578, 1.5024092197418213, -6.031266689300537, 1.126220703125, -0.38916015625, 0.0615234375
169, 116032749, -6.779541015625, -1.1771618127822876, 7.046243190765381, -4.489919662475586, -0.07563430815935135, -4.631326675415039, 1.126708984375, -0.38818359375, 0.0625
170, 116049416, -6.809058666229248, -1.0823354721069336, 7.064930438995361, -3.3271796703338623, -0.8639548420906067, -3.5604729652404785, 1.124755859375, -0.388671875, 0.06103515625
171, 116066083, -6.842360973358154, -1.046280026435852, 7.080437660217285, -2.926955461502075, -1.119659185409546, -3.115938663482666, 1.125244140625, -0.386962890625, 0.0634765625
172, 116082750, -6.827655792236328, -1.0362054109573364, 7.083150863647461, -2.871901035308838, -1.3017398118972778, -2.9436936378479004, 1.125244140625, -0.3876953125, 0.060546875
173, 116099417, -6.81194543838501, -1.0835498571395874, 7.063812732696533, -2.689563751220703, -1.4269474744796753, -2.726625442504883, 1.124267578125, -0.386474609375, 0.0615234375
174, 116116084, -6.820958614349365, -1.0918378829956055, 7.05967378616333, -2.0201377868652344, -1.8516958951950073, -2.0769596099853516, 1.123779296875, -0.385009765625, 0.06494140625
175, 116132751, -6.800127029418945, -1.1106905937194824, 7.076729774475098, -1.3932727575302124, -2.059380531311035, -1.1801111698150635, 1.123291015625, -0.387451171875, 0.0634765625
176, 116149418, -6.800829887390137, -1.09238600730896, 7.093964099884033, -0.7393874526023865, -2.239036798477173, -0.30758291482925415, 1.124267578125, -0.387451171875, 0.0634765625
177, 116166085, -6.807390213012695, -1.1114592552185059, 7.0223822593688965, 0.7406743764877319, -3.145905017852783, 1.1186922788619995, 1.123779296875, -0.3876953125, 0.0625
178, 116182752, -6.796539783477783, -1.174805998802185, 7.022590160369873, 2.8426454067230225, -5.57002067565918, 2.969825267791748, 1.122802734375, -0.39208984375, 0.06201171875
179, 116199419, -6.803123950958252, -1.1022199392318726, 7.101919174194336, 4.659047603607178, -7.9197564125061035, 4.443452835083008, 1.121826171875, -0.393310546875, 0.058349609375
180, 116216086, -6.796938419342041, -0.9715084433555603, 7.205900192260742, 4.986326694488525, -7.480203628540039, 5.001258850097656, 1.120849609375, -0.396240234375, 0.057373046875
181, 116232753, -6.790961265563965, -0.8276965618133545, 7.21562385559082, 3.6529927253723145, -5.731175422668457, 3.903881788253784, 1.121826171875, -0.39892578125, 0.058349609375
182, 116249420, -6.784022331237793, -0.8660874962806702, 7.207766532897949, 2.0550289154052734, -4.137808799743652, 2.3939101696014404, 1.121826171875, -0.39990234375, 0.055419921875
183, 116266087, -6.775795936584473, -0.8607771992683411, 7.149594306945801, 1.0331331491470337, -3.179304361343384, 1.7031354904174805, 1.121337890625, -0.40087890625, 0.054443359375
184, 116282754, -6.789430141448975, -0.918869137763977, 7.125691890716553, 0.5909042358398438, -3.445612668991089, 1.1450221538543701, 1.121826171875, -0.403076171875, 0.053466796875
185, 116299421, -6.774295806884766, -0.8947425484657288, 7.102510452270508, 0.5568777918815613, -5.150215148925781, 1.1449198722839355, 1.1220703125, -0.406005859375, 0.054443359375
186, 116316088, -6.726685047149658, -0.7851349115371704, 7.164124965667725, 0.3427043855190277, -7.431500434875488, 1.1683299541473389, 1.121826171875, -0.404541015625, 0.05078125
187, 116332755, -6.59257698059082, -0.286446213722229, 7.318346977233887, -1.786665439605713, -7.511527061462402, -0.24743156135082245, 1.120849609375, -0.406005859375, 0.05126953125
188, 116349422, -6.688047409057617, -0.3748081624507904, 7.186115264892578, -4.359768867492676, -7.3306884765625, -3.2299411296844482, 1.119384765625, -0.407470703125, 0.05224609375
189, 116366089, -6.630298614501953, -0.32592663168907166, 7.488590240478516, -8.79258918762207, -4.697295188903809, -7.3463287353515625, 1.118408203125, -0.405029296875, 0.047607421875
190, 116382756, -6.726563453674316, -1.345598816871643, 7.122964859008789, -11.519498825073242, 2.0606517791748047, -7.510967254638672, 1.119140625, -0.3994140625, 0.047119140625
191, 116399423, -6.586286544799805, -1.8363713026046753, 7.047347545623779, -6.06575345993042, 0.36792007088661194, -2.455169677734375, 1.1181640625, -0.400390625, 0.048095703125
192, 116416090, -6.632680416107178, -1.478775978088379, 7.067040920257568, -0.9176645278930664, -1.1257420778274536, 1.8794279098510742, 1.119873046875, -0.400390625, 0.05078125
193, 116432757, -6.805172443389893, -0.7668511271476746, 7.190879821777344, 0.21784242987632751, -1.2785091400146484, 2.637704610824585, 1.1181640625, -0.4013671875, 0.0517578125
194, 116449424, -6.885981559753418, -0.33210304379463196, 7.257808208465576, -4.276002407073975, 1.1229184865951538, -2.525745391845703, 1.119384765625, -0.4013671875, 0.05419921875
195, 116466091, -6.751804351806641, -0.7936843633651733, 7.294954299926758, -8.664127349853516, 4.026324272155762, -7.661492347717285, 1.119873046875, -0.39794921875, 0.0546875
196, 116482758, -6.818857669830322, -1.3772786855697632, 7.004865646362305, -7.905209064483643, 2.882550001144409, -6.4424028396606445, 1.1201171875, -0.393798828125, 0.0556640625
197, 116499425, -6.80955696105957, -1.5202093124389648, 6.942417621612549, -2.9961354732513428, -1.7034238576889038, -1.0915236473083496, 1.115966796875, -0.3896484375, 0.056640625
198, 116516092, -6.81135892868042, -1.2830946445465088, 7.100730895996094, 2.5848021507263184, -5.92356538772583, 4.666167736053467, 1.11669921875, -0.39208984375, 0.05712890625
199, 116532759, -6.794979095458984, -1.2360962629318237, 7.206142425537109, 6.3487067222595215, -7.6046576499938965, 8.158026695251465, 1.11572265625, -0.395263671875, 0.05615234375
200, 116549426, -6.842880725860596, -1.2618805170059204, 7.244311332702637, 9.388120651245117, -9.05440616607666, 11.019855499267578, 1.11474609375, -0.39794921875, 0.05322265625
201, 116566093, -6.911595344543457, -1.5758416652679443, 7.11462926864624, 12.411123275756836, -12.291455268859863, 13.97219467163086, 1.11572265625, -0.405517578125, 0.050048828125
202, 116582760, -6.93617582321167, -0.9876440167427063, 7.151298522949219, 16.157506942749023, -18.815095901489258, 16.137733459472656, 1.1123046875, -0.412109375, 0.04541015625
203, 116599427, -6.732552528381348, -0.3612416386604309, 7.422799587249756, 14.781634330749512, -20.25722885131836, 13.616316795349121, 1.111328125, -0.41943359375, 0.04150390625
204, 116616094, -6.553995609283447, -0.20338121056556702, 7.419059753417969, 10.848576545715332, -15.947733879089355, 11.383973121643066, 1.10693359375, -0.42236328125, 0.039794921875
205, 116632761, -6.6015472412109375, -0.6489817500114441, 7.256222724914551, 9.000398635864258, -14.409608840942383, 10.496771812438965, 1.1064453125, -0.42822265625, 0.037841796875
206, 116649428, -6.532434940338135, -1.686242938041687, 7.403550624847412, 11.779502868652344, -14.93136215209961, 15.348063468933105, 1.10546875, -0.43212890625, 0.035400390625
207, 116666095, -6.5162458419799805, -1.2288919687271118, 7.400420665740967, 17.930095672607422, -16.355388641357422, 24.630006790161133, 1.1005859375, -0.44189453125, 0.030517578125
208, 116682762, -6.43005895614624, -0.15840226411819458, 7.612979412078857, 20.285125732421875, -15.278119087219238, 28.896724700927734, 1.101318359375, -0.4501953125, 0.0302734375
209, 116699429, -6.314512729644775, 1.0853216648101807, 7.743070602416992, 17.36607551574707, -10.656339645385742, 24.040637969970703, 1.099365234375, -0.46142578125, 0.027587890625
210, 116716096, -6.362645626068115, 2.1568217277526855, 7.4935078620910645, 7.425797939300537, -4.138335704803467, 10.394951820373535, 1.100830078125, -0.466064453125, 0.029296875
211, 116732763, -6.457160472869873, 1.9603737592697144, 7.468596935272217, -6.376349449157715, -1.5815668106079102, -9.819990158081055, 1.098876953125, -0.465087890625, 0.0283203125
212, 116749430, -6.545724868774414, 0.20113758742809296, 7.4921183586120605, -11.248003959655762, -1.4588509798049927, -20.993322372436523, 1.097412109375, -0.46240234375, 0.025634765625
213, 116766097, -6.5127434730529785, -0.3769339919090271, 7.375643730163574, -9.151037216186523, -2.384239435195923, -20.087703704833984, 1.09912109375, -0.454345703125, 0.024658203125
214, 116782764, -6.512805938720703, -0.40113890171051025, 7.40932035446167, -6.6711297035217285, -3.2804014682769775, -16.03652572631836, 1.099609375, -0.4521484375, 0.02294921875
215, 116799431, -6.5665082931518555, 0.0966515839099884, 7.4919891357421875, -6.978186130523682, -2.603456497192383, -14.810467720031738, 1.09814453125, -0.4482421875, 0.02392578125
216, 116816098, -6.592133045196533, -0.4293614625930786, 7.508550643920898, -9.548028945922852, -0.7382229566574097, -16.16731834411621, 1.096923828125, -0.444091796875, 0.02294921875
217, 116832765, -6.455379009246826, -0.8624155521392822, 7.493607997894287, -9.134803771972656, -0.955943763256073, -14.498710632324219, 1.097412109375, -0.4404296875, 0.022216796875
218, 116849432, -6.338053226470947, -0.8602426648139954, 7.606862545013428, -6.886361122131348, 0.4101299047470093, -10.501851081848145, 1.098876953125, -0.43896484375, 0.0234375
219, 116866099, -6.367516994476318, -0.518343448638916, 7.4853196144104, -6.371469497680664, 3.5275681018829346, -8.15225601196289, 1.099853515625, -0.436767578125, 0.021240234375
220, 116882766, -6.432866096496582, -0.4702311158180237, 7.400364398956299, -6.40137243270874, 4.131356239318848, -7.885206699371338, 1.100830078125, -0.433837890625, 0.02490234375
221, 116899433, -6.601699352264404, -0.6579879522323608, 7.311179161071777, -5.773770332336426, 2.270380735397339, -7.297111988067627, 1.100830078125, -0.43212890625, 0.02734375
222, 116916100, -6.551266193389893, -0.7388593554496765, 7.368559837341309, -4.953778266906738, 0.17483870685100555, -6.424972057342529, 1.103271484375, -0.4296875, 0.02685546875
223, 116932767, -6.459665775299072, -0.7098875045776367, 7.543220043182373, -4.46230936050415, -0.14683763682842255, -5.094815254211426, 1.10546875, -0.4306640625, 0.027099609375
224, 116949434, -6.531946659088135, -0.6619778275489807, 7.420845031738281, -3.4927656650543213, -0.49691200256347656, -3.943894624710083, 1.1064453125, -0.43017578125, 0.029541015625
225, 116966101, -6.4489336013793945, -0.4631124436855316, 7.445680618286133, -3.5397138595581055, -0.5896300077438354, -3.8292274475097656, 1.108154296875, -0.434326171875, 0.02978515625
226, 116982768, -6.4781036376953125, -0.4183465838432312, 7.4620561599731445, -4.818658351898193, 1.2756470441818237, -4.60722541809082, 1.107177734375, -0.437744140625, 0.026611328125
227, 116999435, -6.553355693817139, -0.8324330449104309, 7.355492115020752, -5.501890659332275, 3.180310010910034, -4.421738624572754, 1.110107421875, -0.43896484375, 0.026611328125
228, 117016102, -6.623941898345947, -1.0312445163726807, 7.251570701599121, -4.199548721313477, 1.5041637420654297, -2.630463123321533, 1.108154296875, -0.435791015625, 0.026611328125
229, 117032769, -6.574648857116699, -0.8302517533302307, 7.379794597625732, -2.012761354446411, -1.4882771968841553, -0.1204693466424942, 1.109130859375, -0.436279296875, 0.029296875
230, 117049436, -6.487115859985352, -0.5326772332191467, 7.48801851272583, -1.3152120113372803, -0.8047894239425659, 1.1704427003860474, 1.110595703125, -0.439453125, 0.027587890625
231, 117066103, -6.585384368896484, -0.44847893714904785, 7.460145473480225, -2.112164258956909, 3.041386604309082, 1.220272421836853, 1.11181640625, -0.439453125, 0.029296875
232, 117082770, -6.658157825469971, -0.5991118550300598, 7.369892597198486, -2.6179251670837402, 5.089300632476807, 1.1400917768478394, 1.11083984375, -0.4404296875, 0.03173828125
233, 117099437, -6.552605628967285, -0.5971623659133911, 7.305734157562256, -2.1126763820648193, 4.977937698364258, 1.9336885213851929, 1.11376953125, -0.44091796875, 0.031982421875
234, 117116104, -6.449032783508301, -0.3878217935562134, 7.386349678039551, -0.5108325481414795, 4.2434163093566895, 3.1867516040802, 1.11376953125, -0.443359375, 0.033447265625
235, 117132771, -6.433443069458008, -0.3525165617465973, 7.354933261871338, 0.22748564183712006, 4.438175201416016, 4.065702438354492, 1.11376953125, -0.445556640625, 0.03515625
236, 117149438, -6.48068904876709, -0.37129858136177063, 7.333293437957764, 0.3078838884830475, 4.625148296356201, 4.370544910430908, 1.116455078125, -0.447509765625, 0.0361328125
237, 117166105, -6.657395362854004, -0.303244948387146, 7.274662971496582, -0.6865612864494324, 4.208032131195068, 3.298218250274658, 1.118408203125, -0.448974609375, 0.037109375
238, 117182772, -6.811548233032227, -0.06546657532453537, 7.30645227432251, -2.026284694671631, 2.2428979873657227, 0.4242039918899536, 1.117919921875, -0.447998046875, 0.038330078125
239, 117199439, -6.839540958404541, -0.0025382600724697113, 7.31373929977417, -4.118919372558594, 0.3562662601470947, -2.8536903858184814, 1.118408203125, -0.447509765625, 0.039306640625
240, 117216106, -6.709914684295654, -0.47279593348503113, 7.282082557678223, -5.738450050354004, -1.4542638063430786, -4.500088691711426, 1.116943359375, -0.448486328125, 0.039794921875
241, 117232773, -6.493958950042725, -0.7241151928901672, 7.350521564483643, -4.744458198547363, -2.4314777851104736, -4.023204803466797, 1.117919921875, -0.447998046875, 0.040283203125
242, 117249440, -6.510279178619385, -0.729621410369873, 7.3416924476623535, -3.6200993061065674, -1.4475017786026, -2.506958484649658, 1.11962890625, -0.446533203125, 0.039794921875
243, 117266107, -6.582468032836914, -0.6110040545463562, 7.319645881652832, -2.5984466075897217, -0.5250347256660461, -1.155888319015503, 1.11865234375, -0.447998046875, 0.037109375
244, 117282774, -6.693143367767334, -0.37538942694664, 7.28526496887207, -2.4017796516418457, -1.1512013673782349, -1.2667529582977295, 1.11865234375, -0.447998046875, 0.038330078125
245, 117299441, -6.575898170471191, -0.258626252412796, 7.296221733093262, -2.7795286178588867, -2.021444082260132, -2.837054967880249, 1.117919921875, -0.446044921875, 0.038818359375
246, 117316108, -6.599091529846191, -0.2918305993080139, 7.352080345153809, -3.7477407455444336, -1.7704013586044312, -4.969056606292725, 1.118408203125, -0.445556640625, 0.039306640625
247, 117332775, -6.599496841430664, -0.42935121059417725, 7.352978229522705, -4.027509689331055, -1.2533849477767944, -6.721843719482422, 1.117919921875, -0.447509765625, 0.038330078125
248, 117349442, -6.63350772857666, -0.4318386912345886, 7.3193864822387695, -3.3792505264282227, -0.8974692821502686, -7.570847511291504, 1.119873046875, -0.44384765625, 0.037841796875
249, 117366109, -6.629680633544922, -0.5249283313751221, 7.335686206817627, -3.4063355922698975, -0.4487345814704895, -7.746984958648682, 1.120361328125, -0.4423828125, 0.039306640625
250, 117382776, -6.696402072906494, -0.5784215927124023, 7.295782566070557, -3.2607786655426025, 0.2922985255718231, -6.4060564041137695, 1.118408203125, -0.43994140625, 0.0380859375
251, 117399443, -6.706745147705078, -0.6596834659576416, 7.289398670196533, -3.4227921962738037, 0.09200723469257355, -5.2611308097839355, 1.117431640625, -0.438720703125, 0.0390625
252, 117416110, -6.660914897918701, -0.6604582667350769, 7.292891025543213, -3.419410467147827, -0.4170003831386566, -4.254525661468506, 1.116943359375, -0.4404296875, 0.039306640625
253, 117432777, -6.6968865394592285, -0.5475431084632874, 7.26084566116333, -3.5335538387298584, -0.7894347310066223, -4.0302228927612305, 1.120849609375, -0.438232421875, 0.038818359375
254, 117449444, -6.677974700927734, -0.536862313747406, 7.255974769592285, -4.081498622894287, -1.1099135875701904, -4.05571985244751, 1.120361328125, -0.438232421875, 0.03857421875
255, 117466111, -6.643748760223389, -0.5045582056045532, 7.303502559661865, -4.604024410247803, -1.2423570156097412, -4.4488115310668945, 1.121337890625, -0.436279296875, 0.038818359375
256, 117482778, -6.669518947601318, -0.531902551651001, 7.296939849853516, -5.058521747589111, -1.0379036664962769, -4.863775730133057, 1.120849609375, -0.434326171875, 0.03759765625
257, 117499445, -6.66342830657959, -0.5602583289146423, 7.309436321258545, -5.248414039611816, -1.100283145904541, -4.909506320953369, 1.118408203125, -0.43310546875, 0.041748046875
258, 117516112, -6.676590442657471, -0.5774360299110413, 7.297434329986572, -4.841697692871094, -1.1322864294052124, -4.734879493713379, 1.119384765625, -0.434814453125, 0.0390625
259, 117532779, -6.650568008422852, -0.5512435436248779, 7.288523197174072, -5.049756050109863, -0.6748883128166199, -4.7969584465026855, 1.11767578125, -0.43408203125, 0.041748046875
260, 117549446, -6.627279758453369, -0.5612752437591553, 7.331929683685303, -5.50258207321167, 0.08139076828956604, -4.925719738006592, 1.11865234375, -0.4326171875, 0.041259765625
261, 117566113, -6.672369480133057, -0.5988809466362, 7.281529426574707, -5.422362327575684, 0.4841953217983246, -4.846461296081543, 1.118896484375, -0.4326171875, 0.043701171875
262, 117582780, -6.657708168029785, -0.620107889175415, 7.25374698638916, -4.846167087554932, 0.09673278033733368, -4.372767448425293, 1.1201171875, -0.428466796875, 0.041748046875
263, 117599447, -6.702142238616943, -0.6900065541267395, 7.244418144226074, -4.2126359939575195, -0.44732582569122314, -4.112593173980713, 1.11865234375, -0.428466796875, 0.041259765625
264, 117616114, -6.662526607513428, -0.6733348369598389, 7.2451558113098145, -3.8135268688201904, -0.9719252586364746, -3.7815747261047363, 1.11865234375, -0.427978515625, 0.041259765625
265, 117632781, -6.65782356262207, -0.5607598423957825, 7.2796711921691895, -4.3669657707214355, -0.5725975036621094, -4.172680377960205, 1.121337890625, -0.428955078125, 0.042236328125
266, 117649448, -6.6421308517456055, -0.6985224485397339, 7.291356563568115, -4.659463405609131, -0.2780771553516388, -4.425965785980225, 1.1201171875, -0.427490234375, 0.042724609375
267, 117666115, -6.654701232910156, -0.7532030344009399, 7.269419193267822, -4.220012664794922, -0.28390398621559143, -3.9099197387695312, 1.119140625, -0.424560546875, 0.042724609375
268, 117682782, -6.677064895629883, -0.7042642831802368, 7.286220073699951, -3.627654790878296, -0.1771886795759201, -3.416977643966675, 1.11962890625, -0.426513671875, 0.043701171875
269, 117699449, -6.689541816711426, -0.6969210505485535, 7.289985179901123, -3.3211987018585205, -0.0706910490989685, -2.8919429779052734, 1.1201171875, -0.424560546875, 0.044677734375
270, 117716116, -6.707352161407471, -0.7172074317932129, 7.2697858810424805, -2.9972238540649414, -0.10356495529413223, -2.243288278579712, 1.119140625, -0.426025390625, 0.042236328125
271, 117732783, -6.704850673675537, -0.6986514925956726, 7.258563995361328, -2.5187015533447266, -0.49647659063339233, -1.7735002040863037, 1.12060546875, -0.425537109375, 0.044189453125
272, 117749450, -6.669544219970703, -0.7762255072593689, 7.258767604827881, -2.2892885208129883, -0.42915356159210205, -1.1098238229751587, 1.1201171875, -0.426025390625, 0.044677734375
273, 117766117, -6.7196125984191895, -0.6900598406791687, 7.236473560333252, -2.420938014984131, 0.15480954945087433, -0.6870093941688538, 1.122802734375, -0.424560546875, 0.044921875
274, 117782784, -6.713329315185547, -0.6202983856201172, 7.268753528594971, -2.773240566253662, 0.28526782989501953, -0.8306581974029541, 1.12060546875, -0.425048828125, 0.0458984375
275, 117799451, -6.719654083251953, -0.6101165413856506, 7.255020618438721, -2.7982900142669678, 0.38896092772483826, -1.1380363702774048, 1.121826171875, -0.427490234375, 0.04736328125
276, 117816118, -6.70689058303833, -0.5632461905479431, 7.245054721832275, -2.5981650352478027, 0.04668554663658142, -1.4982277154922485, 1.123291015625, -0.426025390625, 0.04638671875
277, 117832785, -6.717531204223633, -0.7335138320922852, 7.2399749755859375, -2.3516812324523926, -0.3720757067203522, -1.4946290254592896, 1.121337890625, -0.427001953125, 0.04638671875
278, 117849452, -6.735639572143555, -0.7252132892608643, 7.223876953125, -1.7301379442214966, -0.9577357769012451, -0.9667513966560364, 1.124267578125, -0.428955078125, 0.048583984375
279, 117866119, -6.716388702392578, -0.7139511108398438, 7.2330322265625, -1.0626835823059082, -1.727563738822937, -0.4430996775627136, 1.122314453125, -0.426025390625, 0.046875
280, 117882786, -6.720089912414551, -0.6331037878990173, 7.246956825256348, -0.861560046672821, -2.0203938484191895, -0.43998780846595764, 1.122802734375, -0.425537109375, 0.046875
281, 117899453, -6.722837924957275, -0.6075125336647034, 7.235428333282471, -0.8633145093917847, -2.022660732269287, -0.6936815977096558, 1.122802734375, -0.428955078125, 0.046875
282, 117916120, -6.733119964599609, -0.625047504901886, 7.232281684875488, -1.0555249452590942, -2.042945623397827, -0.9847571849822998, 1.120361328125, -0.428466796875, 0.04638671875
283, 117932787, -6.715456962585449, -0.6091209053993225, 7.233900547027588, -1.2936965227127075, -1.977975606918335, -1.1995115280151367, 1.121826171875, -0.43017578125, 0.04638671875
284, 117949454, -6.7064290046691895, -0.6238776445388794, 7.255341529846191, -1.489673137664795, -1.599923014640808, -1.2252861261367798, 1.120849609375, -0.4296875, 0.04736328125
285, 117966121, -6.730515003204346, -0.5954065322875977, 7.231681823730469, -1.8914979696273804, -1.4192637205123901, -1.3894376754760742, 1.12451171875, -0.4306640625, 0.04541015625
286, 117982788, -6.729272365570068, -0.6117233633995056, 7.224903106689453, -1.9691301584243774, -1.4811055660247803, -1.6177748441696167, 1.122314453125, -0.4306640625, 0.04638671875
287, 117999455, -6.713366508483887, -0.6185895204544067, 7.216250419616699, -1.9868284463882446, -1.5558563470840454, -1.6548492908477783, 1.120849609375, -0.428955078125, 0.04833984375
288, 118016122, -6.708141326904297, -0.6203732490539551, 7.233630657196045, -1.9996222257614136, -1.5663833618164062, -1.7267571687698364, 1.120849609375, -0.4296875, 0.048828125
289, 118032789, -6.712687969207764, -0.5788451433181763, 7.256319999694824, -2.1047234535217285, -1.5826085805892944, -1.7936571836471558, 1.122802734375, -0.434814453125, 0.046875
290, 118049456, -6.718979358673096, -0.5849518775939941, 7.244774341583252, -2.3668055534362793, -1.524890422821045, -2.1349592208862305, 1.123291015625, -0.4326171875, 0.0439453125
291, 118066123, -6.714416027069092, -0.5943750143051147, 7.2687811851501465, -2.5669050216674805, -1.3643373250961304, -2.317347526550293, 1.122314453125, -0.429443359375, 0.044921875
292, 118082790, -6.717006206512451, -0.6155369877815247, 7.252202033996582, -2.6462783813476562, -1.0348553657531738, -2.450059652328491, 1.122314453125, -0.4326171875, 0.04833984375
293, 118099457, -6.713923931121826, -0.6436257362365723, 7.226019859313965, -2.5445706844329834, -1.0562933683395386, -2.234067916870117, 1.122314453125, -0.43017578125, 0.046875
294, 118116124, -6.728100299835205, -0.6251308917999268, 7.214378356933594, -2.535900592803955, -1.193103551864624, -2.0645627975463867, 1.122314453125, -0.43212890625, 0.0478515625
295, 118132791, -6.7218780517578125, -0.6092177033424377, 7.217813014984131, -2.5017588138580322, -1.2914049625396729, -2.00443696975708, 1.121826171875, -0.4306640625, 0.0478515625
296, 118149458, -6.726511001586914, -0.6179489493370056, 7.227983474731445, -2.410090923309326, -1.4909663200378418, -2.0689167976379395, 1.121337890625, -0.4326171875, 0.049072265625
297, 118166125, -6.714175701141357, -0.6165562272071838, 7.2486491203308105, -2.4064154624938965, -1.4569143056869507, -1.990990400314331, 1.122802734375, -0.4326171875, 0.046875
298, 118182792, -6.731971740722656, -0.5887323617935181, 7.225828170776367, -2.4725987911224365, -1.3426690101623535, -2.0301520824432373, 1.122314453125, -0.4296875, 0.046875
299, 118199459, -6.724806308746338, -0.5959119200706482, 7.263513088226318, -2.459228992462158, -1.4160494804382324, -2.1704201698303223, 1.120849609375, -0.431640625, 0.04736328125
300, 118216126, -6.726215839385986, -0.6216729879379272, 7.212423324584961, -2.595642566680908, -1.5510923862457275, -2.3682658672332764, 1.122802734375, -0.43115234375, 0.04736328125
301, 118232793, -6.715635299682617, -0.6282191276550293, 7.234570026397705, -2.5484511852264404, -1.6064032316207886, -2.378293037414551, 1.123291015625, -0.43310546875, 0.049560546875
302, 118249460, -6.734808921813965, -0.5983116626739502, 7.2186198234558105, -2.537053108215332, -1.523110270500183, -2.3197293281555176, 1.122802734375, -0.431640625, 0.04833984375
303, 118266127, -6.73249626159668, -0.6242368221282959, 7.226290225982666, -2.584757089614868, -1.4436856508255005, -2.407632827758789, 1.123291015625, -0.43212890625, 0.050048828125
304, 118282794, -6.720220565795898, -0.6143240928649902, 7.240359306335449, -2.795536994934082, -1.1927964687347412, -2.5255661010742188, 1.122802734375, -0.428955078125, 0.0439453125
305, 118299461, -6.739467144012451, -0.5950823426246643, 7.238340377807617, -2.8547918796539307, -0.9775600433349609, -2.501413583755493, 1.123291015625, -0.4296875, 0.049072265625
306, 118316128, -6.735805511474609, -0.612027645111084, 7.2114481925964355, -2.9556031227111816, -1.235069990158081, -2.6323068141937256, 1.123291015625, -0.429443359375, 0.04833984375
307, 118332795, -6.723298072814941, -0.6232156753540039, 7.20304536819458, -2.7614715099334717, -1.5284762382507324, -2.5919411182403564, 1.122802734375, -0.4296875, 0.04833984375
308, 118349462, -6.736415386199951, -0.6344801783561707, 7.240054130554199, -2.488274335861206, -1.7414206266403198, -2.610229253768921, 1.121337890625, -0.43115234375, 0.049072265625
309, 118366129, -6.725954055786133, -0.6348041892051697, 7.215768337249756, -2.4607532024383545, -1.7354397773742676, -2.456437587738037, 1.122802734375, -0.43017578125, 0.046875
310, 118382796, -6.724737167358398, -0.6235695481300354, 7.231385707855225, -2.5198161602020264, -1.7395379543304443, -2.56543231010437, 1.123779296875, -0.43017578125, 0.048095703125
311, 118399463, -6.708713531494141, -0.6391113996505737, 7.2336649894714355, -2.5246570110321045, -1.5955305099487305, -2.4626357555389404, 1.120849609375, -0.43017578125, 0.048828125
312, 118416130, -6.725332736968994, -0.6063080430030823, 7.232734203338623, -2.6607370376586914, -1.4285869598388672, -2.4714977741241455, 1.122802734375, -0.43017578125, 0.04833984375
313, 118432797, -6.728886604309082, -0.6205552816390991, 7.2255473136901855, -2.652784585952759, -1.3744032382965088, -2.5484511852264404, 1.123779296875, -0.427978515625, 0.0478515625
314, 118449464, -6.734355449676514, -0.6316484808921814, 7.222569942474365, -2.7189548015594482, -1.3386479616165161, -2.6146981716156006, 1.121826171875, -0.4306640625, 0.0458984375
315, 118466131, -6.727241039276123, -0.6263459920883179, 7.240675926208496, -2.8128249645233154, -1.1590770483016968, -2.7476534843444824, 1.122314453125, -0.427490234375, 0.0478515625
316, 118482798, -6.719583034515381, -0.6267380714416504, 7.2214813232421875, -2.961686134338379, -1.137395977973938, -2.755824089050293, 1.123779296875, -0.429443359375, 0.049072265625
317, 118499465, -6.711499214172363, -0.6391457319259644, 7.213738918304443, -3.203585386276245, -1.0989384651184082, -2.956512451171875, 1.121337890625, -0.429443359375, 0.048828125
318, 118516132, -6.712454795837402, -0.5660045742988586, 7.247164249420166, -3.918936014175415, -0.3929372727870941, -3.4456512928009033, 1.123779296875, -0.429443359375, 0.04736328125
319, 118532799, -6.718782901763916, -0.5967561602592468, 7.242255210876465, -4.503749370574951, 0.3251785933971405, -3.942659616470337, 1.122802734375, -0.429443359375, 0.052001953125
320, 118549466, -6.7335638999938965, -0.6473318338394165, 7.217545986175537, -4.849573135375977, 0.781129777431488, -4.357655048370361, 1.122314453125, -0.427978515625, 0.049072265625
321, 118566133, -6.71720027923584, -0.6284357309341431, 7.217288494110107, -5.435053825378418, 1.1387087106704712, -4.735788345336914, 1.123779296875, -0.424560546875, 0.051513671875
322, 118582800, -6.7329936027526855, -0.6465709805488586, 7.209710597991943, -6.054497718811035, 2.0535690784454346, -5.331284523010254, 1.123291015625, -0.426025390625, 0.051513671875
323, 118599467, -6.766190528869629, -0.6980915069580078, 7.203784465789795, -6.122780799865723, 2.4648447036743164, -5.304365634918213, 1.124755859375, -0.4228515625, 0.052978515625
324, 118616134, -6.7748894691467285, -0.7283619046211243, 7.186186790466309, -6.042330741882324, 2.342390537261963, -5.299754619598389, 1.122802734375, -0.4228515625, 0.053955078125
325, 118632801, -6.7895612716674805, -0.7368888258934021, 7.161261558532715, -5.7711567878723145, 1.9419487714767456, -5.303635120391846, 1.124267578125, -0.421875, 0.0556640625
326, 118649468, -6.787485122680664, -0.7592104077339172, 7.141972541809082, -5.263640880584717, 1.3276665210723877, -4.970656394958496, 1.123779296875, -0.42041015625, 0.05908203125
327, 118666135, -6.795140743255615, -0.7903667688369751, 7.1404900550842285, -4.694014072418213, 0.6812658905982971, -4.554924488067627, 1.125732421875, -0.417724609375, 0.05517578125
328, 118682802, -6.789524555206299, -0.7704110741615295, 7.155345439910889, -4.080333232879639, 0.031433187425136566, -4.059753894805908, 1.124755859375, -0.418212890625, 0.05712890625
329, 118699469, -6.797581672668457, -0.7747254371643066, 7.127954959869385, -3.382246971130371, -0.8546317219734192, -3.447085380554199, 1.125244140625, -0.416748046875, 0.05712890625
330, 118716136, -6.785171985626221, -0.8024352192878723, 7.160803318023682, -2.6842105388641357, -1.6824853420257568, -2.8504884243011475, 1.125244140625, -0.417724609375, 0.05712890625
331, 118732803, -6.781787395477295, -0.7779212594032288, 7.152004718780518, -2.3752708435058594, -2.10732364654541, -2.473534107208252, 1.124755859375, -0.418212890625, 0.05908203125
332, 118749470, -6.785472869873047, -0.7507206797599792, 7.150527000427246, -2.2813873291015625, -2.216702699661255, -2.341923236846924, 1.125732421875, -0.418212890625, 0.05712890625
333, 118766137, -6.798126697540283, -0.7515222430229187, 7.183957576751709, -2.1010866165161133, -2.1474711894989014, -2.2233104705810547, 1.125732421875, -0.416259765625, 0.05810546875
334, 118782804, -6.799067497253418, -0.742006778717041, 7.149778842926025, -2.139890193939209, -2.1471383571624756, -2.129452705383301, 1.126708984375, -0.417724609375, 0.05517578125
335, 118799471, -6.779468059539795, -0.7867099642753601, 7.123586177825928, -1.7122091054916382, -2.555609703063965, -1.9918485879898071, 1.124755859375, -0.417236328125, 0.056640625
336, 118816138, -6.770214080810547, -0.7618714570999146, 7.144141674041748, -1.730854868888855, -2.8006591796875, -1.8511580228805542, 1.123046875, -0.418701171875, 0.05615234375
337, 118832805, -6.773199558258057, -0.7497315406799316, 7.174436092376709, -1.6476393938064575, -2.739841938018799, -1.8157099485397339, 1.124267578125, -0.418701171875, 0.05712890625
338, 118849472, -6.777293682098389, -0.7351024746894836, 7.178691864013672, -1.6638267040252686, -2.7260751724243164, -1.8324223756790161, 1.123779296875, -0.418212890625, 0.054931640625
339, 118866139, -6.784462928771973, -0.7389074563980103, 7.1961212158203125, -1.6568087339401245, -2.7712173461914062, -1.993910312652588, 1.124755859375, -0.419921875, 0.053466796875
340, 118882806, -6.7777252197265625, -0.7344312071800232, 7.161148548126221, -1.5728760957717896, -2.9964942932128906, -1.8623254299163818, 1.123291015625, -0.4208984375, 0.052490234375
341, 118899473, -6.763566493988037, -0.7542001605033875, 7.1878533363342285, -1.6223597526550293, -2.986466646194458, -1.937498688697815, 1.123779296875, -0.41943359375, 0.052978515625
342, 118916140, -6.758877277374268, -0.7242891788482666, 7.182412147521973, -1.7626407146453857, -2.8014917373657227, -2.0215723514556885, 1.125244140625, -0.419189453125, 0.053466796875
343, 118932807, -6.764416694641113, -0.7139893770217896, 7.228485107421875, -2.0378615856170654, -2.501016139984131, -2.1740832328796387, 1.125244140625, -0.418701171875, 0.053955078125
344, 118949474, -6.748723983764648, -0.7326972484588623, 7.204659938812256, -2.352834463119507, -2.1020216941833496, -2.373375654220581, 1.125732421875, -0.418701171875, 0.05517578125
345, 118966141, -6.748674392700195, -0.717377781867981, 7.200385093688965, -2.565355062484741, -1.7962313890457153, -2.6232142448425293, 1.123779296875, -0.419921875, 0.053466796875
346, 118982808, -6.758467674255371, -0.7562409043312073, 7.185708999633789, -2.7027156352996826, -1.6610345840454102, -2.7153046131134033, 1.123779296875, -0.418701171875, 0.051025390625
347, 118999475, -6.75925350189209, -0.7379769086837769, 7.180042266845703, -2.5926074981689453, -1.6201186180114746, -2.6540651321411133, 1.122802734375, -0.41943359375, 0.052001953125
348, 119016142, -6.750823020935059, -0.7596777677536011, 7.176612854003906, -2.5009522438049316, -1.7061775922775269, -2.6126749515533447, 1.123291015625, -0.41943359375, 0.052490234375
349, 119032809, -6.746945381164551, -0.7502877116203308, 7.171774387359619, -2.5074453353881836, -1.76671302318573, -2.5220701694488525, 1.125244140625, -0.42041015625, 0.052978515625
350, 119049476, -6.762594699859619, -0.7578368186950684, 7.163136005401611, -2.4324254989624023, -1.870867133140564, -2.4721639156341553, 1.125244140625, -0.418701171875, 0.054443359375
351, 119066143, -6.743993759155273, -0.7616276741027832, 7.20029878616333, -2.474801778793335, -1.9705005884170532, -2.375373363494873, 1.124267578125, -0.419189453125, 0.052490234375
352, 119082810, -6.755606651306152, -0.7449707388877869, 7.182064533233643, -2.3718388080596924, -1.9540315866470337, -2.3818917274475098, 1.123291015625, -0.418212890625, 0.052490234375
353, 119099477, -6.748796463012695, -0.7531296014785767, 7.18196439743042, -2.3930459022521973, -1.9697191715240479, -2.3307814598083496, 1.123779296875, -0.417724609375, 0.053466796875
354, 119116144, -6.758267879486084, -0.74411940574646, 7.1915483474731445, -2.403419017791748, -1.7784690856933594, -2.350170135498047, 1.123779296875, -0.4189453125, 0.052978515625
355, 119132811, -6.759455680847168, -0.7279046773910522, 7.201847553253174, -2.518281936645508, -1.6508573293685913, -2.497152805328369, 1.1220703125, -0.418701171875, 0.051513671875
356, 119149478, -6.749528408050537, -0.7367493510246277, 7.211738109588623, -2.7123212814331055, -1.535520076751709, -2.5542140007019043, 1.123291015625, -0.418701171875, 0.052001953125
357, 119166145, -6.756042003631592, -0.750395655632019, 7.181750774383545, -2.926788806915283, -1.3048774003982544, -2.706570625305176, 1.125244140625, -0.417724609375, 0.052490234375
358, 119182812, -6.733630657196045, -0.7366620302200317, 7.18805456161499, -3.041597843170166, -1.1585265398025513, -2.9055685997009277, 1.125732421875, -0.417724609375, 0.050537109375
359, 119199479, -6.774790287017822, -0.7534701824188232, 7.185636520385742, -3.109330415725708, -1.148691177368164, -2.969485282897949, 1.124267578125, -0.419189453125, 0.052978515625
360, 119216146, -6.749016284942627, -0.7412683367729187, 7.196657180786133, -3.2640576362609863, -1.2402311563491821, -3.1471612453460693, 1.124267578125, -0.419921875, 0.052490234375
361, 119232813, -6.762576103210449, -0.6958581209182739, 7.183642864227295, -3.828061580657959, -0.6911331415176392, -3.777437925338745, 1.125244140625, -0.418212890625, 0.053955078125
362, 119249480, -6.760351181030273, -0.7553203701972961, 7.200596332550049, -4.1480021476745605, -0.35572198033332825, -4.0166473388671875, 1.125244140625, -0.416259765625, 0.053466796875
363, 119266147, -6.766507625579834, -0.7892399430274963, 7.183001518249512, -4.1745758056640625, -0.32092714309692383, -3.905104398727417, 1.124755859375, -0.415771484375, 0.052978515625
364, 119282814, -6.766914367675781, -0.7944384217262268, 7.1879167556762695, -4.117753982543945, -0.2512093782424927, -3.874356508255005, 1.124755859375, -0.415283203125, 0.056640625
365, 119299481, -6.775514125823975, -0.772208571434021, 7.158610820770264, -4.083804607391357, -0.5731866359710693, -3.926926374435425, 1.125, -0.4130859375, 0.053466796875
366, 119316148, -6.778228282928467, -0.8066021203994751, 7.158825874328613, -3.7523505687713623, -0.9574028849601746, -3.8183417320251465, 1.12353515625, -0.415283203125, 0.055419921875
367, 119332815, -6.779558181762695, -0.8086914420127869, 7.155714511871338, -3.438159227371216, -1.1183531284332275, -3.6903419494628906, 1.1240234375, -0.4130859375, 0.053955078125
368, 119349482, -6.7571587562561035, -0.8372779488563538, 7.159368515014648, -3.3791861534118652, -1.3305156230926514, -3.473633050918579, 1.12451171875, -0.41357421875, 0.053955078125
369, 119366149, -6.772270679473877, -0.8307728171348572, 7.15056848526001, -3.138657569885254, -1.3132784366607666, -3.2241013050079346, 1.12548828125, -0.4111328125, 0.055419921875
370, 119382816, -6.769565105438232, -0.8515724539756775, 7.168457508087158, -3.1314854621887207, -1.2536519765853882, -2.9930615425109863, 1.125732421875, -0.4130859375, 0.053466796875
371, 119399483, -6.764655113220215, -0.8159788846969604, 7.153519630432129, -2.896745204925537, -1.6095917224884033, -2.7639176845550537, 1.12451171875, -0.41259765625, 0.054931640625
372, 119416150, -6.748044013977051, -0.8068317770957947, 7.18479061126709, -2.7083511352539062, -1.8133151531219482, -2.6566004753112793, 1.12548828125, -0.412109375, 0.0556640625
373, 119432817, -6.762509346008301, -0.8284929394721985, 7.18487024307251, -2.475314140319824, -1.7904304265975952, -2.6401445865631104, 1.125, -0.412109375, 0.055419921875
374, 119449484, -6.769845485687256, -0.8266525864601135, 7.149044513702393, -2.5520241260528564, -1.6674894094467163, -2.583937406539917, 1.123046875, -0.41162109375, 0.054931640625
375, 119466151, -6.767553806304932, -0.8205718994140625, 7.177086353302002, -2.557863712310791, -1.722864031791687, -2.3756933212280273, 1.123046875, -0.41064453125, 0.054443359375
376, 119482818, -6.755777359008789, -0.8176667094230652, 7.166910648345947, -2.329014301300049, -1.782310962677002, -2.2222092151641846, 1.1259765625, -0.41015625, 0.054931640625
377, 119499485, -6.747162818908691, -0.8184195756912231, 7.160160541534424, -2.220621109008789, -1.886733889579773, -2.1455631256103516, 1.1240234375, -0.40966796875, 0.052978515625
378, 119516152, -6.782327175140381, -0.8135384321212769, 7.153199195861816, -2.15598726272583, -1.9920917749404907, -2.108450174331665, 1.12451171875, -0.41064453125, 0.05615234375
379, 119532819, -6.7624125480651855, -0.8424866795539856, 7.173498630523682, -1.9215925931930542, -2.1108193397521973, -1.9556576013565063, 1.12451171875, -0.4130859375, 0.054931640625
380, 119549486, -6.768423080444336, -0.8032077550888062, 7.179766654968262, -1.9169952869415283, -2.098883867263794, -1.903369426727295, 1.12451171875, -0.4130859375, 0.054931640625
381, 119566153, -6.751645088195801, -0.8067973852157593, 7.198314189910889, -1.936255931854248, -2.000133991241455, -1.8956342935562134, 1.1240234375, -0.41259765625, 0.053466796875
382, 119582820, -6.746694087982178, -0.7829552292823792, 7.173469543457031, -2.0493874549865723, -2.0535366535186768, -2.100689649581909, 1.1240234375, -0.41064453125, 0.053466796875
383, 119599487, -6.757893085479736, -0.7917510271072388, 7.212345123291016, -2.2523295879364014, -1.7683008909225464, -2.335097312927246, 1.125244140625, -0.4130859375, 0.052490234375
384, 119616154, -6.774195671081543, -0.7913567423820496, 7.162757396697998, -2.4315290451049805, -1.5674717426300049, -2.4561681747436523, 1.125244140625, -0.41259765625, 0.053955078125
385, 119632821, -6.749124050140381, -0.8150291442871094, 7.181042194366455, -2.578482151031494, -1.7003506422042847, -2.6052088737487793, 1.126220703125, -0.4140625, 0.05517578125
386, 119649488, -6.768880844116211, -0.8108428120613098, 7.1530070304870605, -2.6797924041748047, -1.6769273281097412, -2.6643354892730713, 1.125, -0.4130859375, 0.052978515625
387, 119666155, -6.766764163970947, -0.8111016750335693, 7.190098762512207, -2.6386969089508057, -1.6842013597488403, -2.6420650482177734, 1.12451171875, -0.41259765625, 0.052001953125
388, 119682822, -6.765503406524658, -0.8167551755905151, 7.174750328063965, -2.549449920654297, -1.7791352272033691, -2.6165683269500732, 1.12451171875, -0.412109375, 0.052490234375
389, 119699489, -6.757458686828613, -0.8191900849342346, 7.151434421539307, -2.6212291717529297, -1.811803936958313, -2.575087785720825, 1.1240234375, -0.41064453125, 0.052978515625
390, 119716156, -6.773193836212158, -0.7979588508605957, 7.1743950843811035, -2.756835460662842, -1.5869499444961548, -2.6521692276000977, 1.1240234375, -0.41015625, 0.053466796875
391, 119732823, -6.760455131530762, -0.8042453527450562, 7.164789199829102, -3.0886805057525635, -1.5552250146865845, -2.8566689491271973, 1.123046875, -0.412109375, 0.053955078125
392, 119749490, -6.766458511352539, -0.7929140329360962, 7.181875705718994, -3.2648768424987793, -1.3976850509643555, -3.0931692123413086, 1.12353515625, -0.41064453125, 0.054443359375
393, 119766157, -6.76464319229126, -0.772334635257721, 7.193268775939941, -3.494647741317749, -1.0966078042984009, -3.388995885848999, 1.12353515625, -0.41064453125, 0.055419921875
394, 119782824, -6.762789249420166, -0.8296443819999695, 7.16684103012085, -3.6442136764526367, -1.1046757698059082, -3.7770280838012695, 1.125, -0.40966796875, 0.055908203125
395, 119799491, -6.744729995727539, -0.8570540547370911, 7.176889419555664, -3.7597527503967285, -0.9043461084365845, -3.675525426864624, 1.1240234375, -0.407470703125, 0.052978515625
396, 119816158, -6.723448276519775, -0.8964312672615051, 7.176658630371094, -3.6605288982391357, -0.8279945850372314, -3.5053799152374268, 1.125, -0.408447265625, 0.054931640625
397, 119832825, -6.755880832672119, -0.881066620349884, 7.166207790374756, -3.4882190227508545, -0.8065310716629028, -3.246934413909912, 1.1259765625, -0.4091796875, 0.055419921875
398, 119849492, -6.759494781494141, -0.8436082005500793, 7.161883354187012, -3.2810001373291016, -0.9096351861953735, -3.02170991897583, 1.1240234375, -0.408447265625, 0.056396484375
399, 119866159, -6.770498752593994, -0.8623117804527283, 7.173433303833008, -3.2688851356506348, -0.9731419086456299, -3.06906795501709, 1.125, -0.407958984375, 0.054443359375
400, 119882826, -6.763842582702637, -0.851634681224823, 7.165913105010986, -3.1119043827056885, -1.0147238969802856, -3.007852792739868, 1.12548828125, -0.406494140625, 0.054931640625
401, 119899493, -6.772093296051025, -0.8760144710540771, 7.140645503997803, -2.9843790531158447, -1.2454687356948853, -2.9631075859069824, 1.12451171875, -0.406982421875, 0.055419921875
402, 119916160, -6.750197887420654, -0.8805326819419861, 7.144052028656006, -2.564305543899536, -1.4881749153137207, -2.733311176300049, 1.12353515625, -0.406005859375, 0.055908203125
403, 119932827, -6.764557838439941, -0.8740929961204529, 7.15430212020874, -2.518125295639038, -1.5286941528320312, -2.4069151878356934, 1.12451171875, -0.406982421875, 0.055419921875
404, 119949494, -6.772242546081543, -0.8620023131370544, 7.1496357917785645, -2.4622130393981934, -1.4409449100494385, -2.403226852416992, 1.125, -0.408447265625, 0.054931640625
405, 119966161, -6.775928020477295, -0.8786615133285522, 7.150395393371582, -2.338644504547119, -1.6484590768814087, -2.2894809246063232, 1.12451171875, -0.407470703125, 0.056396484375
406, 119982828, -6.762249946594238, -0.8820121884346008, 7.16688346862793, -2.161020040512085, -1.7885475158691406, -2.081671953201294, 1.12353515625, -0.408447265625, 0.056640625
407, 119999495, -6.750873565673828, -0.8730873465538025, 7.173874855041504, -2.043214797973633, -1.7721554040908813, -1.944131851196289, 1.12548828125, -0.406494140625, 0.054931640625
408, 120016162, -6.764984130859375, -0.8432162404060364, 7.16507625579834, -1.9866105318069458, -1.8430641889572144, -1.8767576217651367, 1.125, -0.407470703125, 0.05712890625
409, 120032829, -6.761756420135498, -0.8691191673278809, 7.161220550537109, -1.8981186151504517, -1.92237389087677, -1.764689326286316, 1.1240234375, -0.41064453125, 0.056640625
410, 120049496, -6.765871524810791, -0.8535133600234985, 7.152807235717773, -1.8765654563903809, -1.9432353973388672, -1.758772611618042, 1.1259765625, -0.407470703125, 0.055419921875
411, 120066163, -6.765419006347656, -0.8617798089981079, 7.167646884918213, -1.7907503843307495, -2.0732197761535645, -1.7220311164855957, 1.12548828125, -0.408447265625, 0.053466796875
412, 120082830, -6.756509304046631, -0.8768117427825928, 7.1647138595581055, -1.581737756729126, -2.0732200145721436, -1.5187946557998657, 1.12451171875, -0.40869140625, 0.054931640625
413, 120099497, -6.770028114318848, -0.87249755859375, 7.169812202453613, -1.5380042791366577, -2.0621042251586914, -1.4181753396987915, 1.125, -0.4091796875, 0.055908203125
414, 120116164, -6.753798961639404, -0.8387612104415894, 7.174119472503662, -1.5745664834976196, -2.084873914718628, -1.5305894613265991, 1.12353515625, -0.4091796875, 0.055908203125
415, 120132831, -6.762340545654297, -0.8562878370285034, 7.178193092346191, -1.702079176902771, -1.858214020729065, -1.627149224281311, 1.125, -0.40966796875, 0.05615234375
416, 120149498, -6.753095626831055, -0.8272361755371094, 7.178406238555908, -1.8508504629135132, -1.6001150608062744, -1.5716208219528198, 1.12548828125, -0.41015625, 0.053466796875
417, 120166165, -6.76731014251709, -0.8322059512138367, 7.176253318786621, -1.741471529006958, -1.6900283098220825, -1.643067479133606, 1.125, -0.41015625, 0.053955078125
418, 120182832, -6.748501300811768, -0.8575546741485596, 7.1737213134765625, -1.8190138339996338, -1.7348889112472534, -1.5381578207015991, 1.123046875, -0.40966796875, 0.055908203125
419, 120199499, -6.752852916717529, -0.8545456528663635, 7.186100959777832, -1.8348554372787476, -1.6393537521362305, -1.5681248903274536, 1.1240234375, -0.40966796875, 0.054443359375
420, 120216166, -6.756033897399902, -0.8286691308021545, 7.177326202392578, -1.9035872220993042, -1.5867836475372314, -1.5342135429382324, 1.126220703125, -0.41015625, 0.052978515625
421, 120232833, -6.759807109832764, -0.8228161334991455, 7.162975311279297, -1.904048204421997, -1.564449429512024, -1.5438438653945923, 1.12451171875, -0.41015625, 0.053955078125
422, 120249500, -6.753421783447266, -0.8498246669769287, 7.173162460327148, -1.8543338775634766, -1.5043363571166992, -1.5117640495300293, 1.127197265625, -0.4111328125, 0.05517578125
423, 120266167, -6.766607761383057, -0.8168233036994934, 7.162525177001953, -1.825647234916687, -1.462510585784912, -1.4725764989852905, 1.126220703125, -0.4111328125, 0.052978515625
424, 120282834, -6.764627456665039, -0.8202861547470093, 7.149191856384277, -1.695650339126587, -1.7346839904785156, -1.4023464918136597, 1.12451171875, -0.41162109375, 0.053955078125
425, 120299501, -6.7795209884643555, -0.7985957264900208, 7.167006969451904, -1.5802522897720337, -2.0230448246002197, -1.410542607307434, 1.12548828125, -0.412109375, 0.052978515625
426, 120316168, -6.76898193359375, -0.804601788520813, 7.160372257232666, -1.5920343399047852, -2.13967227935791, -1.3642092943191528, 1.126708984375, -0.4130859375, 0.053955078125
427, 120332835, -6.765641212463379, -0.7928712964057922, 7.168360710144043, -1.5682867765426636, -2.323265314102173, -1.568581223487854, 1.125, -0.41357421875, 0.055419921875
428, 120349502, -6.7477850914001465, -0.8078777194023132, 7.175516128540039, -1.623742699623108, -2.38409423828125, -1.6922695636749268, 1.1240234375, -0.41162109375, 0.053466796875
429, 120366169, -6.7660980224609375, -0.7895256280899048, 7.175913333892822, -1.79104483127594, -2.3462259769439697, -1.8048245906829834, 1.125, -0.41357421875, 0.053466796875
430, 120382836, -6.767148494720459, -0.8102801442146301, 7.1805033683776855, -1.9514827728271484, -2.292964220046997, -2.0147206783294678, 1.1240234375, -0.41259765625, 0.053955078125
431, 120399503, -6.760567665100098, -0.7974945306777954, 7.1700439453125, -2.0766007900238037, -2.23333740234375, -2.1486363410949707, 1.1240234375, -0.41357421875, 0.052978515625
432, 120416170, -6.7600998878479, -0.8021395206451416, 7.166494846343994, -2.1826634407043457, -2.0663561820983887, -2.2977540493011475, 1.12451171875, -0.414306640625, 0.053955078125
433, 120432837, -6.760302543640137, -0.8027936816215515, 7.171967506408691, -2.4126012325286865, -2.0257725715637207, -2.3671133518218994, 1.12451171875, -0.4111328125, 0.054443359375
434, 120449504, -6.737700939178467, -0.8031909465789795, 7.190132141113281, -2.4590628147125244, -1.779032588005066, -2.5569801330566406, 1.12451171875, -0.41259765625, 0.053466796875
435, 120466171, -6.765625953674316, -0.7884007096290588, 7.179989814758301, -2.5823745727539062, -1.8897432088851929, -2.6299631595611572, 1.12451171875, -0.41259765625, 0.054443359375
436, 120482838, -6.75383186340332, -0.7817233204841614, 7.191077709197998, -2.5669944286346436, -2.009636402130127, -2.7409939765930176, 1.1240234375, -0.4130859375, 0.052490234375
437, 120499505, -6.761077880859375, -0.7944824695587158, 7.178526401519775, -2.8566102981567383, -1.8591490983963013, -2.945511817932129, 1.1240234375, -0.414306640625, 0.054443359375
438, 120516172, -6.751162528991699, -0.7291825413703918, 7.1955885887146, -3.2438998222351074, -1.6299922466278076, -3.5468976497650146, 1.12451171875, -0.41259765625, 0.052001953125
439, 120532839, -6.757249355316162, -0.8040550351142883, 7.199398040771484, -3.8404579162597656, -1.0481871366500854, -3.9553442001342773, 1.12353515625, -0.41357421875, 0.052001953125
440, 120549506, -6.764461517333984, -0.8442103862762451, 7.188202857971191, -4.0334625244140625, -0.7237637042999268, -3.9046692848205566, 1.125, -0.41259765625, 0.053955078125
441, 120566173, -6.7527265548706055, -0.8455357551574707, 7.175611972808838, -4.0210280418396, -0.48151883482933044, -3.4659111499786377, 1.123046875, -0.41015625, 0.054931640625
442, 120582840, -6.761081695556641, -0.8204371929168701, 7.16701078414917, -4.721688747406006, 0.39011350274086, -3.2259838581085205, 1.123046875, -0.4091796875, 0.052978515625
443, 120599507, -6.796215534210205, -0.7727711200714111, 7.15865421295166, -5.371598720550537, 0.6006371378898621, -4.009950637817383, 1.12451171875, -0.4091796875, 0.054443359375
444, 120616174, -6.748205184936523, -0.9083315134048462, 7.138089179992676, -4.9013237953186035, -0.31298723816871643, -4.186677932739258, 1.1259765625, -0.407958984375, 0.053955078125
445, 120632841, -6.7370781898498535, -0.9489322900772095, 7.1292219161987305, -3.775402069091797, -1.3694472312927246, -3.5944864749908447, 1.1259765625, -0.407958984375, 0.05615234375
446, 120649508, -6.733590602874756, -0.923294186592102, 7.119278907775879, -2.913585901260376, -2.1686148643493652, -2.8455841541290283, 1.125, -0.406982421875, 0.055419921875
447, 120666175, -6.760213851928711, -0.895579993724823, 7.13557243347168, -2.327080011367798, -2.3909451961517334, -2.4917314052581787, 1.1240234375, -0.407470703125, 0.055908203125
448, 120682842, -6.757875919342041, -0.8889545202255249, 7.196539878845215, -2.0869996547698975, -2.4212708473205566, -1.9417630434036255, 1.123046875, -0.407958984375, 0.052490234375
449, 120699509, -6.739136695861816, -0.8239032626152039, 7.234873294830322, -2.425586700439453, -1.9956649541854858, -1.7636265754699707, 1.12451171875, -0.406494140625, 0.054931640625
450, 120716176, -6.757004737854004, -0.835256040096283, 7.162102699279785, -2.506061553955078, -1.3499428033828735, -1.8144546747207642, 1.12255859375, -0.407958984375, 0.056396484375
451, 120732843, -6.7597551345825195, -0.8886449933052063, 7.149715423583984, -2.485520601272583, -1.337815523147583, -1.852361798286438, 1.12353515625, -0.406982421875, 0.054443359375
452, 120749510, -6.749756336212158, -0.8579601645469666, 7.174363136291504, -2.4370484352111816, -1.382381558418274, -1.9690660238265991, 1.1240234375, -0.407958984375, 0.052978515625
453, 120766177, -6.756902694702148, -0.8971840143203735, 7.1480841636657715, -2.242481231689453, -1.5948771238327026, -1.9271763563156128, 1.1259765625, -0.408447265625, 0.052978515625
454, 120782844, -6.7385334968566895, -0.8961390852928162, 7.144389629364014, -1.9773517847061157, -1.9208626747131348, -1.6355500221252441, 1.1259765625, -0.406494140625, 0.052001953125
455, 120799511, -6.741951942443848, -0.8754761815071106, 7.187195777893066, -1.8028137683868408, -1.7553023099899292, -1.447335124015808, 1.1240234375, -0.407470703125, 0.055419921875
456, 120816178, -6.76497745513916, -0.8758657574653625, 7.156778335571289, -1.9216054677963257, -1.5700711011886597, -1.4788514375686646, 1.12255859375, -0.407470703125, 0.054931640625
457, 120832845, -6.776185035705566, -0.8671780824661255, 7.1615824699401855, -1.8640025854110718, -1.6480234861373901, -1.189492106437683, 1.12451171875, -0.4111328125, 0.053466796875
458, 120849512, -6.773628234863281, -0.8530334830284119, 7.172321319580078, -1.8167343139648438, -2.007356882095337, -1.223621129989624, 1.125, -0.41015625, 0.053466796875
459, 120866179, -6.7664031982421875, -0.8168192505836487, 7.187264919281006, -1.9717555046081543, -1.9149848222732544, -1.375350832939148, 1.126220703125, -0.41015625, 0.054443359375
460, 120882846, -6.781081199645996, -0.8321925401687622, 7.179248332977295, -2.1459856033325195, -1.5632840394973755, -1.5247368812561035, 1.1259765625, -0.40966796875, 0.053955078125
461, 120899513, -6.784070014953613, -0.8182495832443237, 7.17347526550293, -2.6011104583740234, -1.2992810010910034, -1.6686545610427856, 1.12451171875, -0.41015625, 0.054931640625
462, 120916180, -6.764676570892334, -0.83030766248703, 7.17857027053833, -2.9819843769073486, -1.2033487558364868, -1.7817988395690918, 1.125, -0.40966796875, 0.054443359375
463, 120932847, -6.775934219360352, -0.8442644476890564, 7.153319358825684, -3.0268168449401855, -1.0291591882705688, -1.794151782989502, 1.12353515625, -0.40966796875, 0.054443359375
464, 120949514, -6.757354259490967, -0.8654256463050842, 7.13151741027832, -2.6894612312316895, -1.374723196029663, -1.8851715326309204, 1.1259765625, -0.40869140625, 0.054931640625
465, 120966181, -6.756021022796631, -0.8850184082984924, 7.135781288146973, -2.3607735633850098, -1.9139217138290405, -1.6475239992141724, 1.125, -0.40966796875, 0.053955078125
466, 120982848, -6.751119136810303, -0.850862979888916, 7.158923625946045, -2.038770914077759, -2.277020215988159, -1.4804270267486572, 1.1259765625, -0.40966796875, 0.052001953125
467, 120999515, -6.742249965667725, -0.8662002682685852, 7.18373441696167, -1.7989721298217773, -2.1990807056427, -1.2753844261169434, 1.1240234375, -0.41064453125, 0.052978515625
468, 121016182, -6.746870994567871, -0.8043872117996216, 7.164377212524414, -1.7255275249481201, -1.966338038444519, -1.1376776695251465, 1.12548828125, -0.4111328125, 0.054931640625
469, 121032849, -6.774979591369629, -0.8245131373405457, 7.162209987640381, -1.9379850625991821, -1.9790421724319458, -1.3154042959213257, 1.12451171875, -0.41064453125, 0.054931640625
470, 121049516, -6.762489318847656, -0.8534945845603943, 7.136638164520264, -1.9323501586914062, -2.1079254150390625, -1.280071496963501, 1.1240234375, -0.412109375, 0.054443359375
471, 121066183, -6.744510650634766, -0.7967009544372559, 7.194720268249512, -2.2423532009124756, -1.6125115156173706, -1.5481338500976562, 1.1220703125, -0.41015625, 0.054443359375
472, 121082850, -6.751682758331299, -0.7732312679290771, 7.208829402923584, -3.2199010848999023, -0.2838655710220337, -2.0113015174865723, 1.12353515625, -0.41259765625, 0.052001953125
473, 121099517, -6.7140984535217285, -0.7303552627563477, 7.210526466369629, -4.1102752685546875, 1.3155772686004639, -2.495983123779297, 1.125732421875, -0.41162109375, 0.053955078125
474, 121116184, -6.698261260986328, -0.7624446153640747, 7.195709228515625, -4.575913906097412, 2.94614577293396, -3.1997179985046387, 1.12548828125, -0.41162109375, 0.05615234375
475, 121132851, -6.682851791381836, -0.8337254524230957, 7.210646629333496, -4.928115367889404, 5.557336330413818, -3.5631632804870605, 1.12451171875, -0.407958984375, 0.05810546875
476, 121149518, -6.667515754699707, -0.713771641254425, 7.246822357177734, -6.341375350952148, 9.7360258102417, -4.587634086608887, 1.129638671875, -0.41015625, 0.060791015625
477, 121166185, -6.574936866760254, -0.7750787138938904, 7.272462844848633, -7.7378106117248535, 15.678313255310059, -6.145390033721924, 1.130126953125, -0.408935546875, 0.063232421875
478, 121182852, -6.422401428222656, -0.7716953158378601, 7.37230110168457, -8.562655448913574, 24.780179977416992, -7.093776226043701, 1.13330078125, -0.405517578125, 0.06787109375
479, 121199519, -6.316214561462402, -0.7702594995498657, 7.5919060707092285, -10.417052268981934, 37.90789031982422, -7.926086902618408, 1.1357421875, -0.40234375, 0.078369140625
480, 121216186, -6.4162797927856445, -0.6971198916435242, 7.666576385498047, -15.347667694091797, 56.78388977050781, -10.23072338104248, 1.140869140625, -0.4013671875, 0.091796875
481, 121232853, -5.435761451721191, -2.112076997756958, 9.032814025878906, -22.448545455932617, 82.1190185546875, -4.946976661682129, 1.150634765625, -0.397705078125, 0.113037109375
482, 121249520, -6.854885578155518, -2.204179525375366, 10.127910614013672, -12.435652732849121, 108.90522766113281, 12.7241849899292, 1.161376953125, -0.399169921875, 0.140625
483, 121266187, -6.400008678436279, -2.330906629562378, 11.453387260437012, -18.638975143432617, 112.08573913574219, 30.29051399230957, 1.172607421875, -0.40576171875, 0.170166015625
484, 121282854, -2.5291006565093994, -3.0596206188201904, 14.673360824584961, -9.507156372070312, 98.82050323486328, 53.85970687866211, 1.183349609375, -0.41943359375, 0.1953125
485, 121299521, -3.0145487785339355, -4.795324802398682, 17.451601028442383, 1.0327272415161133, 64.54107666015625, 63.43730926513672, 1.191162109375, -0.433837890625, 0.216064453125
486, 121316188, -0.48153358697891235, -5.671326637268066, 16.70231056213379, 13.024609565734863, 13.044203758239746, 53.87711715698242, 1.19189453125, -0.447509765625, 0.220947265625
487, 121332855, 2.0444445610046387, -5.326863765716553, 14.8922119140625, 16.865816116333008, -16.754302978515625, 39.685245513916016, 1.193603515625, -0.45947265625, 0.217041015625
488, 121349522, 2.319901466369629, -5.090150356292725, 13.974510192871094, 7.839057922363281, -36.73799133300781, 23.567527770996094, 1.192626953125, -0.465576171875, 0.208740234375
489, 121366189, 1.46589195728302, -4.913080215454102, 13.371007919311523, -6.254075527191162, -55.09022903442383, 7.841766834259033, 1.192626953125, -0.466552734375, 0.19287109375
490, 121382856, -0.09641482681035995, -4.577968597412109, 12.945241928100586, -19.135337829589844, -65.93710327148438, -7.672143936157227, 1.1865234375, -0.462890625, 0.17626953125
491, 121399523, -3.188931465148926, -4.045111656188965, 13.28711986541748, -33.63216781616211, -77.01058959960938, -26.00140953063965, 1.18115234375, -0.455322265625, 0.157958984375
492, 121416190, -5.176938056945801, -3.685393810272217, 12.84327220916748, -44.345359802246094, -97.45164489746094, -44.975975036621094, 1.172607421875, -0.43798828125, 0.135986328125
493, 121432857, -5.597195625305176, -2.957303285598755, 11.36148738861084, -42.25669479370117, -113.6686019897461, -56.63288116455078, 1.1611328125, -0.4169921875, 0.107177734375
494, 121449524, -5.532652854919434, -2.067194700241089, 9.836840629577637, -33.69941329956055, -114.99050903320312, -59.74395751953125, 1.145751953125, -0.3935546875, 0.076904296875
495, 121466191, -6.148878574371338, -1.5124306678771973, 9.148567199707031, -23.684656143188477, -103.97368621826172, -57.0268440246582, 1.130126953125, -0.3701171875, 0.0517578125
496, 121482858, -7.98535680770874, -1.1713762283325195, 9.69067668914795, -14.1245756149292, -94.45451354980469, -52.87862777709961, 1.1103515625, -0.354248046875, 0.030517578125
497, 121499525, -10.923925399780273, -0.5100030303001404, 10.946928977966309, -14.18264102935791, -102.88713073730469, -53.86570739746094, 1.089599609375, -0.3359375, 0.013427734375
498, 121516192, -12.322569847106934, 0.25809773802757263, 10.93707275390625, -25.692623138427734, -135.07778930664062, -62.004581451416016, 1.06689453125, -0.32177734375, -0.00830078125
499, 121532859, -10.57048511505127, 0.7505517601966858, 8.811610221862793, -32.07875061035156, -162.58978271484375, -64.64276123046875, 1.04541015625, -0.303466796875, -0.03662109375
500, 121549526, -8.652911186218262, 1.3151087760925293, 6.7219743728637695, -29.051301956176758, -163.75245666503906, -55.66468048095703, 1.0185546875, -0.28759765625, -0.0703125
501, 121566193, -8.397007942199707, 1.5656803846359253, 5.783923625946045, -26.453649520874023, -150.10218811035156, -43.120994567871094, 0.998779296875, -0.27392578125, -0.103271484375
502, 121582860, -9.340383529663086, 1.4488143920898438, 5.613719463348389, -26.390954971313477, -138.05026245117188, -34.758460998535156, 0.97607421875, -0.262451171875, -0.13720703125
503, 121599527, -10.081883430480957, 1.4047991037368774, 4.864792346954346, -22.653724670410156, -135.62855529785156, -30.418319702148438, 0.948974609375, -0.254150390625, -0.16552734375
504, 121616194, -9.526122093200684, 1.4248449802398682, 2.538083076477051, -11.059005737304688, -131.39132690429688, -22.305009841918945, 0.9248046875, -0.247802734375, -0.197021484375
505, 121632861, -8.780105590820312, 1.9577240943908691, 0.2166515290737152, -2.1220853328704834, -106.70628356933594, -10.058719635009766, 0.901123046875, -0.245849609375, -0.220703125
506, 121649528, -8.977027893066406, 1.9868608713150024, -1.4751002788543701, -3.187102794647217, -66.95089721679688, -1.3250682353973389, 0.8837890625, -0.245849609375, -0.238037109375
507, 121666195, -9.743576049804688, 1.6019399166107178, -2.7693469524383545, 1.0532922744750977, -22.546964645385742, 5.002560615539551, 0.87548828125, -0.2490234375, -0.246337890625
508, 121682862, -11.462413787841797, 1.5062010288238525, -3.0246691703796387, 10.731258392333984, 18.238393783569336, 6.423272132873535, 0.8759765625, -0.2490234375, -0.247314453125
509, 121699529, -12.369847297668457, 2.383945941925049, -3.610381603240967, 18.0697078704834, 51.95317077636719, 8.717794418334961, 0.88134765625, -0.257080078125, -0.239990234375
510, 121716196, -5.4627580642700195, 3.66178560256958, -5.3575358390808105, -39.42044448852539, 139.654052734375, 26.820545196533203, 0.906982421875, -0.258056640625, -0.21875
511, 121732863, -7.832873821258545, -6.494244575500488, 14.5603666305542, -26.585445404052734, 193.05685424804688, 69.27632904052734, 0.949462890625, -0.263916015625, -0.181396484375
512, 121749530, -6.163022041320801, -10.41695785522461, 9.042684555053711, -9.599088668823242, 222.73143005371094, 50.59787368774414, 0.989013671875, -0.276611328125, -0.13671875
513, 121766197, -16.563514709472656, -2.961700916290283, 7.393165588378906, 3.760956287384033, 233.44281005859375, 9.16016674041748, 1.03125, -0.279541015625, -0.082275390625
514, 121782864, -12.927977561950684, 2.6867787837982178, 10.811532020568848, 2.3114190101623535, 165.0528106689453, 20.273666381835938, 1.059326171875, -0.285888671875, -0.044677734375
515, 121799531, -10.888014793395996, -3.371572971343994, 8.018362998962402, -7.636510372161865, 127.54486083984375, 32.553245544433594, 1.0791015625, -0.29248046875, -0.0166015625
516, 121816198, -9.361388206481934, -4.152171611785889, 6.368861198425293, 4.25992488861084, 115.795166015625, 16.017723083496094, 1.09814453125, -0.298095703125, 0.0087890625
517, 121832865, -14.371682167053223, -3.2424261569976807, 8.761731147766113, 26.198959350585938, 86.77162170410156, 14.484313011169434, 1.111328125, -0.3017578125, 0.030029296875
518, 121849532, -11.495357513427734, 0.668407678604126, 8.26353931427002, 31.62081527709961, 29.107961654663086, 15.013601303100586, 1.118896484375, -0.311767578125, 0.036865234375
519, 121866199, -7.652386665344238, -0.7565385699272156, 7.65280818939209, 12.581388473510742, 11.448269844055176, 7.938351631164551, 1.122314453125, -0.31494140625, 0.0390625
520, 121882866, -7.982949733734131, -1.0923534631729126, 7.465409278869629, 9.329757690429688, 4.965095043182373, 6.347912788391113, 1.12158203125, -0.320068359375, 0.037109375
521, 121899533, -7.25564432144165, -1.3837409019470215, 7.3661208152771, 6.193798065185547, 0.007472505327314138, 4.586370468139648, 1.12255859375, -0.322021484375, 0.03857421875
522, 121916200, -7.106817245483398, -1.3318952322006226, 7.2385077476501465, 3.5404374599456787, -1.2902270555496216, 3.0531299114227295, 1.12353515625, -0.321533203125, 0.03759765625
523, 121932867, -6.819860458374023, -1.50773024559021, 7.094363212585449, 3.4817333221435547, -2.0617713928222656, 3.98812198638916, 1.1240234375, -0.323974609375, 0.038330078125
524, 121949534, -6.763970375061035, -1.5672374963760376, 6.971443176269531, 6.004124641418457, -4.024153709411621, 7.614778995513916, 1.125732421875, -0.3291015625, 0.03466796875
525, 121966201, -6.8442463874816895, -1.4911736249923706, 6.985411167144775, 7.522846221923828, -6.519589424133301, 10.29803466796875, 1.124267578125, -0.330810546875, 0.03564453125
526, 121982868, -6.7042107582092285, -1.5067232847213745, 6.971268177032471, 8.683259010314941, -8.31418514251709, 12.591236114501953, 1.124755859375, -0.3369140625, 0.028564453125
527, 121999535, -6.667633533477783, -1.6451810598373413, 6.856675148010254, 10.063840866088867, -9.94791030883789, 15.339334487915039, 1.124267578125, -0.342041015625, 0.026611328125
528, 122016202, -6.696474552154541, -1.6027891635894775, 7.029813766479492, 10.973204612731934, -8.189440727233887, 13.304129600524902, 1.123291015625, -0.345703125, 0.0234375
529, 122032869, -6.765583038330078, -0.9748537540435791, 7.264265537261963, 8.928243637084961, -7.272655010223389, 10.453274726867676, 1.1220703125, -0.350830078125, 0.0205078125
530, 122049536, -6.636510848999023, -0.9177588224411011, 7.220898151397705, 6.468625545501709, -6.367231845855713, 7.617137908935547, 1.12353515625, -0.359375, 0.01904296875
531, 122066203, -6.434725761413574, -1.259731411933899, 7.195144176483154, 4.785945415496826, -4.654545783996582, 5.521695613861084, 1.123291015625, -0.363525390625, 0.012451171875
532, 122082870, -6.5189313888549805, -1.5564230680465698, 7.135768890380859, 5.484467506408691, -2.9859800338745117, 4.854548454284668, 1.12939453125, -0.36669921875, 0.013916015625
533, 122099537, -6.813946723937988, -1.2786195278167725, 7.068293571472168, 6.191122531890869, -4.86976957321167, 4.747385501861572, 1.13427734375, -0.355712890625, 0.020263671875
534, 122116204, -6.761142253875732, -1.1879760026931763, 7.061550140380859, 8.294899940490723, -8.537075996398926, 5.302286148071289, 1.121826171875, -0.351318359375, 0.0126953125
535, 122132871, -6.643619060516357, -1.151393175125122, 7.160989284515381, 11.340860366821289, -12.556269645690918, 5.827589511871338, 1.1181640625, -0.363037109375, 0.006591796875
536, 122149538, -6.455265045166016, -1.2745510339736938, 7.257972717285156, 13.404227256774902, -14.117586135864258, 5.948679447174072, 1.11767578125, -0.370849609375, 0.001953125
537, 122166205, -6.331365585327148, -1.3271653652191162, 7.255619049072266, 17.151622772216797, -13.858893394470215, 10.315977096557617, 1.11474609375, -0.37548828125, 0.0
538, 122182872, -6.377267360687256, -1.5469374656677246, 7.282922267913818, 20.195894241333008, -8.560837745666504, 17.628442764282227, 1.11474609375, -0.3857421875, -0.001953125
539, 122199539, -6.5724568367004395, -1.0723999738693237, 7.48475980758667, 14.728111267089844, 1.5584019422531128, 20.627126693725586, 1.115478515625, -0.391845703125, -0.00390625
540, 122216206, -6.417229652404785, -0.8842847943305969, 7.703511714935303, 4.838310718536377, 18.54697036743164, 21.04558753967285, 1.1162109375, -0.40087890625, 0.002685546875
541, 122232873, -5.997467517852783, -0.8523537516593933, 8.018404006958008, -4.543013095855713, 41.45040512084961, 24.97454261779785, 1.124267578125, -0.405029296875, 0.0107421875
542, 122249540, -5.190971374511719, -1.352805733680725, 8.653853416442871, -0.06628727912902832, 77.32416534423828, 30.474111557006836, 1.13232421875, -0.414306640625, 0.029541015625
543, 122266207, -5.667929172515869, 0.0326777845621109, 8.674701690673828, 0.26196303963661194, 124.80423736572266, 35.99109649658203, 1.1484375, -0.42578125, 0.059814453125
544, 122282874, -5.80694055557251, 0.3356524109840393, 8.402229309082031, 3.785156726837158, 174.59800720214844, 37.961570739746094, 1.16796875, -0.435546875, 0.099853515625
545, 122299541, -5.778450012207031, 0.10244634002447128, 8.191020965576172, 8.162288665771484, 233.6131591796875, 44.34604263305664, 1.19384765625, -0.4501953125, 0.156982421875
546, 122316208, -5.829572677612305, -0.2110113948583603, 7.665610313415527, 8.97801399230957, 304.9237976074219, 58.825523376464844, 1.219970703125, -0.467529296875, 0.23291015625
547, 122332875, -5.909482955932617, -0.48523303866386414, 7.878085136413574, 13.001992225646973, 392.08367919921875, 75.84822082519531, 1.241943359375, -0.492919921875, 0.33349609375
548, 122349542, -8.224733352661133, -2.499403715133667, 7.963446617126465, 43.37010955810547, 509.65228271484375, 104.9342269897461, 1.258544921875, -0.517822265625, 0.46484375
549, 122366209, -14.46296215057373, -1.6859638690948486, 9.190664291381836, 64.22945404052734, 560.6412353515625, 143.10716247558594, 1.253173828125, -0.55615234375, 0.615478515625
550, 122382876, -25.985107421875, 1.1186294555664062, 10.78882884979248, 37.21895217895508, 550.3955078125, 124.61333465576172, 1.219970703125, -0.593994140625, 0.761474609375
551, 122399543, -24.89512062072754, -3.14897084236145, 10.690508842468262, 21.232131958007812, 508.6059875488281, 108.7333984375, 1.162353515625, -0.6201171875, 0.88720703125
552, 122416210, -24.97467613220215, -1.9978622198104858, 13.399423599243164, 20.261817932128906, 458.2574157714844, 128.42568969726562, 1.09228515625, -0.6474609375, 0.99365234375
553, 122432877, -18.32244873046875, -3.596630334854126, 18.82975959777832, -11.353610038757324, 374.7616882324219, 127.40809631347656, 1.021240234375, -0.680419921875, 1.068359375
554, 122449544, -20.058046340942383, -4.040021896362305, 18.821697235107422, -71.72003936767578, 242.02920532226562, 90.26193237304688, 0.96435546875, -0.71337890625, 1.11279296875
555, 122466211, -22.926633834838867, -8.050047874450684, 22.616046905517578, -85.3282699584961, -59.44120407104492, 22.40420150756836, 0.952392578125, -0.741943359375, 1.098388671875
556, 122482878, -9.97179126739502, -6.168081283569336, 14.227461814880371, -42.64102554321289, -260.38104248046875, -4.262768268585205, 0.985107421875, -0.749755859375, 1.0439453125
557, 122499545, -1.2180390357971191, -3.098226308822632, 7.129852771759033, -21.316375732421875, -301.1517639160156, -8.610095024108887, 1.025390625, -0.75048828125, 0.977783203125
558, 122516212, 1.2540290355682373, -2.403780937194824, 3.7200214862823486, -23.620145797729492, -271.8060302734375, -12.128368377685547, 1.057373046875, -0.75, 0.912109375
559, 122532879, -1.0590746402740479, -2.9016170501708984, 3.9385383129119873, -30.74290657043457, -237.6269073486328, -19.299842834472656, 1.078857421875, -0.7490234375, 0.8583984375
560, 122549546, -5.863018989562988, -3.7234480381011963, 5.879491806030273, -40.4583854675293, -243.17872619628906, -46.42861557006836, 1.096435546875, -0.743408203125, 0.8037109375
561, 122566213, -8.007062911987305, -5.016167640686035, 6.300654411315918, -33.4162483215332, -284.13494873046875, -89.87335968017578, 1.118408203125, -0.726318359375, 0.7421875
562, 122582880, -8.149691581726074, -4.893863201141357, 5.666630744934082, -5.5176005363464355, -316.40142822265625, -130.2599639892578, 1.138427734375, -0.69921875, 0.677978515625
563, 122599547, -9.094316482543945, -2.8915696144104004, 5.610005855560303, 17.981351852416992, -331.1458435058594, -163.18626403808594, 1.16064453125, -0.6650390625, 0.61669921875
564, 122616214, -10.297940254211426, 0.10221916437149048, 5.848397731781006, 13.586502075195312, -340.19921875, -177.01564025878906, 1.183837890625, -0.631103515625, 0.53955078125
565, 122632881, -11.783244132995605, 1.2392946481704712, 6.409128189086914, -13.927125930786133, -348.45843505859375, -166.22335815429688, 1.199951171875, -0.591796875, 0.448486328125
566, 122649548, -11.818760871887207, 1.165911078453064, 5.514930248260498, -38.698795318603516, -349.23138427734375, -145.3764190673828, 1.201171875, -0.54833984375, 0.3583984375
567, 122666215, -11.855971336364746, 1.839457392692566, 5.848180770874023, -57.48262023925781, -311.40509033203125, -119.44491577148438, 1.191162109375, -0.511474609375, 0.279052734375
568, 122682882, -17.637746810913086, 2.2067177295684814, 10.254799842834473, -83.70034790039062, -278.21075439453125, -92.92192077636719, 1.175537109375, -0.478515625, 0.212646484375
569, 122699549, -23.49171257019043, 1.8024249076843262, 13.216706275939941, -129.03929138183594, -308.9969787597656, -83.26058959960938, 1.158935546875, -0.44677734375, 0.141357421875
570, 122716216, -25.145423889160156, -0.48174306750297546, 11.400096893310547, -155.75656127929688, -353.953857421875, -83.57554626464844, 1.129638671875, -0.41064453125, 0.0654296875
571, 122732883, -25.19771385192871, 0.14755122363567352, 7.471275806427002, -157.0932159423828, -371.4275207519531, -94.56321716308594, 1.0859375, -0.36767578125, -0.01708984375
572, 122749550, -24.580978393554688, 2.414560317993164, 3.809042453765869, -161.87393188476562, -354.3558044433594, -99.84813690185547, 1.033935546875, -0.3203125, -0.091796875
573, 122766217, -24.126672744750977, 5.401172637939453, 0.22116291522979736, -170.34823608398438, -315.8564147949219, -94.89752197265625, 0.9755859375, -0.26806640625, -0.150634765625
574, 122782884, -22.300260543823242, 7.072287559509277, -6.537406921386719, -169.12155151367188, -266.1686096191406, -74.12870788574219, 0.919677734375, -0.22119140625, -0.193115234375
575, 122799551, -21.23148536682129, 8.834395408630371, -14.451864242553711, -142.13467407226562, -188.75445556640625, -41.89976501464844, 0.87353515625, -0.1796875, -0.2177734375
576, 122816218, -21.60622215270996, 10.329556465148926, -20.77326202392578, -95.97835540771484, -94.36676025390625, -20.966617584228516, 0.847900390625, -0.15576171875, -0.22509765625
577, 122832885, -20.7144832611084, 8.692437171936035, -22.085344314575195, -8.470515251159668, 11.689709663391113, -14.259376525878906, 0.84375, -0.14306640625, -0.226318359375
578, 122849552, -22.12812614440918, 6.447350978851318, -15.154431343078613, 106.00352478027344, 106.45282745361328, -16.089834213256836, 0.85986328125, -0.157958984375, -0.21923828125
579, 122866219, -7.787808418273926, -10.468722343444824, 29.947904586791992, 192.85476684570312, 28.295886993408203, 3.324326753616333, 0.875732421875, -0.195556640625, -0.230224609375
580, 122882886, 32.169342041015625, -6.8050127029418945, 7.979011535644531, 171.52102661132812, 186.61366271972656, 72.11743927001953, 0.893798828125, -0.237548828125, -0.215087890625
581, 122899553, -22.679168701171875, 12.31098461151123, 11.523296356201172, 167.7404022216797, 335.328125, 140.63626098632812, 0.966552734375, -0.30322265625, -0.156005859375
582, 122916220, -17.664548873901367, 15.383384704589844, 9.310798645019531, 86.81502532958984, 231.53956604003906, 60.73031234741211, 1.0126953125, -0.33935546875, -0.109375
583, 122932887, -16.426738739013672, 4.521994590759277, 15.386176109313965, 10.9336576461792, 209.03463745117188, 63.23617172241211, 1.052490234375, -0.357177734375, -0.065185546875
584, 122949554, -15.012351989746094, -4.26129150390625, 7.383502006530762, 0.10665708035230637, 179.19602966308594, 18.679153442382812, 1.082275390625, -0.36279296875, -0.02197265625
585, 122966221, -11.145702362060547, 1.1644117832183838, 9.10018253326416, -7.295968055725098, 134.96119689941406, 8.5978364944458, 1.105712890625, -0.364013671875, 0.00732421875
586, 122982888, -9.135273933410645, -3.6305179595947266, 7.781514644622803, -13.625544548034668, 114.4500732421875, 4.916952610015869, 1.119140625, -0.35888671875, 0.033935546875
587, 122999555, -14.204313278198242, -5.287780284881592, 6.771819114685059, 30.32320213317871, 62.826873779296875, 8.236899375915527, 1.13037109375, -0.362548828125, 0.051513671875
588, 123016222, -8.485271453857422, -0.23764604330062866, 8.361305236816406, 18.87253761291504, 30.849939346313477, 11.549483299255371, 1.13671875, -0.369140625, 0.057373046875
589, 123032889, -7.844467639923096, -1.71917724609375, 7.318384170532227, 18.000080108642578, 13.332050323486328, 12.793733596801758, 1.13623046875, -0.372802734375, 0.06103515625
590, 123049556, -7.176939010620117, -1.258442997932434, 7.440456390380859, 16.82131576538086, 4.194311618804932, 14.85327434539795, 1.139404296875, -0.37841796875, 0.0595703125
591, 123066223, -7.26446008682251, -0.6959330439567566, 7.652286052703857, 13.484596252441406, 1.5230414867401123, 12.568197250366211, 1.140380859375, -0.385009765625, 0.061279296875
592, 123082890, -7.3376145362854, -0.5292187333106995, 7.448333263397217, 5.925813674926758, 3.6268937587738037, 5.146982192993164, 1.138916015625, -0.385498046875, 0.060791015625
593, 123099557, -7.198091506958008, -0.8553220629692078, 7.228412628173828, -0.20966556668281555, 5.971645832061768, -1.0206917524337769, 1.14111328125, -0.386474609375, 0.060791015625
594, 123116224, -7.006308078765869, -1.171463131904602, 7.044227123260498, -3.3418304920196533, 6.17877721786499, -4.254078388214111, 1.14111328125, -0.385498046875, 0.063232421875
595, 123132891, -6.8942060470581055, -1.6410213708877563, 6.930191993713379, -3.1551647186279297, 5.567170143127441, -3.513370990753174, 1.14111328125, -0.387451171875, 0.0634765625
596, 123149558, -6.806018829345703, -1.877779483795166, 6.766751766204834, 0.16545161604881287, 3.372699499130249, 0.7619585990905762, 1.14306640625, -0.390625, 0.064453125
597, 123166225, -6.846687316894531, -1.6897408962249756, 6.668466567993164, 6.584713935852051, -1.6321442127227783, 7.783105850219727, 1.1416015625, -0.394775390625, 0.06298828125
598, 123182892, -6.911139488220215, -1.1346968412399292, 6.8725104331970215, 11.668871879577637, -7.639317512512207, 12.083708763122559, 1.149658203125, -0.406005859375, 0.062255859375
599, 123199559, -6.918074131011963, -0.9422003030776978, 7.057031631469727, 12.019012451171875, -9.380472183227539, 11.32768726348877, 1.157958984375, -0.389892578125, 0.0703125
600, 123216226, -6.833225727081299, -1.055070400238037, 7.066152095794678, 11.60159969329834, -9.996302604675293, 10.917342185974121, 1.140869140625, -0.384521484375, 0.060302734375
601, 123232893, -6.706190586090088, -1.378007411956787, 7.019482612609863, 11.578869819641113, -9.120002746582031, 12.684405326843262, 1.134765625, -0.4033203125, 0.05517578125
602, 123249560, -6.568800449371338, -1.2209519147872925, 7.219285488128662, 9.07729721069336, -1.1253206729888916, 12.842367172241211, 1.137939453125, -0.412109375, 0.0556640625
603, 123266227, -6.496982574462891, -1.0226224660873413, 7.315174102783203, 5.324277877807617, 11.777584075927734, 12.899319648742676, 1.138427734375, -0.417724609375, 0.056884765625
604, 123282894, -6.5158257484436035, -0.8790112137794495, 7.280159950256348, 0.8569331765174866, 26.242820739746094, 14.081053733825684, 1.14208984375, -0.42333984375, 0.064208984375
605, 123299561, -6.522687911987305, -0.603859543800354, 7.5448503494262695, -7.769749164581299, 43.768131256103516, 14.257705688476562, 1.14990234375, -0.427001953125, 0.072509765625
606, 123316228, -5.82687520980835, -1.0996206998825073, 7.939160346984863, -11.197427749633789, 70.6287612915039, 14.315211296081543, 1.15673828125, -0.429443359375, 0.091796875
607, 123332895, -6.253026962280273, -0.9670750498771667, 7.798726558685303, -9.65884780883789, 108.99839782714844, 17.455474853515625, 1.1669921875, -0.4345703125, 0.117919921875
608, 123349562, -6.463310241699219, -0.4050981104373932, 7.708726406097412, -7.654882431030273, 146.53778076171875, 19.22392463684082, 1.18408203125, -0.4375, 0.1533203125
609, 123366229, -6.660879135131836, -0.42383942008018494, 7.634490489959717, -3.666213274002075, 187.39666748046875, 21.55942153930664, 1.20263671875, -0.446533203125, 0.201416015625
610, 123382896, -6.7130866050720215, -0.6598846316337585, 7.316068172454834, 0.6286303997039795, 237.641357421875, 27.38968276977539, 1.22021484375, -0.45263671875, 0.26171875
611, 123399563, -6.644093036651611, -0.6807740330696106, 6.956125259399414, 5.65432071685791, 299.2529296875, 35.091758728027344, 1.23583984375, -0.46435546875, 0.34130859375
612, 123416230, -6.47695255279541, -0.8257348537445068, 6.434121608734131, 13.255043029785156, 375.81829833984375, 41.30532455444336, 1.248046875, -0.476318359375, 0.439453125
613, 123432897, -9.634449005126953, -2.0975875854492188, 7.46940803527832, 42.492610931396484, 446.3524169921875, 54.15313720703125, 1.251708984375, -0.49365234375, 0.559326171875
614, 123449564, -15.49387264251709, -1.7734929323196411, 8.454872131347656, 56.73423385620117, 497.53350830078125, 86.62110137939453, 1.2353515625, -0.51318359375, 0.69189453125
615, 123466231, -22.700050354003906, -1.5348012447357178, 9.907918930053711, 24.024944305419922, 530.3602905273438, 86.0776596069336, 1.195068359375, -0.5341796875, 0.827880859375
616, 123482898, -22.903554916381836, -1.595964789390564, 10.260466575622559, 9.684707641601562, 518.4181518554688, 78.68074035644531, 1.134521484375, -0.552978515625, 0.95751953125
617, 123499565, -27.06376075744629, -3.249647855758667, 12.425926208496094, 21.166213989257812, 485.1324462890625, 117.43147277832031, 1.056884765625, -0.5732421875, 1.06494140625
618, 123516232, -24.473934173583984, -4.588839530944824, 20.639686584472656, 3.9605531692504883, 397.6471252441406, 131.60711669921875, 0.977294921875, -0.599609375, 1.149658203125
619, 123532899, -17.644607543945312, -0.43753907084465027, 20.456281661987305, -90.38143157958984, 253.49017333984375, 114.29943084716797, 0.9150390625, -0.635498046875, 1.20068359375
620, 123549566, -25.65233039855957, -5.761880397796631, 25.074472427368164, -174.63250732421875, -16.23322868347168, 57.448509216308594, 0.900146484375, -0.6806640625, 1.201904296875
621, 123566233, -13.851228713989258, -6.78587532043457, 16.83563804626465, -151.03553771972656, -240.5325469970703, 39.33597946166992, 0.943115234375, -0.718994140625, 1.15673828125
622, 123582900, -3.720874309539795, -5.326005458831787, 8.789011001586914, -97.1231918334961, -305.6802673339844, 46.999290466308594, 1.00146484375, -0.743408203125, 1.089599609375
623, 123599567, 0.2687337100505829, -4.131977081298828, 4.745907783508301, -58.835365295410156, -284.93609619140625, 49.28529357910156, 1.0546875, -0.759765625, 1.0234375
624, 123616234, -1.2719131708145142, -3.9018030166625977, 4.411168098449707, -44.33657455444336, -251.88011169433594, 34.15959167480469, 1.090576171875, -0.771484375, 0.958251953125
625, 123632901, -6.015004634857178, -4.182363033294678, 6.119388580322266, -45.24193572998047, -253.35598754882812, -7.152557373046875, 1.12744140625, -0.77587890625, 0.89404296875
626, 123649568, -7.978359222412109, -4.963553428649902, 6.542884826660156, -42.05302810668945, -293.12890625, -64.1685562133789, 1.162109375, -0.762451171875, 0.81884765625
627, 123666235, -7.796837329864502, -5.050129413604736, 5.7152581214904785, -16.108604431152344, -325.8029479980469, -109.4042739868164, 1.194091796875, -0.732421875, 0.734375
628, 123682902, -8.92692756652832, -3.5273752212524414, 5.719712734222412, 12.246879577636719, -340.32666015625, -139.4756317138672, 1.22265625, -0.699462890625, 0.650146484375
629, 123699569, -10.431785583496094, -1.3232247829437256, 5.793726921081543, 16.057506561279297, -356.5848693847656, -159.95343017578125, 1.24365234375, -0.66064453125, 0.54296875
630, 123716236, -11.372453689575195, -0.3561449944972992, 6.231924533843994, 1.2928143739700317, -364.4778137207031, -161.4660186767578, 1.240478515625, -0.612060546875, 0.432373046875
631, 123732903, -12.228428840637207, -0.10275717824697495, 6.7512712478637695, -16.63457489013672, -361.9074401855469, -152.7243194580078, 1.2197265625, -0.567138671875, 0.342529296875
632, 123749570, -13.132972717285156, 0.34639790654182434, 7.464032173156738, -38.60302734375, -350.4039306640625, -139.00296020507812, 1.1943359375, -0.531982421875, 0.2587890625
633, 123766237, -15.321335792541504, 1.2587683200836182, 9.360374450683594, -67.68286895751953, -324.9791564941406, -123.20403289794922, 1.168701171875, -0.5, 0.1904296875
634, 123782904, -22.26508903503418, 2.2173919677734375, 12.488527297973633, -110.2446060180664, -317.9023132324219, -109.35120391845703, 1.14599609375, -0.46630859375, 0.123291015625
635, 123799571, -28.141395568847656, 2.525204658508301, 11.126214027404785, -156.4725799560547, -342.35113525390625, -112.66915130615234, 1.113525390625, -0.421875, 0.047607421875
636, 123816238, -32.48038101196289, 1.8938475847244263, 5.281479358673096, -172.4764404296875, -366.7753601074219, -122.00047302246094, 1.06591796875, -0.37109375, -0.0283203125
637, 123832905, -31.605484008789062, 2.911835193634033, -2.6417527198791504, -152.818603515625, -357.7424011230469, -127.27902221679688, 1.00341796875, -0.32373046875, -0.094482421875
638, 123849572, -27.586517333984375, 7.761345386505127, -7.851266860961914, -118.21676635742188, -282.31585693359375, -133.04713439941406, 0.94580078125, -0.2783203125, -0.146728515625
639, 123866239, -29.794822692871094, 8.481369972229004, -15.888715744018555, -82.03516387939453, -225.45913696289062, -103.15591430664062, 0.898193359375, -0.247802734375, -0.178466796875
640, 123882906, -26.413253784179688, 9.866241455078125, -23.866392135620117, -23.694732666015625, -150.392578125, -54.03078842163086, 0.862060546875, -0.232177734375, -0.20458984375
641, 123899573, -25.19829750061035, 9.453869819641113, -26.789270401000977, 18.602293014526367, -23.32891845703125, -38.04976272583008, 0.84423828125, -0.22998046875, -0.213134765625
642, 123916240, -19.509302139282227, 3.0255236625671387, -13.285239219665527, 149.3494873046875, 94.00447845458984, -18.29187774658203, 0.8583984375, -0.255126953125, -0.205322265625
643, 123932907, 4.456610679626465, -2.5099265575408936, 23.659408569335938, 134.5825958251953, 156.26890563964844, -26.112058639526367, 0.880859375, -0.279541015625, -0.185302734375
644, 123949574, 4.58607292175293, 10.137210845947266, 9.625448226928711, 87.85967254638672, 305.681396484375, 80.64224243164062, 0.929931640625, -0.31201171875, -0.13232421875
645, 123966241, -25.64107894897461, 12.995250701904297, 10.667760848999023, 34.576087951660156, 268.71124267578125, 47.774810791015625, 0.97900390625, -0.33740234375, -0.07421875
646, 123982908, -13.65926456451416, 0.5310268402099609, 11.352368354797363, -10.106217384338379, 210.22438049316406, 44.3662109375, 1.013427734375, -0.343994140625, -0.027587890625
647, 123999575, -13.937020301818848, -7.091915130615234, 5.194268703460693, 4.975971698760986, 176.70523071289062, 35.26688003540039, 1.040771484375, -0.35400390625, 0.009521484375
648, 124016242, -10.824960708618164, 0.8486729264259338, 8.293773651123047, 10.401987075805664, 148.91632080078125, 29.61107063293457, 1.060302734375, -0.359130859375, 0.04296875
649, 124032909, -18.939697265625, -6.5119476318359375, 8.756685256958008, 38.61017990112305, 84.49190521240234, 27.76331329345703, 1.075439453125, -0.3681640625, 0.06640625
650, 124049576, -9.521977424621582, 2.4915616512298584, 9.12863540649414, 34.248016357421875, 29.122943878173828, 25.49234962463379, 1.08154296875, -0.376953125, 0.0703125
651, 124066243, -8.018539428710938, -2.6244759559631348, 7.391831398010254, 26.89744758605957, 7.5317463874816895, 18.81353187561035, 1.082275390625, -0.38623046875, 0.0673828125
652, 124082910, -8.038661003112793, -0.6462814211845398, 7.672057628631592, 25.07048797607422, -7.325272083282471, 19.248891830444336, 1.0830078125, -0.391845703125, 0.064208984375
653, 124099577, -7.153153419494629, -0.26199784874916077, 7.782698631286621, 18.580171585083008, -11.98768138885498, 14.721529960632324, 1.08251953125, -0.3994140625, 0.060791015625
654, 124116244, -6.763235569000244, -0.38561829924583435, 7.663390636444092, 12.0181884765625, -8.596820831298828, 9.223800659179688, 1.08203125, -0.404541015625, 0.059326171875
655, 124132911, -6.577638149261475, -0.9862406849861145, 7.443690776824951, 7.266062259674072, -4.331774711608887, 5.767911434173584, 1.0791015625, -0.40576171875, 0.0576171875
656, 124149578, -6.625454902648926, -1.0244745016098022, 7.212353706359863, 6.418448448181152, -3.882962942123413, 4.9481377601623535, 1.0771484375, -0.4091796875, 0.05810546875
