sep=,
DeviceTag:,B,,,,,,,,,,,,,,,,,
FirmwareVersion:,2.2.1,,,,,,,,,,,,,,,,,
AppVersion:,2023.6.1,,,,,,,,,,,,,,,,,
SyncStatus:,Synced,,,,,,,,,,,,,,,,,
OutputRate:,60Hz,,,,,,,,,,,,,,,,,
FilterProfile:,General,,,,,,,,,,,,,,,,,
Measurement Mode:,Inertial Mode - Rate quantities (with mag),,,,,,,,,,,,,,,,,
StartTime:,2023-12-07 13:39:29.529 +0200,,,,,,,,,,,,,,,,,
 2023,,,,,,,,,,,,,,,,,,,

PacketCounter,SampleTimeFine,Acc_X,Acc_Y,Acc_Z,Gyr_X,Gyr_Y,Gyr_Z,Mag_X,Mag_Y,Mag_Z
1, 113216026, -6.371889114379883, 1.8178468942642212, 7.0529985427856445, -0.0927179679274559, -0.907329797744751, -1.3700106143951416, 0.61328125, 0.185791015625, -0.69482421875
2, 113232693, -6.36159610748291, 1.8217895030975342, 7.063788890838623, -0.24679116904735565, -0.9387950897216797, -1.3474458456039429, 0.6123046875, 0.185791015625, -0.69384765625
3, 113249360, -6.373154640197754, 1.8014442920684814, 7.058820724487305, -0.2075653225183487, -0.7723894119262695, -1.3641453981399536, 0.61279296875, 0.185302734375, -0.6923828125
4, 113266027, -6.369319438934326, 1.8090237379074097, 7.055540084838867, -0.03885446488857269, -0.6915044784545898, -1.3075923919677734, 0.61279296875, 0.185302734375, -0.692138671875
5, 113282694, -6.379064559936523, 1.8244036436080933, 7.023613929748535, -0.18551279604434967, -0.650063157081604, -1.2949141263961792, 0.611328125, 0.1865234375, -0.6943359375
6, 113299361, -6.377116680145264, 1.82646906375885, 7.048205375671387, -0.2042997181415558, -0.8952534794807434, -1.3616863489151, 0.61376953125, 0.1865234375, -0.693359375
7, 113316028, -6.386475563049316, 1.8107479810714722, 7.043314456939697, -0.20218665897846222, -1.0345097780227661, -1.3528244495391846, 0.61279296875, 0.18603515625, -0.6923828125
8, 113332695, -6.364934921264648, 1.8104305267333984, 7.059645652770996, -0.16101422905921936, -1.051285982131958, -1.2382714748382568, 0.611328125, 0.18701171875, -0.693359375
9, 113349362, -6.36533784866333, 1.8083078861236572, 7.048298358917236, -0.16109107434749603, -0.995655357837677, -1.3084759712219238, 0.61279296875, 0.18603515625, -0.69384765625
10, 113366029, -6.366467475891113, 1.8106441497802734, 7.055687427520752, -0.18284904956817627, -0.9750627875328064, -1.2513339519500732, 0.61279296875, 0.184814453125, -0.693359375
11, 113382696, -6.358044624328613, 1.825987458229065, 7.064062118530273, -0.13118824362754822, -1.0281578302383423, -1.2281416654586792, 0.61328125, 0.18603515625, -0.6943359375
12, 113399363, -6.361268997192383, 1.8079750537872314, 7.042750358581543, -0.18465477228164673, -0.9923896789550781, -1.2432661056518555, 0.61279296875, 0.185791015625, -0.69287109375
13, 113416030, -6.340394973754883, 1.8192799091339111, 7.063638687133789, -0.1032191812992096, -0.9157437682151794, -1.3505191802978516, 0.6142578125, 0.18701171875, -0.6943359375
14, 113432697, -6.36134672164917, 1.828130841255188, 7.047280311584473, -0.12116088718175888, -0.7486592531204224, -1.2912898063659668, 0.6142578125, 0.18603515625, -0.69287109375
15, 113449364, -6.3703789710998535, 1.8162943124771118, 7.037195682525635, -0.10129822045564651, -0.7417949438095093, -1.3040194511413574, 0.611328125, 0.184814453125, -0.69482421875
16, 113466031, -6.372304439544678, 1.8294936418533325, 7.043617248535156, -0.1362723559141159, -0.8813841342926025, -1.2863209247589111, 0.6123046875, 0.184814453125, -0.693359375
17, 113482698, -6.373218059539795, 1.8319982290267944, 7.047310829162598, -0.18524384498596191, -0.9040257930755615, -1.3353564739227295, 0.6123046875, 0.184814453125, -0.69580078125
18, 113499365, -6.366878032684326, 1.8218556642532349, 7.061243057250977, -0.23078326880931854, -1.1364867687225342, -1.3712016344070435, 0.61181640625, 0.184814453125, -0.69482421875
19, 113516032, -6.365185260772705, 1.8208773136138916, 7.059754371643066, -0.16928714513778687, -0.9495779275894165, -1.3337044715881348, 0.61328125, 0.183837890625, -0.6943359375
20, 113532699, -6.356683731079102, 1.8102211952209473, 7.0701117515563965, -0.10028652101755142, -0.9603994488716125, -1.2702618837356567, 0.6123046875, 0.18603515625, -0.69482421875
21, 113549366, -6.360795974731445, 1.8067407608032227, 7.053363800048828, -0.13292992115020752, -0.9851796627044678, -1.2944786548614502, 0.611328125, 0.1865234375, -0.6923828125
22, 113566033, -6.3593525886535645, 1.8097171783447266, 7.079317092895508, -0.1927867829799652, -0.8492275476455688, -1.3361505270004272, 0.61181640625, 0.186279296875, -0.69384765625
23, 113582700, -6.360910415649414, 1.819671392440796, 7.036040782928467, -0.15353533625602722, -0.907560408115387, -1.3235106468200684, 0.611328125, 0.185302734375, -0.69482421875
24, 113599367, -6.362918376922607, 1.81414794921875, 7.062923908233643, -0.052198681980371475, -0.7285916805267334, -1.289381742477417, 0.61376953125, 0.185791015625, -0.69580078125
25, 113616034, -6.357407093048096, 1.8294695615768433, 7.055420398712158, -0.18537192046642303, -0.6869583129882812, -1.3132144212722778, 0.615234375, 0.185302734375, -0.69580078125
26, 113632701, -6.363434314727783, 1.815197229385376, 7.063541889190674, -0.2131744921207428, -0.7287068367004395, -1.4156138896942139, 0.611328125, 0.185302734375, -0.69482421875
27, 113649368, -6.366020679473877, 1.8147841691970825, 7.064736366271973, -0.25727954506874084, -0.8404167294502258, -1.3923319578170776, 0.61376953125, 0.1865234375, -0.693359375
28, 113666035, -6.362128734588623, 1.8293688297271729, 7.077269554138184, -0.1726808249950409, -0.8245880007743835, -1.408698320388794, 0.6123046875, 0.184814453125, -0.69384765625
29, 113682702, -6.372395038604736, 1.8096938133239746, 7.084319114685059, -0.334053635597229, -0.8744816780090332, -1.3598166704177856, 0.61181640625, 0.184326171875, -0.69580078125
30, 113699369, -6.3607869148254395, 1.80878746509552, 7.0399932861328125, -0.2726344168186188, -0.9371175169944763, -1.4287277460098267, 0.61328125, 0.1865234375, -0.6943359375
31, 113716036, -6.365550994873047, 1.8135489225387573, 7.074244976043701, -0.19885700941085815, -0.8964957594871521, -1.313163161277771, 0.61181640625, 0.185791015625, -0.6943359375
32, 113732703, -6.354036331176758, 1.8184431791305542, 7.051334381103516, -0.2187836915254593, -0.8802189230918884, -1.4385629892349243, 0.6123046875, 0.18603515625, -0.691650390625
33, 113749370, -6.363719463348389, 1.8336362838745117, 7.0611701011657715, -0.2721477448940277, -0.7352510094642639, -1.3637738227844238, 0.61279296875, 0.185302734375, -0.6943359375
34, 113766037, -6.369383811950684, 1.8268803358078003, 7.062054634094238, -0.28757941722869873, -0.6273446679115295, -1.3560515642166138, 0.61181640625, 0.184814453125, -0.69580078125
35, 113782704, -6.354426383972168, 1.8255356550216675, 7.049900054931641, -0.24063129723072052, -0.7587506175041199, -1.4541609287261963, 0.61376953125, 0.18603515625, -0.69384765625
36, 113799371, -6.3560357093811035, 1.8082926273345947, 7.05311393737793, -0.3099648654460907, -0.9110949635505676, -1.4256027936935425, 0.6142578125, 0.18798828125, -0.69482421875
37, 113816038, -6.369957447052002, 1.8203966617584229, 7.037613868713379, -0.28851425647735596, -0.9200594425201416, -1.448257327079773, 0.6123046875, 0.184326171875, -0.691162109375
38, 113832705, -6.360142230987549, 1.8032339811325073, 7.057279109954834, -0.22340679168701172, -0.8476139307022095, -1.3411706686019897, 0.6142578125, 0.185302734375, -0.6943359375
39, 113849372, -6.371527671813965, 1.8228681087493896, 7.059999942779541, -0.23526544868946075, -0.8464868664741516, -1.2578012943267822, 0.614501953125, 0.184326171875, -0.6943359375
40, 113866039, -6.360314846038818, 1.8099985122680664, 7.06453800201416, -0.1965390294790268, -0.8584863543510437, -1.3066061735153198, 0.611328125, 0.18798828125, -0.69482421875
41, 113882706, -6.3603715896606445, 1.807018518447876, 7.051915168762207, -0.24330782890319824, -0.8234354853630066, -1.297219157218933, 0.61083984375, 0.1865234375, -0.69384765625
42, 113899373, -6.350277423858643, 1.8141671419143677, 7.051631450653076, -0.2172469049692154, -0.75819993019104, -1.2961819171905518, 0.61181640625, 0.185791015625, -0.6943359375
43, 113916040, -6.35332727432251, 1.8279097080230713, 7.054932594299316, -0.26842111349105835, -0.7722613215446472, -1.3917044401168823, 0.6142578125, 0.185546875, -0.69287109375
44, 113932707, -6.364597320556641, 1.825652003288269, 7.048919200897217, -0.24787971377372742, -0.7980788946151733, -1.4140002727508545, 0.61328125, 0.18603515625, -0.69287109375
45, 113949374, -6.360847473144531, 1.8152891397476196, 7.04374361038208, -0.21197070181369781, -0.8770556449890137, -1.366706371307373, 0.6142578125, 0.185546875, -0.69384765625
46, 113966041, -6.3751630783081055, 1.8147187232971191, 7.0354743003845215, -0.19915154576301575, -0.9198032021522522, -1.3807806968688965, 0.61328125, 0.185791015625, -0.6953125
47, 113982708, -6.372679710388184, 1.8114620447158813, 7.043384075164795, -0.1292288899421692, -0.9453519582748413, -1.2983205318450928, 0.6123046875, 0.18603515625, -0.6943359375
48, 113999375, -6.360816478729248, 1.8223001956939697, 7.038455009460449, -0.18193984031677246, -0.9136946797370911, -1.3531317710876465, 0.61181640625, 0.184814453125, -0.6943359375
49, 114016042, -6.355276584625244, 1.8182636499404907, 7.058772563934326, -0.17556223273277283, -0.973231315612793, -1.2728102207183838, 0.61181640625, 0.1865234375, -0.69580078125
50, 114032709, -6.366220951080322, 1.8230277299880981, 7.0608906745910645, -0.20894840359687805, -0.873226523399353, -1.4061627388000488, 0.6123046875, 0.18701171875, -0.6943359375
51, 114049376, -6.362914562225342, 1.8125479221343994, 7.066127777099609, -0.2718147933483124, -0.8326047658920288, -1.3813824653625488, 0.61328125, 0.18603515625, -0.69482421875
52, 114066043, -6.371866703033447, 1.8018271923065186, 7.087443828582764, -0.17835403978824615, -0.6954488754272461, -1.3666168451309204, 0.611328125, 0.185302734375, -0.6943359375
53, 114082710, -6.363062381744385, 1.8134077787399292, 7.043089389801025, -0.03411611542105675, -0.7708013653755188, -1.3334227800369263, 0.61181640625, 0.186279296875, -0.69482421875
54, 114099377, -6.365736961364746, 1.8154326677322388, 7.0721435546875, -0.08215273171663284, -0.6708605885505676, -1.2851940393447876, 0.61279296875, 0.185791015625, -0.693359375
55, 114116044, -6.3718156814575195, 1.8054351806640625, 7.065806865692139, -0.07396948337554932, -0.7279002070426941, -1.2746800184249878, 0.61279296875, 0.18798828125, -0.6953125
56, 114132711, -6.367303848266602, 1.8170610666275024, 7.061666965484619, -0.15083317458629608, -0.8464484214782715, -1.1944482326507568, 0.61376953125, 0.18603515625, -0.69580078125
57, 114149378, -6.35641622543335, 1.8241153955459595, 7.0465288162231445, -0.05291583389043808, -0.8886582255363464, -1.2394113540649414, 0.61279296875, 0.18603515625, -0.6953125
58, 114166045, -6.365279674530029, 1.8215134143829346, 7.042945861816406, -0.11415579169988632, -1.0326272249221802, -1.254407525062561, 0.61328125, 0.1865234375, -0.693359375
59, 114182712, -6.366857051849365, 1.826151728630066, 7.073886394500732, -0.13613149523735046, -0.9738717675209045, -1.3401844501495361, 0.6142578125, 0.1865234375, -0.69580078125
60, 114199379, -6.3567352294921875, 1.8186789751052856, 7.058659076690674, -0.18908575177192688, -0.995283842086792, -1.2106866836547852, 0.61181640625, 0.1865234375, -0.69580078125
61, 114216046, -6.353768348693848, 1.8313133716583252, 7.065457820892334, -0.19586032629013062, -1.017093300819397, -1.339505910873413, 0.61279296875, 0.18603515625, -0.6953125
62, 114232713, -6.355534076690674, 1.8024406433105469, 7.074190139770508, -0.12865257263183594, -0.8507130742073059, -1.2911232709884644, 0.61474609375, 0.18603515625, -0.692626953125
63, 114249380, -6.36570405960083, 1.8016210794448853, 7.066999435424805, -0.2138916403055191, -0.8565013408660889, -1.2834651470184326, 0.611328125, 0.185791015625, -0.69677734375
64, 114266047, -6.364943027496338, 1.8197040557861328, 7.066652774810791, -0.15102528035640717, -0.8691797256469727, -1.361711859703064, 0.61181640625, 0.1865234375, -0.69580078125
65, 114282714, -6.353221416473389, 1.8271458148956299, 7.0579352378845215, -0.2328834980726242, -1.018245816230774, -1.3996061086654663, 0.61181640625, 0.186279296875, -0.6943359375
66, 114299381, -6.356733322143555, 1.8167506456375122, 7.052524089813232, -0.30472710728645325, -1.0553330183029175, -1.3529397249221802, 0.61181640625, 0.184326171875, -0.69287109375
67, 114316048, -6.3532915115356445, 1.8167608976364136, 7.072251796722412, -0.30278050899505615, -1.0723267793655396, -1.2899580001831055, 0.61083984375, 0.184814453125, -0.69287109375
68, 114332715, -6.374190807342529, 1.8160985708236694, 7.06500244140625, -0.20774462819099426, -1.091293215751648, -1.2923271656036377, 0.611328125, 0.1875, -0.6953125
69, 114349382, -6.352058410644531, 1.8196393251419067, 7.076114177703857, -0.20364657044410706, -1.0120986700057983, -1.3881057500839233, 0.61279296875, 0.184326171875, -0.693359375
70, 114366049, -6.35942268371582, 1.8194756507873535, 7.039896011352539, -0.25628069043159485, -0.9111974239349365, -1.3162751197814941, 0.61279296875, 0.185791015625, -0.69482421875
71, 114382716, -6.354571342468262, 1.8257017135620117, 7.0795207023620605, -0.29062730073928833, -0.9270133376121521, -1.3978514671325684, 0.6123046875, 0.1865234375, -0.693359375
72, 114399383, -6.359218597412109, 1.8266491889953613, 7.070443630218506, -0.2587907314300537, -0.8580126166343689, -1.396660566329956, 0.614990234375, 0.184326171875, -0.6953125
73, 114416050, -6.360806465148926, 1.8238133192062378, 7.065140247344971, -0.3222462236881256, -0.9317388534545898, -1.3785653114318848, 0.611328125, 0.184814453125, -0.69482421875
74, 114432717, -6.35822057723999, 1.8176637887954712, 7.050045490264893, -0.2761177122592926, -0.9880099296569824, -1.4879058599472046, 0.609375, 0.185302734375, -0.69482421875
75, 114449384, -6.353519916534424, 1.8023290634155273, 7.080003261566162, -0.3505482077598572, -1.0636825561523438, -1.4655842781066895, 0.61328125, 0.185302734375, -0.6943359375
76, 114466051, -6.354300022125244, 1.828381896018982, 7.0470805168151855, -0.6673388481140137, -1.258851408958435, -1.6971614360809326, 0.61181640625, 0.184326171875, -0.6953125
77, 114482718, -6.358691215515137, 1.811230182647705, 7.061620712280273, -0.4991914927959442, -1.1807453632354736, -1.5277974605560303, 0.61279296875, 0.18701171875, -0.69287109375
78, 114499385, -6.33718729019165, 1.823819875717163, 7.064072608947754, -0.4075876772403717, -1.1571049690246582, -1.574399709701538, 0.61279296875, 0.18603515625, -0.69482421875
79, 114516052, -6.333895683288574, 1.79872727394104, 7.060540676116943, -0.2280939370393753, -1.031129002571106, -1.3749794960021973, 0.61083984375, 0.18701171875, -0.69580078125
80, 114532719, -6.341151237487793, 1.8112457990646362, 7.078060150146484, -0.19040483236312866, -0.7953255772590637, -1.4299826622009277, 0.61279296875, 0.18603515625, -0.69384765625
81, 114549386, -6.347329616546631, 1.7999179363250732, 7.064505577087402, -0.1406649500131607, -0.7495172619819641, -1.366450309753418, 0.61328125, 0.1865234375, -0.69677734375
82, 114566053, -6.35725212097168, 1.8118757009506226, 7.071069717407227, -0.05390192195773125, -0.7638731598854065, -1.3086681365966797, 0.61181640625, 0.1865234375, -0.6962890625
83, 114582720, -6.348383903503418, 1.8024811744689941, 7.08021879196167, -0.16780158877372742, -0.84507817029953, -1.3173763751983643, 0.6123046875, 0.185791015625, -0.6953125
84, 114599387, -6.363890647888184, 1.7997159957885742, 7.050480842590332, -0.14704251289367676, -0.7752068638801575, -1.3272757530212402, 0.61083984375, 0.1875, -0.6953125
85, 114616054, -6.350295066833496, 1.8066240549087524, 7.0852460861206055, -0.10926377028226852, -0.7744640111923218, -1.3755685091018677, 0.611328125, 0.1875, -0.69287109375
86, 114632721, -6.34977388381958, 1.81186044216156, 7.075137138366699, -0.1976531744003296, -0.796951949596405, -1.3631460666656494, 0.611328125, 0.185302734375, -0.6923828125
87, 114649388, -6.355887413024902, 1.8022267818450928, 7.045409202575684, -0.15531542897224426, -0.8318877220153809, -1.3493666648864746, 0.60986328125, 0.185302734375, -0.6953125
88, 114666055, -6.348788738250732, 1.8011528253555298, 7.047390460968018, -0.049240414053201675, -0.8024330735206604, -1.2856166362762451, 0.61083984375, 0.1865234375, -0.6943359375
89, 114682722, -6.364317417144775, 1.7919819355010986, 7.083548545837402, -0.044271551072597504, -0.7922776937484741, -1.2231472730636597, 0.61083984375, 0.185791015625, -0.6953125
90, 114699389, -6.366672515869141, 1.8165899515151978, 7.052879810333252, -0.07063982635736465, -0.7062830328941345, -1.2119415998458862, 0.609375, 0.186279296875, -0.69677734375
91, 114716056, -6.362083435058594, 1.8252267837524414, 7.054684162139893, -0.0672205314040184, -0.7905231714248657, -1.2446619272232056, 0.61328125, 0.18701171875, -0.6953125
92, 114732723, -6.3578410148620605, 1.8159269094467163, 7.067596912384033, -0.04730665683746338, -0.7217530608177185, -1.174508810043335, 0.61083984375, 0.185791015625, -0.69580078125
93, 114749390, -6.329164981842041, 1.8005706071853638, 7.09945011138916, 0.08924105763435364, -0.5088603496551514, -1.2064989805221558, 0.61328125, 0.18701171875, -0.6943359375
94, 114766057, -6.364542484283447, 1.8441524505615234, 7.0519022941589355, 0.11564133316278458, -0.38960757851600647, -1.1655700206756592, 0.61279296875, 0.185791015625, -0.69384765625
95, 114782724, -6.361324310302734, 1.8081597089767456, 7.052479267120361, 0.07948260754346848, -0.5371111035346985, -1.2249016761779785, 0.61279296875, 0.18603515625, -0.69580078125
96, 114799391, -6.353065490722656, 1.8207111358642578, 7.0486626625061035, -0.05969039723277092, -0.6352334022521973, -1.2441112995147705, 0.61083984375, 0.184326171875, -0.6953125
97, 114816058, -6.354577541351318, 1.8143556118011475, 7.040675640106201, -0.22658272087574005, -0.7517711520195007, -1.327352523803711, 0.611328125, 0.185791015625, -0.693359375
98, 114832725, -6.365223407745361, 1.809571385383606, 7.054077625274658, -0.15111494064331055, -0.7958762049674988, -1.2545740604400635, 0.61376953125, 0.1865234375, -0.69580078125
99, 114849392, -6.355357646942139, 1.824313998222351, 7.063747882843018, -0.1304710954427719, -0.6863818764686584, -1.29807710647583, 0.611328125, 0.186279296875, -0.6943359375
100, 114866059, -6.353897571563721, 1.8208794593811035, 7.063795566558838, -0.04525764286518097, -0.7107524275779724, -1.2970912456512451, 0.609375, 0.184326171875, -0.6962890625
101, 114882726, -6.364752769470215, 1.8236193656921387, 7.041345119476318, -0.12561748921871185, -0.7288990020751953, -1.3474842309951782, 0.6123046875, 0.185302734375, -0.69482421875
102, 114899393, -6.3584699630737305, 1.8327090740203857, 7.044044017791748, -0.10681776702404022, -0.6414700150489807, -1.3633127212524414, 0.61279296875, 0.185302734375, -0.69384765625
103, 114916060, -6.361508846282959, 1.8173891305923462, 7.075612545013428, -0.011013461276888847, -0.6851653456687927, -1.3047749996185303, 0.61181640625, 0.184814453125, -0.6953125
104, 114932727, -6.350004196166992, 1.8158187866210938, 7.06300687789917, -0.06424945592880249, -0.6267555356025696, -1.2597604990005493, 0.6103515625, 0.185302734375, -0.6953125
105, 114949394, -6.367920875549316, 1.8240879774093628, 7.071346759796143, -0.12947219610214233, -0.6747922301292419, -1.3887590169906616, 0.61279296875, 0.18701171875, -0.6943359375
106, 114966061, -6.3564653396606445, 1.8307642936706543, 7.0593791007995605, -0.17129775881767273, -0.7037089467048645, -1.4761496782302856, 0.61279296875, 0.18603515625, -0.69384765625
107, 114982728, -6.365597248077393, 1.810417652130127, 7.056110382080078, -0.17006830871105194, -0.7589042782783508, -1.3448970317840576, 0.61376953125, 0.185302734375, -0.697265625
108, 114999395, -6.369161128997803, 1.8167964220046997, 7.042562484741211, -0.22332990169525146, -0.7496068477630615, -1.3546940088272095, 0.6123046875, 0.18603515625, -0.69482421875
109, 115016062, -6.36639928817749, 1.802649974822998, 7.041457653045654, -0.2027885466814041, -0.757559597492218, -1.3850963115692139, 0.61279296875, 0.185791015625, -0.6943359375
110, 115032729, -6.367788314819336, 1.8183014392852783, 7.050331115722656, -0.19806300103664398, -0.7961578965187073, -1.4648926258087158, 0.611328125, 0.183837890625, -0.6962890625
111, 115049396, -6.3690690994262695, 1.793999195098877, 7.05880880355835, -0.12887029349803925, -0.8607788681983948, -1.3553982973098755, 0.6123046875, 0.185791015625, -0.69482421875
112, 115066063, -6.361749649047852, 1.8093299865722656, 7.042365550994873, -0.07978355139493942, -0.8819221258163452, -1.24454665184021, 0.61181640625, 0.185302734375, -0.6943359375
113, 115082730, -6.3638153076171875, 1.8284810781478882, 7.053262233734131, -0.1612575501203537, -0.9763944149017334, -1.126651406288147, 0.61181640625, 0.1865234375, -0.6953125
114, 115099397, -6.364522457122803, 1.8306964635849, 7.037416934967041, -0.13825733959674835, -1.026953935623169, -1.2842464447021484, 0.6123046875, 0.185791015625, -0.69580078125
115, 115116064, -6.364357948303223, 1.7989996671676636, 7.061594486236572, -0.17262962460517883, -1.0785892009735107, -1.2539082765579224, 0.61181640625, 0.18701171875, -0.6953125
116, 115132731, -6.372753143310547, 1.8153870105743408, 7.052830219268799, -0.16719971597194672, -0.9854359030723572, -1.2778817415237427, 0.611328125, 0.185302734375, -0.6943359375
117, 115149398, -6.364229202270508, 1.8374732732772827, 7.064163684844971, -0.18220874667167664, -1.0492498874664307, -1.2258751392364502, 0.61279296875, 0.184814453125, -0.69384765625
118, 115166065, -6.358127593994141, 1.8343380689620972, 7.054864406585693, -0.2568570077419281, -1.12925124168396, -1.3485854864120483, 0.61279296875, 0.1875, -0.69580078125
119, 115182732, -6.348785400390625, 1.8239957094192505, 7.061863422393799, -0.37307459115982056, -1.0761687755584717, -1.3815873861312866, 0.60986328125, 0.185791015625, -0.69482421875
120, 115199399, -6.353858947753906, 1.8216403722763062, 7.062750816345215, -0.423800528049469, -1.0251482725143433, -1.486804485321045, 0.61279296875, 0.185791015625, -0.69677734375
121, 115216066, -6.36224889755249, 1.818827509880066, 7.0754828453063965, -0.28677260875701904, -0.9103906750679016, -1.5523858070373535, 0.61328125, 0.185791015625, -0.6953125
122, 115232733, -6.357374668121338, 1.809971570968628, 7.064426898956299, -0.3116553723812103, -0.7715185880661011, -1.5508619546890259, 0.61279296875, 0.18603515625, -0.6953125
123, 115249400, -6.341578483581543, 1.812698483467102, 7.068926811218262, -0.33678138256073, -0.7471737265586853, -1.5793814659118652, 0.6142578125, 0.184814453125, -0.69482421875
124, 115266067, -6.350111484527588, 1.8149827718734741, 7.080622673034668, -0.29676157236099243, -0.7593910098075867, -1.5560868978500366, 0.61181640625, 0.185791015625, -0.6953125
125, 115282734, -6.356780052185059, 1.8106087446212769, 7.076228618621826, -0.21951362490653992, -0.8296593427658081, -1.4065214395523071, 0.61181640625, 0.1865234375, -0.69384765625
126, 115299401, -6.354354381561279, 1.8065797090530396, 7.051359176635742, -0.2251996397972107, -0.8187611699104309, -1.3369572162628174, 0.6123046875, 0.185791015625, -0.6953125
127, 115316068, -6.371609210968018, 1.8277145624160767, 7.045855522155762, -0.22575032711029053, -0.7751299142837524, -1.3556289672851562, 0.61328125, 0.1884765625, -0.6953125
128, 115332735, -6.367164134979248, 1.8194751739501953, 7.058427333831787, -0.31266701221466064, -0.9537529945373535, -1.3357150554656982, 0.61376953125, 0.18701171875, -0.69677734375
129, 115349402, -6.352766990661621, 1.8122576475143433, 7.076780796051025, -0.27812832593917847, -1.0810225009918213, -1.4205445051193237, 0.61376953125, 0.185791015625, -0.69580078125
130, 115366069, -6.343389511108398, 1.8024718761444092, 7.075790882110596, -0.40895798802375793, -1.0167088508605957, -1.4375767707824707, 0.615234375, 0.185546875, -0.69677734375
131, 115382736, -6.35162878036499, 1.802757978439331, 7.072862148284912, -0.30014240741729736, -0.774899423122406, -1.5033886432647705, 0.61181640625, 0.185791015625, -0.69580078125
132, 115399403, -6.349632263183594, 1.791483998298645, 7.071449279785156, -0.3065072000026703, -0.8068768978118896, -1.4215688705444336, 0.61376953125, 0.1865234375, -0.69384765625
133, 115416070, -6.36748743057251, 1.817552089691162, 7.043665885925293, -0.24253946542739868, -0.7719924449920654, -1.4231568574905396, 0.61376953125, 0.185302734375, -0.692138671875
134, 115432737, -6.352485179901123, 1.8054001331329346, 7.069718360900879, -0.33255526423454285, -0.8052505254745483, -1.420172929763794, 0.61279296875, 0.18603515625, -0.69482421875
135, 115449404, -6.347484588623047, 1.8069745302200317, 7.0699028968811035, -0.33025017380714417, -0.9631527066230774, -1.4881235361099243, 0.61279296875, 0.185791015625, -0.69580078125
136, 115466071, -6.342431545257568, 1.813581943511963, 7.040048599243164, -0.4491186738014221, -0.8860840797424316, -1.6014467477798462, 0.6142578125, 0.18701171875, -0.6953125
137, 115482738, -6.34079647064209, 1.8099746704101562, 7.061870574951172, -0.33387431502342224, -0.9611036777496338, -1.428420066833496, 0.611328125, 0.186279296875, -0.697265625
138, 115499405, -6.35122013092041, 1.797668695449829, 7.043516635894775, -0.31745660305023193, -0.9940032958984375, -1.385250210762024, 0.6103515625, 0.186279296875, -0.693359375
139, 115516072, -6.352667808532715, 1.7545655965805054, 7.084312438964844, -0.194925457239151, -0.9194574356079102, -1.2942224740982056, 0.61279296875, 0.18701171875, -0.69580078125
140, 115532739, -6.359528064727783, 1.7803739309310913, 7.063074588775635, 0.2672044634819031, -0.6863434910774231, -0.7663959264755249, 0.61181640625, 0.185791015625, -0.6953125
141, 115549406, -6.366724491119385, 1.8081341981887817, 7.056030750274658, 0.6595077514648438, -0.41753819584846497, -0.5285820364952087, 0.61474609375, 0.18701171875, -0.69580078125
142, 115566073, -6.346739292144775, 1.7973041534423828, 7.0542073249816895, 0.6321150064468384, -0.6174069046974182, -0.33511653542518616, 0.61181640625, 0.1865234375, -0.6953125
143, 115582740, -6.359432697296143, 1.8656647205352783, 7.049386501312256, 0.33930420875549316, -0.8786051869392395, -0.6689909100532532, 0.61279296875, 0.18603515625, -0.6953125
144, 115599407, -6.345053672790527, 1.8278236389160156, 7.073098182678223, 0.31232765316963196, -0.9320333003997803, -0.6670443415641785, 0.61083984375, 0.185791015625, -0.697998046875
145, 115616074, -6.351441860198975, 1.8525019884109497, 7.0974531173706055, 0.08434902131557465, -0.9021177291870117, -0.9401140809059143, 0.611328125, 0.184326171875, -0.69580078125
146, 115632741, -6.347911357879639, 1.8561910390853882, 7.063093662261963, -0.22504597902297974, -0.9064333438873291, -1.3684993982315063, 0.61181640625, 0.184814453125, -0.69482421875
147, 115649408, -6.360160827636719, 1.851588487625122, 7.075766086578369, -0.5477275252342224, -0.9089178442955017, -1.68331778049469, 0.61376953125, 0.185791015625, -0.69580078125
148, 115666075, -6.340088844299316, 1.8226481676101685, 7.106761932373047, -0.6383325457572937, -0.9402166604995728, -1.8528612852096558, 0.611328125, 0.185302734375, -0.69384765625
149, 115682742, -6.360125541687012, 1.813914179801941, 7.073146820068359, -0.6168306469917297, -0.9246441125869751, -1.777700662612915, 0.61181640625, 0.185302734375, -0.6962890625
150, 115699409, -6.36316442489624, 1.8217644691467285, 7.080646514892578, -0.6179576516151428, -0.9015542268753052, -1.8200514316558838, 0.61376953125, 0.18603515625, -0.69580078125
151, 115716076, -6.369663715362549, 1.802127480506897, 7.077348709106445, -0.5922552347183228, -0.8724198341369629, -1.838338851928711, 0.61181640625, 0.1865234375, -0.69580078125
152, 115732743, -6.352903842926025, 1.7850773334503174, 7.06692361831665, -0.47455206513404846, -0.8353068828582764, -1.6958167552947998, 0.61328125, 0.185791015625, -0.69677734375
153, 115749410, -6.357290744781494, 1.7941226959228516, 7.0957183837890625, -0.35295578837394714, -0.5905263423919678, -1.4454528093338013, 0.615234375, 0.18603515625, -0.69580078125
154, 115766077, -6.355869770050049, 1.8279842138290405, 7.040709018707275, -0.19172388315200806, -0.6559156775474548, -1.429457664489746, 0.611328125, 0.186279296875, -0.693359375
155, 115782744, -6.367478847503662, 1.8269312381744385, 7.04329252243042, -0.3117194175720215, -0.8174805641174316, -1.5128782987594604, 0.609375, 0.186279296875, -0.69482421875
156, 115799411, -6.359279155731201, 1.7973960638046265, 7.084357261657715, -0.3656468689441681, -1.1387277841567993, -1.5118021965026855, 0.61279296875, 0.1875, -0.69482421875
157, 115816078, -6.353986740112305, 1.8051038980484009, 7.060424327850342, -0.3043428957462311, -1.3155065774917603, -1.4189691543579102, 0.611328125, 0.185791015625, -0.6943359375
158, 115832745, -6.361722469329834, 1.7925020456314087, 7.0679612159729, -0.26781922578811646, -1.2263745069503784, -1.4548653364181519, 0.61279296875, 0.1875, -0.693359375
159, 115849412, -6.3501763343811035, 1.7999285459518433, 7.082239151000977, -0.32952016592025757, -1.3131245374679565, -1.3449355363845825, 0.61181640625, 0.18798828125, -0.697265625
160, 115866079, -6.341770172119141, 1.8319509029388428, 7.057161808013916, -0.3258959650993347, -1.2217768430709839, -1.3578827381134033, 0.6123046875, 0.18701171875, -0.6962890625
161, 115882746, -6.330275058746338, 1.8422025442123413, 7.066263675689697, -0.4578782320022583, -1.1453614234924316, -1.5960423946380615, 0.61328125, 0.1865234375, -0.69677734375
162, 115899413, -6.317932605743408, 1.8452476263046265, 7.087541103363037, -0.6715778708457947, -0.9370151162147522, -1.8625428676605225, 0.6123046875, 0.1865234375, -0.6953125
163, 115916080, -6.3373613357543945, 1.8171132802963257, 7.094457626342773, -0.6501912474632263, -0.5204756855964661, -2.1474838256835938, 0.6123046875, 0.1875, -0.69580078125
164, 115932747, -6.340277194976807, 1.8161718845367432, 7.074697494506836, -0.721330463886261, -0.2659238278865814, -2.2118868827819824, 0.61181640625, 0.1875, -0.6943359375
165, 115949414, -6.330173492431641, 1.765392780303955, 7.114503860473633, -0.9266674518585205, 0.39003658294677734, -2.588611602783203, 0.61328125, 0.1875, -0.69677734375
166, 115966081, -6.359506130218506, 1.7814780473709106, 7.0516180992126465, -1.086061716079712, 0.44905462861061096, -2.701646566390991, 0.61279296875, 0.18798828125, -0.69482421875
167, 115982748, -6.347906112670898, 1.7861309051513672, 7.079522609710693, -1.3839631080627441, -0.039091385900974274, -2.789114236831665, 0.61083984375, 0.18798828125, -0.69482421875
168, 115999415, -6.350510120391846, 1.8130507469177246, 7.047589302062988, -1.7037181854248047, -0.4339815676212311, -3.0011038780212402, 0.61328125, 0.1875, -0.6943359375
169, 116016082, -6.362945079803467, 1.7520960569381714, 7.051533222198486, -1.1880450248718262, -0.352417916059494, -2.506484270095825, 0.611083984375, 0.1904296875, -0.6953125
170, 116032749, -6.374973297119141, 1.7299373149871826, 7.052944660186768, -0.4457889795303345, -0.12839645147323608, -1.8572405576705933, 0.615234375, 0.190673828125, -0.6953125
171, 116049416, -6.365930080413818, 1.7674659490585327, 7.041745185852051, -0.19689761102199554, -0.00407241890206933, -1.6831896305084229, 0.6142578125, 0.1884765625, -0.6943359375
172, 116066083, -6.3672776222229, 1.7789462804794312, 7.047988414764404, -0.21180421113967896, -0.37293368577957153, -1.5307430028915405, 0.611328125, 0.19091796875, -0.6923828125
173, 116082750, -6.346109867095947, 1.7621421813964844, 7.044680118560791, -0.19792212545871735, -0.7504135966300964, -1.4805676937103271, 0.61328125, 0.191162109375, -0.6943359375
174, 116099417, -6.349127292633057, 1.7699530124664307, 7.05513334274292, -0.4029390215873718, -0.9378474354743958, -1.3910130262374878, 0.610107421875, 0.189453125, -0.69482421875
175, 116116084, -6.346009731292725, 1.7723891735076904, 7.065141201019287, -0.18689586222171783, -0.6671596169471741, -1.231343388557434, 0.61279296875, 0.1884765625, -0.6953125
176, 116132751, -6.378839015960693, 1.7162879705429077, 7.041159152984619, 0.16739819943904877, -0.5686403512954712, -0.9609500169754028, 0.611328125, 0.19091796875, -0.693359375
177, 116149418, -6.358643531799316, 1.6981929540634155, 7.044698238372803, 0.2655140459537506, -1.1267666816711426, -0.45324233174324036, 0.61376953125, 0.1875, -0.697265625
178, 116166085, -6.359046936035156, 1.8159786462783813, 7.054057598114014, 0.3517456352710724, -1.4798634052276611, -0.11986744403839111, 0.61181640625, 0.18896484375, -0.6943359375
179, 116182752, -6.379220008850098, 1.8258233070373535, 7.033982276916504, -0.08270340412855148, -1.9372036457061768, -0.734072744846344, 0.610107421875, 0.18994140625, -0.69580078125
180, 116199419, -6.365981101989746, 1.7863454818725586, 7.034809112548828, -0.5535032153129578, -2.612917900085449, -1.0243029594421387, 0.61279296875, 0.18994140625, -0.69287109375
181, 116216086, -6.3403120040893555, 1.6313227415084839, 7.057102680206299, -0.5793976187705994, -3.409818410873413, -0.5563334226608276, 0.610595703125, 0.18994140625, -0.69677734375
182, 116232753, -6.280375957489014, 1.7274303436279297, 7.0423903465271, 1.0690035820007324, -2.201526641845703, 0.8193309903144836, 0.611083984375, 0.1884765625, -0.697509765625
183, 116249420, -6.328333377838135, 1.8152297735214233, 7.094539642333984, 2.1885602474212646, -0.42039400339126587, 1.5376518964767456, 0.611328125, 0.1884765625, -0.697509765625
184, 116266087, -6.3583664894104, 1.8692607879638672, 7.109071254730225, 1.714148998260498, -0.04646143317222595, 0.9555777311325073, 0.610595703125, 0.1875, -0.697509765625
185, 116282754, -6.3577561378479, 1.9154237508773804, 7.080522060394287, 0.8138755559921265, 0.019087862223386765, -0.14530085027217865, 0.61083984375, 0.185302734375, -0.6953125
186, 116299421, -6.348086833953857, 1.8738996982574463, 7.093079090118408, -0.27332592010498047, -0.0044438038021326065, -1.3133935928344727, 0.615234375, 0.18798828125, -0.6962890625
187, 116316088, -6.305316925048828, 1.8631478548049927, 7.120378017425537, -0.33817729353904724, 1.377278208732605, -2.1065423488616943, 0.60888671875, 0.185791015625, -0.6953125
188, 116332755, -6.196770191192627, 1.7884118556976318, 7.194582462310791, 1.1954408884048462, 6.340226173400879, -2.554572820663452, 0.61328125, 0.1875, -0.69384765625
189, 116349422, -6.005936145782471, 1.6605300903320312, 7.401935577392578, 5.109772205352783, 17.70458984375, -2.922041416168213, 0.614990234375, 0.18701171875, -0.691162109375
190, 116366089, -6.144118309020996, 0.4869016706943512, 7.920457363128662, 13.306467056274414, 35.71567153930664, 1.4324615001678467, 0.61865234375, 0.18505859375, -0.68359375
191, 116382756, -6.5612640380859375, -0.7988302111625671, 8.620415687561035, 20.502695083618164, 49.080955505371094, 10.183923721313477, 0.625244140625, 0.180419921875, -0.67431640625
192, 116399423, -6.245458602905273, 0.25181224942207336, 10.674798965454102, 28.788232803344727, 65.64290618896484, 43.75374984741211, 0.634033203125, 0.167236328125, -0.65576171875
193, 116416090, 3.539494514465332, -5.985782146453857, 19.291025161743164, -77.99908447265625, 81.19854736328125, 71.27750396728516, 0.641357421875, 0.15673828125, -0.63916015625
194, 116432757, 2.7634668350219727, -19.272850036621094, 27.746671676635742, -81.53602600097656, 60.879295349121094, 60.224727630615234, 0.647705078125, 0.151611328125, -0.622802734375
195, 116449424, 0.021776214241981506, -21.59113121032715, 33.93727111816406, -3.212590217590332, -36.49677658081055, -0.08326727151870728, 0.64453125, 0.143310546875, -0.623291015625
196, 116466091, -1.6325350999832153, -19.998897552490234, 33.77534484863281, 15.961223602294922, -161.21974182128906, -80.55740356445312, 0.631103515625, 0.15185546875, -0.655029296875
197, 116482758, -4.065093994140625, -17.490825653076172, 29.829750061035156, 4.389164447784424, -233.0452423095703, -150.4127960205078, 0.602294921875, 0.174072265625, -0.70947265625
198, 116499425, -8.566051483154297, -12.867873191833496, 26.557540893554688, 5.938326835632324, -266.9684143066406, -186.96539306640625, 0.56884765625, 0.207763671875, -0.770263671875
199, 116516092, -12.651668548583984, -7.719759941101074, 23.989242553710938, -1.3866708278656006, -278.60101318359375, -206.704345703125, 0.528076171875, 0.243896484375, -0.830810546875
200, 116532759, -14.505158424377441, -4.07633113861084, 21.497041702270508, -15.065208435058594, -281.6619567871094, -221.72535705566406, 0.479248046875, 0.28466796875, -0.890625
201, 116549426, -14.941487312316895, -1.282210350036621, 19.518779754638672, -8.839940071105957, -280.7319030761719, -227.5237274169922, 0.420654296875, 0.326904296875, -0.94921875
202, 116566093, -14.783747673034668, 2.8036508560180664, 17.682682037353516, 1.5805110931396484, -282.8192443847656, -219.19723510742188, 0.35595703125, 0.361328125, -1.004638671875
203, 116582760, -14.346868515014648, 5.692619323730469, 15.479772567749023, 0.23772801458835602, -283.2196044921875, -197.227294921875, 0.281982421875, 0.389892578125, -1.0517578125
204, 116599427, -14.01792049407959, 6.968751907348633, 13.137884140014648, -0.17967399954795837, -273.8633117675781, -165.95928955078125, 0.207275390625, 0.40966796875, -1.09033203125
205, 116616094, -14.376897811889648, 7.734405994415283, 10.744946479797363, 6.8277153968811035, -256.16741943359375, -130.37686157226562, 0.131103515625, 0.426025390625, -1.11865234375
206, 116632761, -17.13898468017578, 10.202372550964355, 7.184261322021484, 5.507101535797119, -243.5108642578125, -104.70189666748047, 0.058837890625, 0.43115234375, -1.142578125
207, 116649428, -22.766544342041016, 12.752622604370117, -0.5264776349067688, -18.73670196533203, -229.60263061523438, -111.6291275024414, -0.015380859375, 0.44140625, -1.156005859375
208, 116666095, -30.100767135620117, 3.0336031913757324, -10.43055534362793, 63.079002380371094, -212.0496063232422, -148.84580993652344, -0.081298828125, 0.43994140625, -1.165283203125
209, 116682762, -31.777246475219727, 4.378670692443848, -20.646032333374023, 261.353515625, -196.17074584960938, -155.3366241455078, -0.148681640625, 0.38330078125, -1.18408203125
210, 116699429, -29.15790367126465, 10.629215240478516, -29.45464515686035, 270.8741149902344, -130.9318084716797, -146.68446350097656, -0.19580078125, 0.30517578125, -1.195068359375
211, 116716096, -25.954532623291016, 12.115283012390137, -30.219675064086914, 119.68233489990234, -11.368281364440918, -96.1182861328125, -0.213134765625, 0.255859375, -1.1962890625
212, 116732763, -23.943950653076172, 10.149093627929688, -25.390426635742188, -43.59325408935547, 110.18984985351562, 1.3387587070465088, -0.1923828125, 0.257568359375, -1.19775390625
213, 116749430, -23.958566665649414, 7.602396011352539, -18.392045974731445, -128.92138671875, 210.75033569335938, 89.4843978881836, -0.13720703125, 0.28955078125, -1.195068359375
214, 116766097, -24.385873794555664, 6.0744733810424805, -9.896499633789062, -157.58551025390625, 281.63604736328125, 144.26785278320312, -0.06005859375, 0.32958984375, -1.179931640625
215, 116782764, -24.24934196472168, 4.5548834800720215, -1.9838142395019531, -151.5325164794922, 316.3333435058594, 175.9263916015625, 0.033203125, 0.36279296875, -1.15966796875
216, 116799431, -23.441883087158203, 3.295532703399658, 4.151856422424316, -130.2768096923828, 330.8191833496094, 185.32029724121094, 0.12890625, 0.385009765625, -1.123779296875
217, 116816098, -23.057884216308594, 1.5990660190582275, 9.856201171875, -97.00869750976562, 332.76861572265625, 172.63925170898438, 0.2275390625, 0.392578125, -1.078369140625
218, 116832765, -22.645570755004883, -0.12308914959430695, 15.094040870666504, -37.86623001098633, 313.7445373535156, 144.8666229248047, 0.313720703125, 0.384765625, -1.02587890625
219, 116849432, -20.371633529663086, -1.5489405393600464, 19.38648223876953, 44.147544860839844, 281.0259094238281, 107.99356842041016, 0.382080078125, 0.361083984375, -0.978271484375
220, 116866099, -14.007946014404297, -2.2688682079315186, 21.78169059753418, 117.51866149902344, 260.7005920410156, 75.41404724121094, 0.43798828125, 0.326171875, -0.9296875
221, 116882766, -7.0348615646362305, 1.2439799308776855, 24.910078048706055, 123.6648941040039, 261.3332214355469, 56.893951416015625, 0.488525390625, 0.2919921875, -0.8779296875
222, 116899433, -1.2051324844360352, 3.293941020965576, 28.892621994018555, 53.01923370361328, 251.0367431640625, 71.06290435791016, 0.528564453125, 0.2666015625, -0.82177734375
223, 116916100, 0.6435816287994385, 0.9423050284385681, 30.58340835571289, 1.409448266029358, 197.8218994140625, 123.01758575439453, 0.564453125, 0.24853515625, -0.7744140625
224, 116932767, 1.4123859405517578, -2.980759859085083, 27.280149459838867, 4.347054958343506, 137.66587829589844, 178.3939666748047, 0.583251953125, 0.214111328125, -0.7412109375
225, 116949434, 3.322981595993042, -7.235026836395264, 22.85323715209961, 10.88330364227295, 116.3656234741211, 198.60987854003906, 0.5986328125, 0.175048828125, -0.71435546875
226, 116966101, 1.7784147262573242, -11.04847240447998, 21.24272918701172, 9.551009178161621, 103.79496002197266, 181.4459228515625, 0.61181640625, 0.131591796875, -0.690673828125
227, 116982768, 1.961098074913025, -13.763497352600098, 19.982786178588867, -0.2289559692144394, 88.28504943847656, 114.49952697753906, 0.619384765625, 0.10498046875, -0.6669921875
228, 116999435, 0.9102996587753296, -14.061686515808105, 17.35723876953125, 1.4702048301696777, 73.49473571777344, 16.842409133911133, 0.627685546875, 0.10009765625, -0.652099609375
229, 117016102, -8.597365379333496, 4.126886367797852, 32.027748107910156, -238.01513671875, -30.069744110107422, -175.3700714111328, 0.63330078125, 0.154052734375, -0.655517578125
230, 117032769, -9.037196159362793, -18.44021987915039, 24.3196964263916, -116.45887756347656, -157.45826721191406, -96.512939453125, 0.61767578125, 0.20556640625, -0.689697265625
231, 117049436, -8.233627319335938, 2.9124908447265625, 3.928802967071533, -38.98105239868164, -59.175296783447266, -27.409730911254883, 0.603759765625, 0.22412109375, -0.7109375
232, 117066103, -4.305907249450684, -3.6877834796905518, 10.179384231567383, 3.7451224327087402, -8.611209869384766, 6.123684883117676, 0.60107421875, 0.22216796875, -0.716552734375
233, 117082770, -6.999654293060303, 0.0981445163488388, 7.31855583190918, 21.910921096801758, 13.212362289428711, 24.001272201538086, 0.602294921875, 0.21533203125, -0.713134765625
234, 117099437, -6.6032795906066895, 2.1174631118774414, 6.927226543426514, 32.07664108276367, 12.405607223510742, 34.43650436401367, 0.604248046875, 0.205322265625, -0.7099609375
235, 117116104, -6.589730739593506, 4.703685283660889, 6.454104900360107, 22.47368621826172, 2.328516721725464, 23.809661865234375, 0.60595703125, 0.1923828125, -0.7060546875
236, 117132771, -6.37245512008667, 3.940713882446289, 6.559144973754883, 3.5405914783477783, -7.089814186096191, 4.213335037231445, 0.6044921875, 0.186767578125, -0.708740234375
237, 117149438, -6.311030864715576, 2.3448681831359863, 7.023824214935303, -4.315524578094482, -10.504387855529785, -5.427423477172852, 0.60302734375, 0.18994140625, -0.711181640625
238, 117166105, -6.246242046356201, 1.2106475830078125, 7.257213115692139, -2.228600263595581, -8.88634204864502, -3.352536916732788, 0.602294921875, 0.193359375, -0.71337890625
239, 117182772, -6.354663848876953, 1.1214951276779175, 7.408516883850098, 3.5362625122070312, -3.8159337043762207, 2.6611404418945312, 0.602294921875, 0.189208984375, -0.71533203125
240, 117199439, -6.569358825683594, 1.489128828048706, 7.244777202606201, 10.907925605773926, -1.4706182479858398, 9.024711608886719, 0.601318359375, 0.188232421875, -0.71435546875
241, 117216106, -6.349873065948486, 2.023837089538574, 7.1112470626831055, 14.318268775939941, -3.299227714538574, 12.235607147216797, 0.6015625, 0.18310546875, -0.713134765625
242, 117232773, -6.172022819519043, 2.3938112258911133, 6.988881587982178, 12.649813652038574, -4.39168643951416, 11.032254219055176, 0.60107421875, 0.176513671875, -0.713134765625
243, 117249440, -6.002091884613037, 2.415823459625244, 7.001574516296387, 7.826737880706787, -4.182811260223389, 7.188379764556885, 0.6005859375, 0.17333984375, -0.71484375
244, 117266107, -5.965122699737549, 2.482208251953125, 6.988309860229492, 4.141516208648682, -2.0827996730804443, 3.662546396255493, 0.5986328125, 0.17333984375, -0.71630859375
245, 117282774, -6.088105201721191, 2.2239317893981934, 7.09768009185791, 2.3092217445373535, -0.7156827449798584, 1.2156106233596802, 0.600341796875, 0.17041015625, -0.71533203125
246, 117299441, -5.9682512283325195, 2.4002742767333984, 6.971131801605225, -0.21985940635204315, 0.5822214484214783, -1.2020807266235352, 0.599609375, 0.17236328125, -0.716796875
247, 117316108, -5.959198474884033, 2.5580923557281494, 6.8534040451049805, -3.6957719326019287, 1.8423539400100708, -4.190276622772217, 0.599609375, 0.171875, -0.714111328125
248, 117332775, -6.110978603363037, 2.295058012008667, 6.957271575927734, -6.904135704040527, 2.520540475845337, -6.765367031097412, 0.59814453125, 0.1748046875, -0.714111328125
249, 117349442, -6.261351108551025, 2.2568910121917725, 6.988933563232422, -9.09672737121582, 1.7505971193313599, -8.29210376739502, 0.60107421875, 0.175537109375, -0.714111328125
250, 117366109, -6.389837265014648, 2.0341734886169434, 7.078985691070557, -8.74202823638916, -0.2927148938179016, -8.065596580505371, 0.599609375, 0.178955078125, -0.7158203125
251, 117382776, -6.304508686065674, 1.942996621131897, 7.163999080657959, -7.413853645324707, -1.0324738025665283, -6.859313488006592, 0.60009765625, 0.181640625, -0.71484375
252, 117399443, -6.393520832061768, 1.862808108329773, 7.162624835968018, -3.963181495666504, -0.7338038086891174, -4.516171932220459, 0.600341796875, 0.18310546875, -0.71533203125
253, 117416110, -6.280385971069336, 1.9736977815628052, 7.102705478668213, -2.283846139907837, -0.49805179238319397, -3.0391266345977783, 0.600830078125, 0.1845703125, -0.7158203125
254, 117432777, -6.258162498474121, 2.1301252841949463, 7.047536373138428, -2.167936086654663, -0.6537129282951355, -2.804065704345703, 0.6015625, 0.18359375, -0.71484375
255, 117449444, -6.321678638458252, 1.9811995029449463, 7.131471157073975, -1.8924967050552368, -0.6381404399871826, -2.9489693641662598, 0.603515625, 0.184814453125, -0.7138671875
256, 117466111, -6.287725925445557, 2.054091691970825, 7.072972774505615, -0.9979603290557861, -0.945813000202179, -2.4194397926330566, 0.599853515625, 0.185791015625, -0.71484375
257, 117482778, -6.25477933883667, 2.122828722000122, 7.029454231262207, -1.5856565237045288, -1.0138400793075562, -2.8799047470092773, 0.601806640625, 0.187255859375, -0.718505859375
258, 117499445, -6.246511936187744, 2.077425479888916, 7.080450534820557, -2.4913222789764404, -1.0626581907272339, -3.6741552352905273, 0.599853515625, 0.185791015625, -0.71484375
259, 117516112, -6.250301837921143, 2.0259861946105957, 7.087222099304199, -3.331469774246216, -1.1420702934265137, -4.215697288513184, 0.602294921875, 0.188232421875, -0.71484375
260, 117532779, -6.265976905822754, 2.028536319732666, 7.063877105712891, -4.245766639709473, -1.4520097970962524, -4.75855827331543, 0.600341796875, 0.18994140625, -0.71484375
261, 117549446, -6.249042510986328, 2.0389904975891113, 7.063169956207275, -5.561734676361084, -2.176631450653076, -5.491133213043213, 0.599853515625, 0.189697265625, -0.71337890625
262, 117566113, -6.2930169105529785, 1.9983301162719727, 7.09407901763916, -6.714409828186035, -3.0370395183563232, -6.154746055603027, 0.601318359375, 0.195068359375, -0.7158203125
263, 117582780, -6.278265476226807, 1.9792170524597168, 7.1319379806518555, -7.182732105255127, -3.590972423553467, -6.4635396003723145, 0.600341796875, 0.19384765625, -0.7158203125
264, 117599447, -6.293591499328613, 1.8919175863265991, 7.120909214019775, -7.065866947174072, -3.7143802642822266, -6.289520263671875, 0.5986328125, 0.196533203125, -0.718505859375
265, 117616114, -6.2945170402526855, 1.8753457069396973, 7.1231889724731445, -6.9007039070129395, -3.9999239444732666, -5.946451187133789, 0.5986328125, 0.198486328125, -0.718017578125
266, 117632781, -6.254585266113281, 1.8845020532608032, 7.131155014038086, -6.59023904800415, -4.163089752197266, -5.794644355773926, 0.5986328125, 0.200439453125, -0.718505859375
267, 117649448, -6.22666072845459, 1.8973642587661743, 7.15127420425415, -6.638416767120361, -4.6039862632751465, -5.834587574005127, 0.598876953125, 0.20361328125, -0.72119140625
268, 117666115, -6.241384983062744, 1.8663657903671265, 7.139467239379883, -7.150632381439209, -5.040516376495361, -6.038247108459473, 0.6005859375, 0.205810546875, -0.72021484375
269, 117682782, -6.221835136413574, 1.805084228515625, 7.1240363121032715, -6.537938117980957, -4.5885419845581055, -5.6804633140563965, 0.597900390625, 0.20654296875, -0.72216796875
270, 117699449, -6.202752590179443, 1.6363009214401245, 7.177924633026123, -3.909240961074829, -2.2515869140625, -4.0919365882873535, 0.598388671875, 0.208251953125, -0.72314453125
271, 117716116, -6.196636199951172, 1.6265597343444824, 7.220115661621094, -1.7237536907196045, -0.13456271588802338, -2.724057674407959, 0.595703125, 0.210205078125, -0.7216796875
272, 117732783, -6.270608901977539, 1.6728029251098633, 7.178947448730469, 0.6383901238441467, 1.5347833633422852, -1.1044963598251343, 0.597900390625, 0.209228515625, -0.7197265625
273, 117749450, -6.240927219390869, 1.7606624364852905, 7.193796157836914, 1.3492450714111328, 1.6099952459335327, -0.4651266634464264, 0.599853515625, 0.209716796875, -0.7216796875
274, 117766117, -6.245423793792725, 1.7881652116775513, 7.1574296951293945, 1.244181752204895, 1.1736828088760376, -0.5360353589057922, 0.596435546875, 0.207275390625, -0.72265625
275, 117782784, -6.254568576812744, 1.8046338558197021, 7.144704341888428, 1.3881826400756836, 1.290482997894287, -0.5436743497848511, 0.597412109375, 0.209716796875, -0.72119140625
276, 117799451, -6.24576473236084, 1.7424871921539307, 7.164881706237793, 1.7282874584197998, 1.4751827716827393, -0.12520769238471985, 0.596435546875, 0.207763671875, -0.72119140625
277, 117816118, -6.2656073570251465, 1.8041226863861084, 7.160953044891357, 1.9912850856781006, 1.8699064254760742, 0.0036498098634183407, 0.597412109375, 0.206787109375, -0.718505859375
278, 117832785, -6.279639720916748, 1.8536921739578247, 7.1271772384643555, 1.6459168195724487, 1.9395794868469238, -0.2833788990974426, 0.60107421875, 0.207275390625, -0.718017578125
279, 117849452, -6.274486064910889, 1.9075883626937866, 7.121544361114502, 0.9536503553390503, 1.3363680839538574, -0.8495603799819946, 0.6005859375, 0.207275390625, -0.718017578125
280, 117866119, -6.290251731872559, 1.874759316444397, 7.118412971496582, -0.08244726061820984, 0.7656211256980896, -1.751613736152649, 0.599853515625, 0.206298828125, -0.720703125
281, 117882786, -6.291395664215088, 1.834040880203247, 7.1110358238220215, -0.5874401330947876, 0.30506646633148193, -2.0736682415008545, 0.598876953125, 0.207763671875, -0.718994140625
282, 117899453, -6.286204814910889, 1.8332300186157227, 7.13706111907959, -0.7843888998031616, 0.03143318369984627, -2.3948769569396973, 0.599365234375, 0.207275390625, -0.719482421875
283, 117916120, -6.298704147338867, 1.7699135541915894, 7.136717319488525, -0.4582624137401581, 0.5312458872795105, -2.3240325450897217, 0.599853515625, 0.207275390625, -0.716064453125
284, 117932787, -6.29722785949707, 1.7659308910369873, 7.133082866668701, 0.04708254709839821, 0.9394034147262573, -1.903484582901001, 0.600341796875, 0.207763671875, -0.718017578125
285, 117949454, -6.32814359664917, 1.7254997491836548, 7.147259712219238, 0.5650225877761841, 1.016574501991272, -1.3404662609100342, 0.6015625, 0.207275390625, -0.715576171875
286, 117966121, -6.319716453552246, 1.799997329711914, 7.145216941833496, 0.993087649345398, 1.1407320499420166, -0.8177111148834229, 0.60107421875, 0.206787109375, -0.715576171875
287, 117982788, -6.325664043426514, 1.8312426805496216, 7.139176368713379, 1.1778321266174316, 1.1684064865112305, -0.6339527368545532, 0.603515625, 0.206298828125, -0.716064453125
288, 117999455, -6.3270697593688965, 1.8378353118896484, 7.126485824584961, 0.960777223110199, 1.111520767211914, -0.8032910823822021, 0.60107421875, 0.20556640625, -0.71337890625
289, 118016122, -6.327646255493164, 1.832720160484314, 7.096582412719727, 0.5770541429519653, 0.6654179692268372, -1.0935471057891846, 0.60205078125, 0.205322265625, -0.71337890625
290, 118032789, -6.324732780456543, 1.8328897953033447, 7.132771015167236, 0.31660497188568115, 0.18573686480522156, -1.2201762199401855, 0.6044921875, 0.206787109375, -0.7138671875
291, 118049456, -6.326526165008545, 1.8136017322540283, 7.0876688957214355, 0.009226974099874496, -0.38495883345603943, -1.456068992614746, 0.6015625, 0.205810546875, -0.715087890625
292, 118066123, -6.300817012786865, 1.806533694267273, 7.08272647857666, -0.13276343047618866, -0.6686451435089111, -1.4123483896255493, 0.6005859375, 0.20556640625, -0.715576171875
293, 118082790, -6.296032905578613, 1.7975801229476929, 7.11085319519043, 0.24246902763843536, -0.4761144518852234, -1.0402084589004517, 0.60302734375, 0.205078125, -0.716064453125
294, 118099457, -6.316226005554199, 1.8349989652633667, 7.10812520980835, 0.5420736074447632, -0.09083543717861176, -0.8039442300796509, 0.6015625, 0.20458984375, -0.712890625
295, 118116124, -6.29189920425415, 1.8440455198287964, 7.110452651977539, 0.5555842518806458, 0.12685328722000122, -0.8629302382469177, 0.60302734375, 0.2041015625, -0.71484375
296, 118132791, -6.3133440017700195, 1.8389334678649902, 7.097348213195801, 0.47450724244117737, 0.2895195186138153, -0.9639979600906372, 0.6015625, 0.206298828125, -0.714599609375
297, 118149458, -6.32429313659668, 1.8484132289886475, 7.094278812408447, 0.28668931126594543, 0.2088395357131958, -1.2049880027770996, 0.60302734375, 0.204833984375, -0.7138671875
298, 118166125, -6.314167499542236, 1.8462040424346924, 7.094496250152588, 0.012966428883373737, -0.08572569489479065, -1.372994303703308, 0.603515625, 0.20458984375, -0.7119140625
299, 118182792, -6.328335762023926, 1.8393092155456543, 7.091314792633057, -0.011999550275504589, -0.2530662715435028, -1.289087176322937, 0.60107421875, 0.20458984375, -0.71142578125
300, 118199459, -6.340086936950684, 1.8186384439468384, 7.107293605804443, -0.080167755484581, -0.2756310999393463, -1.324868083000183, 0.60205078125, 0.20458984375, -0.71337890625
301, 118216126, -6.336719036102295, 1.8350367546081543, 7.08415412902832, -0.2668587267398834, -0.49578502774238586, -1.3923190832138062, 0.604736328125, 0.20263671875, -0.71337890625
302, 118232793, -6.323287010192871, 1.838076114654541, 7.090447902679443, -0.49766749143600464, -0.8379833698272705, -1.639993667602539, 0.6015625, 0.205078125, -0.71337890625
303, 118249460, -6.322602272033691, 1.808763027191162, 7.084349155426025, -0.4874608814716339, -0.8736875653266907, -1.5999611616134644, 0.60302734375, 0.206787109375, -0.71337890625
304, 118266127, -6.322976112365723, 1.8283178806304932, 7.093847274780273, -0.24049045145511627, -0.6110422015190125, -1.4709502458572388, 0.6044921875, 0.204833984375, -0.716552734375
305, 118282794, -6.347712516784668, 1.8212538957595825, 7.069668292999268, -0.0965854823589325, -0.5598936080932617, -1.3673851490020752, 0.6005859375, 0.205078125, -0.71337890625
306, 118299461, -6.317877292633057, 1.8118816614151, 7.087615489959717, -0.06520993262529373, -0.5740830898284912, -1.3041218519210815, 0.6025390625, 0.2041015625, -0.7119140625
307, 118316128, -6.330594539642334, 1.8188271522521973, 7.079834461212158, 0.10230353474617004, -0.5657461285591125, -1.1323374509811401, 0.60205078125, 0.205322265625, -0.71337890625
308, 118332795, -6.3243584632873535, 1.8504321575164795, 7.060444355010986, -0.10662567615509033, -0.7930204272270203, -1.1509708166122437, 0.60205078125, 0.20361328125, -0.71240234375
309, 118349462, -6.324896812438965, 1.8389040231704712, 7.069680690765381, -0.1921849101781845, -1.056318998336792, -1.2927497625350952, 0.604736328125, 0.204345703125, -0.71240234375
310, 118366129, -6.332945823669434, 1.8300621509552002, 7.080687999725342, -0.28597861528396606, -1.1033695936203003, -1.3386991024017334, 0.6005859375, 0.20556640625, -0.712890625
311, 118382796, -6.319887638092041, 1.846239447593689, 7.106393337249756, -0.3021017909049988, -0.997717022895813, -1.2778303623199463, 0.60107421875, 0.20361328125, -0.71435546875
312, 118399463, -6.3218560218811035, 1.8390458822250366, 7.089511871337891, -0.33032697439193726, -0.9308679103851318, -1.3159677982330322, 0.60302734375, 0.205322265625, -0.71484375
313, 118416130, -6.324429035186768, 1.8327324390411377, 7.100052356719971, -0.3609725534915924, -0.7957609295845032, -1.456670880317688, 0.6025390625, 0.205810546875, -0.7138671875
314, 118432797, -6.327431678771973, 1.8171268701553345, 7.075756072998047, -0.24981345236301422, -0.8205925226211548, -1.2841951847076416, 0.60302734375, 0.205810546875, -0.715087890625
315, 118449464, -6.323619365692139, 1.8384504318237305, 7.071386337280273, -0.22345799207687378, -0.7469815611839294, -1.3341269493103027, 0.6015625, 0.203125, -0.7119140625
316, 118466131, -6.3257904052734375, 1.844414472579956, 7.091251373291016, -0.3014358580112457, -0.7049639225006104, -1.4056377410888672, 0.59912109375, 0.20556640625, -0.71337890625
317, 118482798, -6.327609062194824, 1.829004168510437, 7.069768905639648, -0.40051862597465515, -0.7465205788612366, -1.5414364337921143, 0.6025390625, 0.203125, -0.71142578125
318, 118499465, -6.328281402587891, 1.8332579135894775, 7.091023921966553, -0.5036097764968872, -0.6822199821472168, -1.5439976453781128, 0.6015625, 0.205810546875, -0.712890625
319, 118516132, -6.31228494644165, 1.8277055025100708, 7.10758113861084, -0.46986499428749084, -0.7269524931907654, -1.5960041284561157, 0.6025390625, 0.205322265625, -0.71240234375
320, 118532799, -6.314932823181152, 1.8185890913009644, 7.077197551727295, -0.5346137881278992, -0.6389727592468262, -1.7361949682235718, 0.603515625, 0.204833984375, -0.71142578125
321, 118549466, -6.334695816040039, 1.8271903991699219, 7.068085670471191, -0.6361681222915649, -0.6206852793693542, -1.8204607963562012, 0.6015625, 0.205810546875, -0.7099609375
322, 118566133, -6.321361541748047, 1.8296853303909302, 7.1094560623168945, -0.5501735806465149, -0.6077765226364136, -1.8332033157348633, 0.603515625, 0.205810546875, -0.70947265625
323, 118582800, -6.3178253173828125, 1.8168723583221436, 7.085475444793701, -0.6511004567146301, -0.6602697968482971, -1.928700566291809, 0.603515625, 0.207275390625, -0.71240234375
324, 118599467, -6.319807529449463, 1.8265362977981567, 7.092925071716309, -0.7177318930625916, -0.5975058674812317, -1.930531620979309, 0.60400390625, 0.207763671875, -0.71337890625
325, 118616134, -6.338028430938721, 1.805417537689209, 7.118837833404541, -0.6464517712593079, -0.5760936141014099, -1.8472005128860474, 0.60302734375, 0.205810546875, -0.71484375
326, 118632801, -6.350006103515625, 1.8023349046707153, 7.0817975997924805, -0.6009507179260254, -0.6679279208183289, -1.768108606338501, 0.60302734375, 0.207275390625, -0.71435546875
327, 118649468, -6.345273017883301, 1.8022863864898682, 7.078734397888184, -0.5662710070610046, -0.7603129148483276, -1.8125593662261963, 0.60400390625, 0.206787109375, -0.7138671875
328, 118666135, -6.344657897949219, 1.8008559942245483, 7.093070983886719, -0.565592348575592, -0.9208405613899231, -1.7583885192871094, 0.603515625, 0.205322265625, -0.71484375
329, 118682802, -6.341080188751221, 1.8197335004806519, 7.066370487213135, -0.6093133091926575, -1.0205252170562744, -1.773679494857788, 0.598876953125, 0.208740234375, -0.71240234375
330, 118699469, -6.341651916503906, 1.8057667016983032, 7.066825866699219, -0.6862026453018188, -1.2407433986663818, -1.7020407915115356, 0.60107421875, 0.205810546875, -0.7119140625
331, 118716136, -6.330770015716553, 1.7938343286514282, 7.0710883140563965, -0.5894762277603149, -1.2550606727600098, -1.5574697256088257, 0.60205078125, 0.209716796875, -0.714111328125
332, 118732803, -6.333186149597168, 1.79926598072052, 7.067150115966797, -0.45926129817962646, -1.11976158618927, -1.5058473348617554, 0.60302734375, 0.206298828125, -0.71337890625
333, 118749470, -6.32944917678833, 1.7923599481582642, 7.068602085113525, -0.2618386447429657, -0.9458641409873962, -1.2573274374008179, 0.6025390625, 0.206298828125, -0.71435546875
334, 118766137, -6.329074382781982, 1.7984707355499268, 7.078916072845459, -0.10371862351894379, -0.8432725071907043, -1.2026827335357666, 0.60400390625, 0.209228515625, -0.71240234375
335, 118782804, -6.322214126586914, 1.8178324699401855, 7.07148551940918, -0.08860713988542557, -0.7607227563858032, -1.243650197982788, 0.60107421875, 0.208740234375, -0.71240234375
336, 118799471, -6.334774494171143, 1.7992669343948364, 7.071805477142334, -0.19865210354328156, -0.8628405928611755, -1.266291856765747, 0.6005859375, 0.208251953125, -0.7119140625
337, 118816138, -6.349923133850098, 1.8138759136199951, 7.100347518920898, -0.22116567194461823, -0.9793400764465332, -1.2688788175582886, 0.60107421875, 0.209228515625, -0.71142578125
338, 118832805, -6.345378398895264, 1.8043522834777832, 7.0841145515441895, -0.4128894507884979, -1.2954517602920532, -1.3959559202194214, 0.60009765625, 0.206787109375, -0.71142578125
339, 118849472, -6.341084957122803, 1.8148350715637207, 7.104714870452881, -0.40509045124053955, -1.4592194557189941, -1.3184905052185059, 0.6044921875, 0.209228515625, -0.714599609375
340, 118866139, -6.320491790771484, 1.7931832075119019, 7.115699291229248, -0.4063582718372345, -1.504067301750183, -1.362710952758789, 0.6044921875, 0.206787109375, -0.715087890625
341, 118882806, -6.311599254608154, 1.7860379219055176, 7.127468109130859, -0.3144727051258087, -1.175033688545227, -1.288203477859497, 0.60205078125, 0.206298828125, -0.71435546875
342, 118899473, -6.319520950317383, 1.779165267944336, 7.073493003845215, -0.29484060406684875, -1.1604602336883545, -1.172920823097229, 0.60009765625, 0.207763671875, -0.714111328125
343, 118916140, -6.312963008880615, 1.8132668733596802, 7.0816121101379395, -0.1981782764196396, -1.184920310974121, -1.1802459955215454, 0.6025390625, 0.207275390625, -0.71435546875
344, 118932807, -6.31558895111084, 1.819076418876648, 7.106058120727539, -0.28334054350852966, -1.2198817729949951, -1.2897148132324219, 0.603515625, 0.2099609375, -0.7119140625
345, 118949474, -6.319324016571045, 1.8048592805862427, 7.102208137512207, -0.42441526055336, -0.9754212498664856, -1.3020983934402466, 0.6044921875, 0.208251953125, -0.71337890625
346, 118966141, -6.31777811050415, 1.7828869819641113, 7.088255405426025, -0.4080231487751007, -0.9460435509681702, -1.4080582857131958, 0.60205078125, 0.207763671875, -0.714599609375
347, 118982808, -6.316787242889404, 1.8095922470092773, 7.073798656463623, -0.3879043459892273, -0.9891752004623413, -1.4165998697280884, 0.6005859375, 0.207275390625, -0.714599609375
348, 118999475, -6.317315101623535, 1.8134485483169556, 7.087095260620117, -0.4993963837623596, -1.090089201927185, -1.3363295793533325, 0.60302734375, 0.206787109375, -0.71435546875
349, 119016142, -6.330191612243652, 1.815710186958313, 7.098469257354736, -0.5255085229873657, -1.2292174100875854, -1.4910048246383667, 0.60107421875, 0.205810546875, -0.71142578125
350, 119032809, -6.315506458282471, 1.7908928394317627, 7.089563846588135, -0.4820437431335449, -1.3121000528335571, -1.500045895576477, 0.60205078125, 0.208740234375, -0.71435546875
351, 119049476, -6.3167314529418945, 1.7911134958267212, 7.10471248626709, -0.37680119276046753, -1.2875630855560303, -1.36469566822052, 0.60205078125, 0.210205078125, -0.714599609375
352, 119066143, -6.317164421081543, 1.7958917617797852, 7.093161106109619, -0.32453852891921997, -1.19557523727417, -1.304582953453064, 0.60107421875, 0.209228515625, -0.7138671875
353, 119082810, -6.310298442840576, 1.7955740690231323, 7.101132392883301, -0.3153819739818573, -1.1200944185256958, -1.2264000177383423, 0.60400390625, 0.207275390625, -0.7138671875
354, 119099477, -6.316643238067627, 1.80850088596344, 7.098989963531494, -0.298669695854187, -0.9754980802536011, -1.2601832151412964, 0.60205078125, 0.208740234375, -0.714599609375
355, 119116144, -6.321207523345947, 1.7999902963638306, 7.105217456817627, -0.3528405725955963, -1.0621458292007446, -1.360277771949768, 0.6015625, 0.208251953125, -0.71435546875
356, 119132811, -6.302584648132324, 1.803963303565979, 7.105477809906006, -0.3674910068511963, -1.0474697351455688, -1.4612044095993042, 0.6005859375, 0.207763671875, -0.715576171875
357, 119149478, -6.310311794281006, 1.8041300773620605, 7.113399505615234, -0.4004289507865906, -0.9272053241729736, -1.3979154825210571, 0.60302734375, 0.207275390625, -0.715087890625
358, 119166145, -6.329414367675781, 1.785189151763916, 7.112259387969971, -0.39275795221328735, -0.9492834806442261, -1.4405479431152344, 0.6025390625, 0.207763671875, -0.7138671875
359, 119182812, -6.315207004547119, 1.8030351400375366, 7.078978538513184, -0.3102210462093353, -0.9705676436424255, -1.4138209819793701, 0.60107421875, 0.209228515625, -0.715087890625
360, 119199479, -6.334452152252197, 1.7995127439498901, 7.0717997550964355, -0.4096238613128662, -0.9453006386756897, -1.5078580379486084, 0.60205078125, 0.208251953125, -0.71435546875
361, 119216146, -6.3025312423706055, 1.8068130016326904, 7.1166605949401855, -0.4895739257335663, -1.103049397468567, -1.5291935205459595, 0.60107421875, 0.209228515625, -0.714599609375
362, 119232813, -6.324639797210693, 1.7850325107574463, 7.098599433898926, -0.5198993682861328, -1.1066352128982544, -1.7025272846221924, 0.598388671875, 0.209228515625, -0.715576171875
363, 119249480, -6.316399574279785, 1.7716883420944214, 7.124195575714111, -0.6821942925453186, -1.099873423576355, -1.7714768648147583, 0.6015625, 0.209228515625, -0.716064453125
364, 119266147, -6.310492515563965, 1.7995250225067139, 7.103658676147461, -0.7701739072799683, -1.0369045734405518, -1.800649881362915, 0.601318359375, 0.21142578125, -0.716552734375
365, 119282814, -6.298593521118164, 1.7710075378417969, 7.101449489593506, -0.6833596229553223, -0.8994925022125244, -1.7713872194290161, 0.6015625, 0.208251953125, -0.715087890625
366, 119299481, -6.311782360076904, 1.7656688690185547, 7.126385688781738, -0.49178946018218994, -0.545550525188446, -1.5985783338546753, 0.600341796875, 0.209228515625, -0.714111328125
367, 119316148, -6.30341100692749, 1.7902294397354126, 7.122159004211426, -0.30484235286712646, -0.4473385810852051, -1.5407702922821045, 0.6005859375, 0.208740234375, -0.714599609375
368, 119332815, -6.314465045928955, 1.7800077199935913, 7.087527275085449, -0.4619891047477722, -0.5416445732116699, -1.568854808807373, 0.601318359375, 0.209716796875, -0.716552734375
369, 119349482, -6.319967269897461, 1.7762569189071655, 7.104884624481201, -0.4309849143028259, -0.628791868686676, -1.4929003715515137, 0.60107421875, 0.209228515625, -0.715576171875
370, 119366149, -6.312276840209961, 1.7782362699508667, 7.1062846183776855, -0.40185046195983887, -0.8000510931015015, -1.4709631204605103, 0.60302734375, 0.209228515625, -0.712890625
371, 119382816, -6.328773021697998, 1.7751749753952026, 7.109370231628418, -0.463986873626709, -0.9781105518341064, -1.5011217594146729, 0.6005859375, 0.209716796875, -0.712890625
372, 119399483, -6.327230453491211, 1.7858277559280396, 7.087170124053955, -0.36074206233024597, -0.9941056370735168, -1.3967244625091553, 0.6015625, 0.210205078125, -0.714111328125
373, 119416150, -6.3131537437438965, 1.7815791368484497, 7.081718444824219, -0.40452703833580017, -0.990058958530426, -1.4169586896896362, 0.60205078125, 0.208740234375, -0.715087890625
374, 119432817, -6.321258068084717, 1.7838715314865112, 7.09116792678833, -0.34601476788520813, -1.0087817907333374, -1.3915125131607056, 0.6015625, 0.209228515625, -0.7138671875
375, 119449484, -6.303408622741699, 1.78031325340271, 7.0976338386535645, -0.24462690949440002, -0.9422016739845276, -1.3264305591583252, 0.60205078125, 0.21044921875, -0.716064453125
376, 119466151, -6.305183410644531, 1.773248314857483, 7.095561504364014, -0.2162480354309082, -0.8373432755470276, -1.3390320539474487, 0.6005859375, 0.209716796875, -0.714111328125
377, 119482818, -6.31562614440918, 1.7763454914093018, 7.085122108459473, -0.19040483236312866, -0.9194575548171997, -1.3937023878097534, 0.6015625, 0.209228515625, -0.715576171875
378, 119499485, -6.324870586395264, 1.7882651090621948, 7.099326133728027, -0.3186348080635071, -0.9833099842071533, -1.3585360050201416, 0.6015625, 0.210205078125, -0.7138671875
379, 119516152, -6.312376976013184, 1.761504888534546, 7.089380741119385, -0.3456817865371704, -1.035982608795166, -1.3442953824996948, 0.600341796875, 0.210693359375, -0.717041015625
380, 119532819, -6.32621431350708, 1.7692006826400757, 7.101832389831543, -0.24410183727741241, -1.0716609954833984, -1.2894587516784668, 0.60205078125, 0.210205078125, -0.716064453125
381, 119549486, -6.315162658691406, 1.779657244682312, 7.104405403137207, -0.231833353638649, -1.0425266027450562, -1.2653570175170898, 0.6015625, 0.210205078125, -0.715087890625
382, 119566153, -6.306277275085449, 1.7849390506744385, 7.107745170593262, -0.16567574441432953, -0.9200465679168701, -1.2727205753326416, 0.602294921875, 0.209716796875, -0.718994140625
383, 119582820, -6.306145191192627, 1.7875207662582397, 7.1231608390808105, -0.2536937892436981, -0.9937856793403625, -1.3383148908615112, 0.600830078125, 0.209716796875, -0.716064453125
384, 119599487, -6.320459365844727, 1.7856909036636353, 7.107572555541992, -0.20163597166538239, -0.9565574526786804, -1.2944786548614502, 0.6015625, 0.209716796875, -0.714599609375
385, 119616154, -6.308322429656982, 1.7752856016159058, 7.106381893157959, -0.2840832471847534, -0.8390592336654663, -1.4040113687515259, 0.6015625, 0.208740234375, -0.714599609375
386, 119632821, -6.306958198547363, 1.7826412916183472, 7.1299238204956055, -0.24962134659290314, -0.86500483751297, -1.3421950340270996, 0.6015625, 0.208251953125, -0.714599609375
387, 119649488, -6.307107925415039, 1.761889934539795, 7.130484580993652, -0.30822324752807617, -0.8247802257537842, -1.4630359411239624, 0.601318359375, 0.210205078125, -0.715576171875
388, 119666155, -6.308575630187988, 1.772679090499878, 7.123313903808594, -0.3127566874027252, -0.9853206276893616, -1.3212567567825317, 0.599853515625, 0.209228515625, -0.715087890625
389, 119682822, -6.305305004119873, 1.7826378345489502, 7.107420921325684, -0.3108741343021393, -1.070226788520813, -1.3030333518981934, 0.600341796875, 0.2119140625, -0.715576171875
390, 119699489, -6.313726902008057, 1.7730870246887207, 7.124633312225342, -0.35082992911338806, -1.2301522493362427, -1.416586995124817, 0.599853515625, 0.210693359375, -0.716552734375
391, 119716156, -6.311038494110107, 1.7831718921661377, 7.123879432678223, -0.4751667082309723, -1.1048803329467773, -1.4661346673965454, 0.601806640625, 0.2119140625, -0.715087890625
392, 119732823, -6.295810222625732, 1.7696619033813477, 7.124078273773193, -0.345950722694397, -1.1279319524765015, -1.4437365531921387, 0.60205078125, 0.209228515625, -0.7138671875
393, 119749490, -6.2956390380859375, 1.773602843284607, 7.132387638092041, -0.2571258842945099, -0.7529876828193665, -1.3902829885482788, 0.60107421875, 0.209228515625, -0.715087890625
394, 119766157, -6.306417942047119, 1.7668161392211914, 7.0956549644470215, -0.05771821364760399, -0.5397748351097107, -1.2526658773422241, 0.6025390625, 0.208740234375, -0.716064453125
395, 119782824, -6.313422203063965, 1.7624913454055786, 7.122077941894531, -0.1870751678943634, -0.6920295357704163, -1.2100592851638794, 0.599853515625, 0.210205078125, -0.716064453125
396, 119799491, -6.304256439208984, 1.8029577732086182, 7.105801105499268, -0.22923366725444794, -0.8008450865745544, -1.2994219064712524, 0.601806640625, 0.210693359375, -0.716552734375
397, 119816158, -6.306962013244629, 1.7772241830825806, 7.105128765106201, -0.24983909726142883, -0.7906768321990967, -1.4180984497070312, 0.599365234375, 0.21142578125, -0.715087890625
398, 119832825, -6.306344985961914, 1.7659616470336914, 7.125873565673828, -0.2926059067249298, -0.7574251890182495, -1.4085255861282349, 0.597900390625, 0.209716796875, -0.716064453125
399, 119849492, -6.2988667488098145, 1.7664779424667358, 7.111862659454346, -0.3890056610107422, -0.7617601156234741, -1.4250777959823608, 0.60205078125, 0.21044921875, -0.716552734375
400, 119866159, -6.308249473571777, 1.771003246307373, 7.111419200897217, -0.3019481301307678, -0.8391233086585999, -1.3748257160186768, 0.601318359375, 0.2109375, -0.715576171875
401, 119882826, -6.305142402648926, 1.763400673866272, 7.117319583892822, -0.2760152220726013, -0.8503671884536743, -1.3978387117385864, 0.60107421875, 0.209228515625, -0.715087890625
402, 119899493, -6.301998615264893, 1.7855846881866455, 7.113593578338623, -0.25831690430641174, -0.7702123522758484, -1.3993626832962036, 0.600341796875, 0.2109375, -0.714599609375
403, 119916160, -6.316835403442383, 1.762976884841919, 7.094762802124023, -0.279485821723938, -0.8832923769950867, -1.4281514883041382, 0.6005859375, 0.210693359375, -0.71240234375
404, 119932827, -6.304592132568359, 1.7723842859268188, 7.128233432769775, -0.2766299545764923, -0.8628790974617004, -1.4126684665679932, 0.60205078125, 0.210205078125, -0.714599609375
405, 119949494, -6.315088748931885, 1.7713687419891357, 7.123642921447754, -0.26016101241111755, -0.9290751218795776, -1.3528884649276733, 0.6025390625, 0.209228515625, -0.715087890625
406, 119966161, -6.325401306152344, 1.7747868299484253, 7.114482402801514, -0.3089916408061981, -1.0912290811538696, -1.422183632850647, 0.60302734375, 0.21142578125, -0.716552734375
407, 119982828, -6.300755977630615, 1.7783671617507935, 7.107013702392578, -0.18071040511131287, -1.117917537689209, -1.309129238128662, 0.6025390625, 0.21044921875, -0.717529296875
408, 119999495, -6.307324409484863, 1.7689402103424072, 7.111965656280518, -0.17685569822788239, -1.2286925315856934, -1.272605538368225, 0.599853515625, 0.209228515625, -0.715087890625
409, 120016162, -6.319039821624756, 1.7713608741760254, 7.112025737762451, -0.13188619911670685, -1.0876753330230713, -1.2747249603271484, 0.600830078125, 0.21435546875, -0.713623046875
410, 120032829, -6.303737163543701, 1.7630252838134766, 7.132842063903809, -0.1926267296075821, -1.225292444229126, -1.2586017847061157, 0.599853515625, 0.210205078125, -0.715576171875
411, 120049496, -6.309544563293457, 1.7632454633712769, 7.116261005401611, -0.22129371762275696, -1.227040410041809, -1.2481837272644043, 0.601806640625, 0.2109375, -0.716064453125
412, 120066163, -6.296854019165039, 1.7747143507003784, 7.103512763977051, -0.30453500151634216, -1.2433428764343262, -1.3197327852249146, 0.599853515625, 0.21142578125, -0.715576171875
413, 120082830, -6.305185317993164, 1.7709736824035645, 7.11478853225708, -0.2878226935863495, -1.2978978157043457, -1.3143796920776367, 0.601318359375, 0.21142578125, -0.716064453125
414, 120099497, -6.297382831573486, 1.7718523740768433, 7.116745471954346, -0.205234557390213, -1.191925287246704, -1.352427363395691, 0.601806640625, 0.21142578125, -0.714599609375
415, 120116164, -6.289775848388672, 1.7688379287719727, 7.128403186798096, -0.17685569822788239, -1.3047877550125122, -1.247248888015747, 0.600830078125, 0.210205078125, -0.715087890625
416, 120132831, -6.2821044921875, 1.7663062810897827, 7.137089729309082, -0.17689412832260132, -1.2117880582809448, -1.2492210865020752, 0.600341796875, 0.209228515625, -0.716064453125
417, 120149498, -6.285041332244873, 1.7515113353729248, 7.131996154785156, -0.08539272844791412, -0.9443913698196411, -1.202567458152771, 0.599365234375, 0.209228515625, -0.715576171875
418, 120166165, -6.294668674468994, 1.7588740587234497, 7.126814842224121, 0.09005425870418549, -0.8820565938949585, -0.9917941689491272, 0.601318359375, 0.21142578125, -0.718505859375
419, 120182832, -6.28741455078125, 1.793700098991394, 7.1379547119140625, 0.2645663619041443, -0.7127628922462463, -0.9782257676124573, 0.601318359375, 0.209716796875, -0.718017578125
420, 120199499, -6.293116569519043, 1.7741570472717285, 7.109286308288574, 0.29165181517601013, -0.6134496927261353, -1.028221845626831, 0.60107421875, 0.210205078125, -0.714599609375
421, 120216166, -6.293580055236816, 1.7523770332336426, 7.125731468200684, 0.4754805862903595, -0.35143184661865234, -0.9646895527839661, 0.6025390625, 0.208740234375, -0.715087890625
422, 120232833, -6.29669713973999, 1.7561167478561401, 7.147103309631348, 0.6524002552032471, -0.24807177484035492, -0.8449245095252991, 0.599365234375, 0.210693359375, -0.715087890625
423, 120249500, -6.3040618896484375, 1.7667999267578125, 7.106095790863037, 0.6904094815254211, -0.03995580971240997, -0.7005841732025146, 0.60107421875, 0.209228515625, -0.714599609375
424, 120266167, -6.301975727081299, 1.7742869853973389, 7.122776031494141, 0.9236130714416504, 0.14964859187602997, -0.6792231798171997, 0.599365234375, 0.209716796875, -0.717041015625
425, 120282834, -6.30535364151001, 1.7770357131958008, 7.1087751388549805, 0.7853045463562012, 0.023967081680893898, -0.5639787912368774, 0.60107421875, 0.208740234375, -0.716064453125
426, 120299501, -6.308783531188965, 1.7968628406524658, 7.090062618255615, 0.6674606204032898, -0.23192299902439117, -0.5977876782417297, 0.6005859375, 0.207275390625, -0.716552734375
427, 120316168, -6.31205415725708, 1.788190245628357, 7.096170425415039, 0.35771340131759644, -0.6887511610984802, -0.9142197370529175, 0.60009765625, 0.208251953125, -0.714599609375
428, 120332835, -6.314584255218506, 1.7998197078704834, 7.093486309051514, 0.10515933483839035, -1.0275046825408936, -0.9512556195259094, 0.601318359375, 0.209716796875, -0.716552734375
429, 120349502, -6.2957987785339355, 1.7875093221664429, 7.11181640625, 0.16443996131420135, -1.030104398727417, -0.8620466589927673, 0.598876953125, 0.208251953125, -0.715576171875
430, 120366169, -6.310701370239258, 1.7942774295806885, 7.1303486824035645, 0.25426366925239563, -0.8731880784034729, -0.7936094999313354, 0.600341796875, 0.207763671875, -0.718017578125
431, 120382836, -6.308941841125488, 1.7994205951690674, 7.117851734161377, 0.1630568504333496, -0.907253086566925, -0.8113335371017456, 0.6025390625, 0.206787109375, -0.718017578125
432, 120399503, -6.292541980743408, 1.8087865114212036, 7.124091625213623, -0.06445436179637909, -1.138382077217102, -1.008500099182129, 0.6015625, 0.208251953125, -0.717529296875
433, 120416170, -6.305105686187744, 1.7960883378982544, 7.115063667297363, -0.29167747497558594, -1.300126314163208, -1.209342122077942, 0.599365234375, 0.208251953125, -0.714111328125
434, 120432837, -6.288463592529297, 1.795753836631775, 7.095668315887451, -0.3092861473560333, -1.2562644481658936, -1.3253419399261475, 0.60009765625, 0.207275390625, -0.714599609375
435, 120449504, -6.303308963775635, 1.7954555749893188, 7.088067531585693, -0.45451653003692627, -1.179880976676941, -1.4686000347137451, 0.6005859375, 0.207275390625, -0.715576171875
436, 120466171, -6.3150248527526855, 1.801596999168396, 7.126260757446289, -0.5553601980209351, -1.3191821575164795, -1.54978609085083, 0.6025390625, 0.207275390625, -0.715576171875
437, 120482838, -6.293209075927734, 1.7943819761276245, 7.121783256530762, -0.7328050136566162, -1.3085144758224487, -1.6384572982788086, 0.60107421875, 0.207275390625, -0.715576171875
438, 120499505, -6.2990522384643555, 1.785900592803955, 7.101581573486328, -0.7554337978363037, -1.3357535600662231, -1.7404983043670654, 0.599853515625, 0.208740234375, -0.717529296875
439, 120516172, -6.2885966300964355, 1.7854946851730347, 7.119296073913574, -0.8975329995155334, -1.2821204662322998, -1.8091404438018799, 0.599609375, 0.206298828125, -0.71435546875
440, 120532839, -6.303852558135986, 1.777524709701538, 7.123483180999756, -1.1097214221954346, -1.4172147512435913, -2.0076770782470703, 0.60107421875, 0.208740234375, -0.716552734375
441, 120549506, -6.313737392425537, 1.7984130382537842, 7.116048812866211, -1.3858647346496582, -1.8971455097198486, -2.188387393951416, 0.6015625, 0.206787109375, -0.716064453125
442, 120566173, -6.302175998687744, 1.7934398651123047, 7.124382495880127, -1.8461378812789917, -2.3653972148895264, -2.466054916381836, 0.600341796875, 0.2109375, -0.715576171875
443, 120582840, -6.29813814163208, 1.7840794324874878, 7.137740612030029, -2.0468132495880127, -2.833622694015503, -2.584808111190796, 0.599853515625, 0.21142578125, -0.718017578125
444, 120599507, -6.2995758056640625, 1.744999885559082, 7.139126300811768, -2.1299777030944824, -2.8849759101867676, -2.5679802894592285, 0.597412109375, 0.210693359375, -0.718505859375
445, 120616174, -6.284971237182617, 1.7583097219467163, 7.1495137214660645, -2.0789573192596436, -3.2836897373199463, -2.37188982963562, 0.598876953125, 0.21142578125, -0.7197265625
446, 120632841, -6.267198085784912, 1.8273459672927856, 7.137869834899902, -1.9008979797363281, -3.4667816162109375, -2.4598822593688965, 0.598876953125, 0.21337890625, -0.718017578125
447, 120649508, -6.281490802764893, 1.7915494441986084, 7.140444278717041, -1.384251356124878, -2.56087327003479, -2.7661845684051514, 0.600341796875, 0.21240234375, -0.72021484375
448, 120666175, -6.264678001403809, 1.792740821838379, 7.180888652801514, -1.4466434717178345, -2.656446695327759, -2.890380382537842, 0.59619140625, 0.2138671875, -0.7216796875
449, 120682842, -6.247517108917236, 1.759903907775879, 7.195817947387695, -0.6833339929580688, -1.899898648262024, -2.9544379711151123, 0.598876953125, 0.2119140625, -0.720703125
450, 120699509, -6.2858686447143555, 1.6627144813537598, 7.232110500335693, 3.4513306617736816, 1.7057229280471802, -2.3713905811309814, 0.59765625, 0.2138671875, -0.720703125
451, 120716176, -6.320614337921143, 1.6201152801513672, 7.150182247161865, 4.075371742248535, 1.5868030786514282, -1.4797098636627197, 0.597900390625, 0.212890625, -0.717041015625
452, 120732843, -6.256511211395264, 1.718781590461731, 7.1061201095581055, 2.514699697494507, 0.31752702593803406, -1.076386570930481, 0.599853515625, 0.21240234375, -0.718017578125
453, 120749510, -6.264343738555908, 1.7841988801956177, 7.099534034729004, 1.35951566696167, -0.21861718595027924, -0.9595668911933899, 0.600341796875, 0.21142578125, -0.718017578125
454, 120766177, -6.272037506103516, 1.8095033168792725, 7.1080708503723145, 0.6767067909240723, -0.748684823513031, -1.2972064018249512, 0.599853515625, 0.21142578125, -0.71923828125
455, 120782844, -6.269286632537842, 1.8201783895492554, 7.094793319702148, -0.07755525410175323, -1.4683632850646973, -1.6063004732131958, 0.596923828125, 0.210693359375, -0.71923828125
456, 120799511, -6.272826194763184, 1.8052195310592651, 7.170816898345947, -0.3980213403701782, -1.6522752046585083, -1.9777613878250122, 0.597412109375, 0.211181640625, -0.716064453125
457, 120816178, -6.276211738586426, 1.754455804824829, 7.176593780517578, 0.17189325392246246, -1.163328766822815, -1.990567922592163, 0.599365234375, 0.210693359375, -0.718994140625
458, 120832845, -6.275271892547607, 1.7009594440460205, 7.171573162078857, 0.3726775646209717, -0.6489745378494263, -1.743481993675232, 0.598388671875, 0.21240234375, -0.718017578125
459, 120849512, -6.292300701141357, 1.7308100461959839, 7.136932849884033, 0.21382763981819153, -0.7862203121185303, -1.545060634613037, 0.599365234375, 0.21337890625, -0.71923828125
460, 120866179, -6.275172233581543, 1.754961609840393, 7.153618812561035, 0.2607436776161194, -0.77466881275177, -1.3636071681976318, 0.600341796875, 0.210693359375, -0.72216796875
461, 120882846, -6.283158779144287, 1.7544535398483276, 7.144209861755371, 0.5209558606147766, -0.23436900973320007, -1.3063373565673828, 0.598876953125, 0.2119140625, -0.7197265625
462, 120899513, -6.29725456237793, 1.745835304260254, 7.1351518630981445, 0.9630951285362244, 0.24199515581130981, -1.1432867050170898, 0.599853515625, 0.212890625, -0.718017578125
463, 120916180, -6.281756401062012, 1.8065564632415771, 7.127058029174805, 0.8793799877166748, 0.06697080284357071, -1.1240133047103882, 0.598876953125, 0.209716796875, -0.716064453125
464, 120932847, -6.303666591644287, 1.7683337926864624, 7.133884429931641, 1.0186874866485596, -0.1062927097082138, -1.0973505973815918, 0.599365234375, 0.2119140625, -0.717529296875
465, 120949514, -6.329283714294434, 1.7214181423187256, 7.111698627471924, 1.6622065305709839, -0.145953968167305, -0.8163407444953918, 0.601318359375, 0.210205078125, -0.718017578125
466, 120966181, -6.266609191894531, 1.808809518814087, 7.117077350616455, 1.554441213607788, -0.5565767884254456, -0.5333076119422913, 0.598388671875, 0.208740234375, -0.718994140625
467, 120982848, -6.252171039581299, 1.811212182044983, 7.09632682800293, 1.1218552589416504, -0.8720482587814331, -0.8805645704269409, 0.598388671875, 0.210205078125, -0.717041015625
468, 120999515, -6.282424449920654, 1.806886911392212, 7.090381622314453, 0.8321757912635803, -1.1998909711837769, -0.9012724161148071, 0.597900390625, 0.209716796875, -0.717529296875
469, 121016182, -6.272356033325195, 1.7227740287780762, 7.122244358062744, 1.1362369060516357, -1.3977105617523193, -0.4781891405582428, 0.6005859375, 0.208740234375, -0.716064453125
470, 121032849, -6.2483015060424805, 1.7785110473632812, 7.114067554473877, 1.3086488246917725, -1.3709068298339844, -0.07759366184473038, 0.599365234375, 0.208740234375, -0.717529296875
471, 121049516, -6.2883734703063965, 1.8292012214660645, 7.082056045532227, 1.269960641860962, -1.4844862222671509, -0.11557728797197342, 0.599853515625, 0.209228515625, -0.718505859375
472, 121066183, -6.245327949523926, 1.8927478790283203, 7.084837913513184, 0.9438086748123169, -2.2258460521698, 0.07078710198402405, 0.599853515625, 0.206787109375, -0.7197265625
473, 121082850, -6.2717461585998535, 1.722487449645996, 7.113561630249023, 0.9454991221427917, -2.6228299140930176, 0.43891841173171997, 0.600830078125, 0.208251953125, -0.72216796875
474, 121099517, -6.250778675079346, 1.8064634799957275, 7.089515686035156, 0.47833630442619324, -3.323772668838501, 0.6254556179046631, 0.597900390625, 0.207763671875, -0.7197265625
475, 121116184, -6.2581586837768555, 1.8553379774093628, 7.014060974121094, -0.025292541831731796, -4.308785915374756, 0.8436375260353088, 0.595947265625, 0.207275390625, -0.72021484375
476, 121132851, -6.251195430755615, 1.5478713512420654, 7.091893196105957, 1.6068834066390991, -4.2736077308654785, 3.1521999835968018, 0.596923828125, 0.207275390625, -0.720703125
477, 121149518, -6.153995037078857, 1.7812483310699463, 7.2293381690979, 2.6034224033355713, -3.641998529434204, 3.946399211883545, 0.596435546875, 0.2041015625, -0.72412109375
478, 121166185, -6.162105083465576, 2.024801254272461, 7.090343475341797, 2.969965696334839, -4.251337051391602, 3.36999773979187, 0.596435546875, 0.200439453125, -0.72412109375
479, 121182852, -6.194892883300781, 1.9316308498382568, 7.165676593780518, 1.086330771446228, -5.004645347595215, 1.7294399738311768, 0.595947265625, 0.200927734375, -0.724609375
480, 121199519, -6.27903413772583, 1.781471848487854, 7.191384315490723, -0.34614282846450806, -5.503977298736572, 0.9722901582717896, 0.592041015625, 0.200439453125, -0.72412109375
481, 121216186, -6.317091941833496, 1.881704568862915, 7.157835483551025, 0.11315051466226578, -5.895095348358154, 1.454769253730774, 0.594970703125, 0.199462890625, -0.7255859375
482, 121232853, -6.264712810516357, 2.049452781677246, 7.181345462799072, -0.6740623712539673, -7.44754695892334, 0.8306519985198975, 0.594482421875, 0.197998046875, -0.726806640625
483, 121249520, -6.182155609130859, 1.9788295030593872, 7.241648197174072, -1.4014630317687988, -7.598213195800781, 0.1026749238371849, 0.592529296875, 0.197265625, -0.730712890625
484, 121266187, -6.160565376281738, 1.907956838607788, 7.27347469329834, -1.7756645679473877, -6.5948486328125, -0.31616318225860596, 0.59130859375, 0.1982421875, -0.7314453125
485, 121282854, -6.183526039123535, 1.8419023752212524, 7.217213153839111, -1.0489554405212402, -5.216616153717041, -0.07291936874389648, 0.59228515625, 0.198974609375, -0.734375
486, 121299521, -6.1275858879089355, 1.8756004571914673, 7.294677257537842, -0.9052042365074158, -4.535996913909912, 0.04226095974445343, 0.5927734375, 0.198486328125, -0.73291015625
487, 121316188, -6.073914527893066, 1.979216456413269, 7.314971923828125, -1.1588084697723389, -3.8578877449035645, -0.45376747846603394, 0.59130859375, 0.198486328125, -0.73291015625
488, 121332855, -6.054725170135498, 2.0288169384002686, 7.3013224601745605, -1.9433382749557495, -2.819753885269165, -1.7984473705291748, 0.594970703125, 0.198974609375, -0.729736328125
489, 121349522, -6.096574306488037, 1.9773008823394775, 7.253729820251465, -2.705559492111206, -2.4052248001098633, -3.055403232574463, 0.597900390625, 0.1962890625, -0.728759765625
490, 121366189, -6.122218608856201, 1.8052988052368164, 7.241535186767578, -3.5116164684295654, -2.926161527633667, -3.731757640838623, 0.602783203125, 0.1904296875, -0.72509765625
491, 121382856, -6.12580680847168, 1.7425143718719482, 7.239524841308594, -4.293547630310059, -3.6750004291534424, -3.8940274715423584, 0.598876953125, 0.1845703125, -0.7236328125
492, 121399523, -6.081678867340088, 1.7965335845947266, 7.283457279205322, -5.388004302978516, -4.164920330047607, -4.051609992980957, 0.593505859375, 0.17626953125, -0.720458984375
493, 121416190, -6.055086612701416, 1.7479132413864136, 7.294060230255127, -6.157998561859131, -4.480762958526611, -4.599862575531006, 0.5849609375, 0.171142578125, -0.724609375
494, 121432857, -6.000974655151367, 1.8256300687789917, 7.288712024688721, -6.497188091278076, -4.012371063232422, -4.9308295249938965, 0.57666015625, 0.1767578125, -0.730712890625
495, 121449524, -6.015683650970459, 1.8142584562301636, 7.278061389923096, -6.61399507522583, -3.2577314376831055, -5.491134166717529, 0.575439453125, 0.184814453125, -0.73486328125
496, 121466191, -5.98314905166626, 1.8880794048309326, 7.264336585998535, -6.603378772735596, -2.7792348861694336, -6.133731365203857, 0.57275390625, 0.1904296875, -0.735595703125
497, 121482858, -5.992379188537598, 1.7729154825210571, 7.273712635040283, -6.550835132598877, -2.147613048553467, -6.94264554977417, 0.5751953125, 0.196533203125, -0.736083984375
498, 121499525, -5.915130615234375, 1.8017045259475708, 7.259424209594727, -5.532831192016602, -0.47793304920196533, -6.969639301300049, 0.57861328125, 0.20166015625, -0.736572265625
499, 121516192, -5.833641052246094, 1.8432115316390991, 7.312666893005371, -4.487909317016602, 1.8203908205032349, -7.281768798828125, 0.5791015625, 0.203857421875, -0.737548828125
500, 121532859, -6.026727676391602, 1.8849356174468994, 7.280390739440918, -6.18435525894165, 4.443312644958496, -10.006117820739746, 0.577880859375, 0.2080078125, -0.732666015625
501, 121549526, -6.1026201248168945, 1.7270324230194092, 7.242646217346191, -8.307229995727539, 5.88812780380249, -12.480873107910156, 0.58154296875, 0.211669921875, -0.733154296875
502, 121566193, -6.021966934204102, 1.6737902164459229, 7.2184271812438965, -8.80264663696289, 8.511540412902832, -14.065871238708496, 0.583984375, 0.21728515625, -0.732666015625
503, 121582860, -5.999808311462402, 1.7610878944396973, 7.252964973449707, -9.15864372253418, 12.462655067443848, -16.324962615966797, 0.58544921875, 0.220947265625, -0.7294921875
504, 121599527, -5.991164684295654, 1.7238034009933472, 7.182531833648682, -9.173253059387207, 19.00007438659668, -18.963430404663086, 0.5869140625, 0.22705078125, -0.724853515625
505, 121616194, -5.9783616065979, 1.3923075199127197, 7.424688339233398, -5.7814788818359375, 29.75160789489746, -19.97255516052246, 0.593017578125, 0.231201171875, -0.71484375
506, 121632861, -6.0433125495910645, 1.3280980587005615, 7.4375739097595215, -2.0333707332611084, 43.57505416870117, -21.49571418762207, 0.598388671875, 0.23583984375, -0.70703125
507, 121649528, -6.013840198516846, 1.2492228746414185, 7.513408660888672, 0.5558931827545166, 59.16005325317383, -23.704322814941406, 0.605224609375, 0.240234375, -0.69677734375
508, 121666195, -5.556664943695068, 0.9691633582115173, 8.067062377929688, 8.714587211608887, 82.26856231689453, -26.14333152770996, 0.614990234375, 0.243896484375, -0.678466796875
509, 121682862, -5.8881025314331055, 1.161764144897461, 7.7218475341796875, 14.354122161865234, 111.1311264038086, -25.947551727294922, 0.626708984375, 0.248779296875, -0.6513671875
510, 121699529, -5.924363613128662, 1.237693190574646, 7.6760149002075195, 13.429509162902832, 140.9332275390625, -26.370662689208984, 0.642822265625, 0.251953125, -0.61962890625
511, 121716196, -6.237186431884766, 1.293889045715332, 7.656242370605469, 9.964367866516113, 173.98275756835938, -29.811010360717773, 0.660888671875, 0.258056640625, -0.57763671875
512, 121732863, -6.53960657119751, 1.3894845247268677, 7.616931438446045, -0.8774999976158142, 216.9457244873047, -37.149383544921875, 0.68017578125, 0.265380859375, -0.5234375
513, 121749530, -6.826236724853516, 2.0054712295532227, 7.375243663787842, -21.44997787475586, 271.95184326171875, -49.2061882019043, 0.701416015625, 0.278564453125, -0.4599609375
514, 121766197, -7.165704250335693, 2.6468355655670166, 6.948971748352051, -47.29574203491211, 345.0827331542969, -68.43914031982422, 0.721435546875, 0.29541015625, -0.373779296875
515, 121782864, -9.559693336486816, 2.2421908378601074, 7.031735897064209, -59.5411376953125, 423.84881591796875, -101.29248046875, 0.72998046875, 0.32080078125, -0.264404296875
516, 121799531, -12.676759719848633, 2.4807820320129395, 7.921421051025391, -51.0549430847168, 487.3460388183594, -130.51075744628906, 0.721923828125, 0.353759765625, -0.134521484375
517, 121816198, -20.857067108154297, 2.49937105178833, 8.889163970947266, -29.931215286254883, 478.5664367675781, -122.39390563964844, 0.696533203125, 0.38525390625, -0.0087890625
518, 121832865, -20.05160140991211, 0.5454433560371399, 9.117203712463379, 4.278992176055908, 454.0892639160156, -101.48780059814453, 0.658447265625, 0.406982421875, 0.10546875
519, 121849532, -21.029739379882812, 4.2580790519714355, 11.774541854858398, 23.881141662597656, 449.69427490234375, -102.1055679321289, 0.602294921875, 0.433349609375, 0.211669921875
520, 121866199, -20.936506271362305, 3.0550708770751953, 14.765692710876465, 24.228200912475586, 409.1796569824219, -111.28429412841797, 0.53955078125, 0.458740234375, 0.2978515625
521, 121882866, -14.278218269348145, 4.651075839996338, 17.990610122680664, 44.46995544433594, 300.7054138183594, -111.440185546875, 0.47607421875, 0.48779296875, 0.362060546875
522, 121899533, -18.378969192504883, 11.105109214782715, 19.686182022094727, 18.412900924682617, 128.73753356933594, -30.470754623413086, 0.435546875, 0.502685546875, 0.3916015625
523, 121916200, -14.205733299255371, 8.213622093200684, 18.88848304748535, -14.624787330627441, -148.8953857421875, 27.254276275634766, 0.455322265625, 0.497802734375, 0.376953125
524, 121932867, -6.4226603507995605, 3.4139411449432373, 11.976397514343262, -38.838157653808594, -252.10316467285156, 30.181673049926758, 0.501708984375, 0.482421875, 0.33349609375
525, 121949534, -1.6758694648742676, 1.2861026525497437, 6.937927722930908, -21.24329376220703, -258.73028564453125, 15.7046537399292, 0.54541015625, 0.477294921875, 0.275634765625
526, 121966201, -1.8762009143829346, 1.5718673467636108, 5.771825790405273, 5.538602828979492, -236.41659545898438, 5.490915298461914, 0.576904296875, 0.468505859375, 0.21923828125
527, 121982868, -4.268828868865967, 2.290637731552124, 6.921748161315918, 25.38039207458496, -237.4276580810547, 5.914348602294922, 0.601318359375, 0.46875, 0.162841796875
528, 121999535, -6.149243354797363, 2.4258980751037598, 7.79300594329834, 41.583885192871094, -275.3087158203125, 25.86388397216797, 0.62255859375, 0.4638671875, 0.101318359375
529, 122016202, -7.304623603820801, 2.7144935131073, 7.820183277130127, 50.14102554321289, -322.11065673828125, 60.1942138671875, 0.6484375, 0.454833984375, 0.030517578125
530, 122032869, -8.37612247467041, 2.647231101989746, 7.422983169555664, 43.67559814453125, -357.41217041015625, 92.60414123535156, 0.684326171875, 0.43359375, -0.05029296875
531, 122049536, -9.260872840881348, 1.7609844207763672, 6.860860824584961, 31.846662521362305, -376.5269470214844, 114.81619262695312, 0.718017578125, 0.41357421875, -0.1396484375
532, 122066203, -10.583733558654785, 0.9431056976318359, 7.0299482345581055, 25.70932960510254, -383.5621032714844, 125.76152801513672, 0.747802734375, 0.391357421875, -0.252197265625
533, 122082870, -11.591316223144531, 0.6989282369613647, 6.90146017074585, 24.01095962524414, -389.3969421386719, 126.41716003417969, 0.7578125, 0.34619140625, -0.381591796875
534, 122099537, -11.496491432189941, -0.5758720636367798, 6.383511066436768, 36.14064025878906, -373.26177978515625, 117.42829895019531, 0.73388671875, 0.298583984375, -0.502197265625
535, 122116204, -14.559865951538086, -1.2869679927825928, 8.36783504486084, 66.34477996826172, -339.03607177734375, 101.0858383178711, 0.695556640625, 0.250244140625, -0.602294921875
536, 122132871, -17.590709686279297, -0.42943352460861206, 10.415541648864746, 87.0591812133789, -328.1877136230469, 84.88565063476562, 0.645263671875, 0.21240234375, -0.6865234375
537, 122149538, -18.140579223632812, 0.802943766117096, 10.83961296081543, 90.78366088867188, -315.6108703613281, 72.76541137695312, 0.5869140625, 0.180419921875, -0.755126953125
538, 122166205, -21.734933853149414, -0.09005773067474365, 10.981287956237793, 96.86384582519531, -300.3737487792969, 68.32066345214844, 0.527587890625, 0.1513671875, -0.8115234375
539, 122182872, -23.157032012939453, -0.48278743028640747, 8.453215599060059, 109.14087677001953, -302.6066589355469, 69.78388977050781, 0.474365234375, 0.121826171875, -0.857177734375
540, 122199539, -22.74405860900879, -0.9410600066184998, 5.094539642333984, 103.38780212402344, -288.9605712890625, 67.9864501953125, 0.416259765625, 0.095458984375, -0.897216796875
541, 122216206, -23.13445472717285, -2.4894275665283203, 1.3090349435806274, 87.07797241210938, -268.5147705078125, 66.53621673583984, 0.365234375, 0.071044921875, -0.935791015625
542, 122232873, -22.141048431396484, -4.016885280609131, -4.575324535369873, 69.47909545898438, -235.51446533203125, 65.4229507446289, 0.317626953125, 0.04833984375, -0.967529296875
543, 122249540, -20.531211853027344, -4.625482082366943, -12.408853530883789, 32.265159606933594, -174.6908416748047, 62.75568389892578, 0.275634765625, 0.034423828125, -0.994384765625
544, 122266207, -20.311004638671875, -6.587512493133545, -17.001001358032227, -26.74108123779297, -66.3352279663086, 45.9224967956543, 0.25390625, 0.02880859375, -1.007080078125
545, 122282874, -22.09739112854004, -7.194979667663574, -14.648404121398926, -77.7919692993164, 31.97433853149414, 31.969575881958008, 0.255126953125, 0.043212890625, -1.0068359375
546, 122299541, -22.019664764404297, -5.524298191070557, -9.341296195983887, -128.9592742919922, 91.6853256225586, 34.27056121826172, 0.27392578125, 0.06494140625, -0.998046875
547, 122316208, -9.369948387145996, -3.8358757495880127, 16.229297637939453, -42.408546447753906, 56.364559173583984, 43.06163024902344, 0.28955078125, 0.0791015625, -0.988525390625
548, 122332875, 16.55124855041504, -0.7830380201339722, 13.14306354522705, 3.9592068195343018, 206.48153686523438, -11.554997444152832, 0.317626953125, 0.074462890625, -0.964599609375
549, 122349542, -9.604680061340332, 4.904958724975586, 10.74139404296875, -3.7378578186035156, 372.8885192871094, -71.31480407714844, 0.39306640625, 0.085693359375, -0.90234375
550, 122366209, -24.736780166625977, -2.8578133583068848, 5.764686107635498, 0.42826834321022034, 265.6837463378906, -21.88703727722168, 0.451416015625, 0.09130859375, -0.846435546875
551, 122382876, -12.71884536743164, 1.5350843667984009, 11.07097053527832, 32.276580810546875, 194.8274688720703, -14.34953784942627, 0.48583984375, 0.086669921875, -0.80419921875
552, 122399543, -9.194047927856445, 6.774392127990723, 7.511792182922363, 25.958473205566406, 179.05471801757812, 1.4545401334762573, 0.515869140625, 0.08251953125, -0.767333984375
553, 122416210, -12.034862518310547, 2.7222061157226562, 10.3955659866333, -5.721140384674072, 147.84068298339844, -2.1860716342926025, 0.54052734375, 0.079833984375, -0.732666015625
554, 122432877, -14.31528091430664, 5.14310884475708, 8.147968292236328, -36.8704833984375, 86.09300994873047, -12.447894096374512, 0.554931640625, 0.08984375, -0.7119140625
555, 122449544, -10.172004699707031, 0.05002886429429054, 8.975808143615723, -25.96931266784668, 42.30884552001953, -11.510272979736328, 0.56494140625, 0.094482421875, -0.7021484375
556, 122466211, -7.766385555267334, 2.67612886428833, 7.385486125946045, -17.581682205200195, 20.26508903503418, -9.244379043579102, 0.56689453125, 0.099609375, -0.698486328125
557, 122482878, -7.301870346069336, 1.9954946041107178, 7.447047233581543, -12.295132637023926, 8.092820167541504, -9.277594566345215, 0.568359375, 0.100830078125, -0.70068359375
558, 122499545, -6.3470258712768555, 2.0677237510681152, 7.40867280960083, -7.5256171226501465, 5.165462493896484, -7.956448078155518, 0.5703125, 0.10400390625, -0.699951171875
559, 122516212, -5.962886333465576, 2.427454948425293, 7.201620101928711, -3.8575687408447266, 8.332409858703613, -8.398548126220703, 0.57177734375, 0.108642578125, -0.695068359375
560, 122532879, -6.598569393157959, 2.2434773445129395, 7.011841773986816, -0.37476521730422974, 9.288764953613281, -6.793734073638916, 0.572998046875, 0.108642578125, -0.69091796875
561, 122549546, -6.51570987701416, 2.0439958572387695, 7.007613658905029, 2.5161218643188477, 8.220455169677734, -3.538562059402466, 0.572998046875, 0.1064453125, -0.69140625
562, 122566213, -6.498055934906006, 2.0391275882720947, 6.929854869842529, 4.938175678253174, 7.184075832366943, -0.21042120456695557, 0.577392578125, 0.109130859375, -0.6904296875
563, 122582880, -6.318680763244629, 2.4684410095214844, 6.923187732696533, 4.946505546569824, 6.04287052154541, 0.5097057223320007, 0.575927734375, 0.110107421875, -0.689453125
564, 122599547, -6.174950122833252, 2.9367105960845947, 6.776587009429932, 1.5901966094970703, 5.125274658203125, -2.380405902862549, 0.574462890625, 0.109619140625, -0.68994140625
565, 122616214, -6.136163711547852, 2.932649850845337, 6.775035381317139, -3.592144250869751, 3.422811985015869, -8.048871994018555, 0.576416015625, 0.1142578125, -0.69140625
566, 122632881, -6.143458366394043, 2.8290631771087646, 6.774723052978516, -8.333765983581543, 1.9082695245742798, -13.227217674255371, 0.585205078125, 0.12451171875, -0.69091796875
567, 122649548, -6.295928478240967, 2.3515613079071045, 6.88221549987793, -11.052329063415527, 1.365293025970459, -15.318449974060059, 0.606201171875, 0.120361328125, -0.678466796875
568, 122666215, -6.371976852416992, 2.1106674671173096, 6.929152488708496, -11.019554138183594, 1.602671504020691, -14.113879203796387, 0.59765625, 0.092529296875, -0.6767578125
569, 122682882, -6.454203128814697, 1.9620527029037476, 6.955867767333984, -7.6367506980896, 2.5732903480529785, -10.247980117797852, 0.57666015625, 0.10205078125, -0.687744140625
570, 122699549, -6.25158166885376, 2.251161575317383, 7.029779434204102, -6.6646318435668945, 3.740332841873169, -7.36794376373291, 0.574951171875, 0.1171875, -0.686279296875
571, 122716216, -6.162739276885986, 2.4715137481689453, 6.942967891693115, -7.281026840209961, 4.742948532104492, -5.576616287231445, 0.57666015625, 0.125, -0.683349609375
572, 122732883, -6.150131702423096, 2.2202019691467285, 6.965861797332764, -10.18499755859375, 6.310351371765137, -5.302702903747559, 0.580810546875, 0.128173828125, -0.6806640625
573, 122749550, -5.949062824249268, 2.1700692176818848, 7.03858757019043, -19.168228149414062, 11.940442085266113, -11.196167945861816, 0.58056640625, 0.134765625, -0.67822265625
574, 122766217, -6.214359760284424, 2.2155661582946777, 7.0342583656311035, -26.5060977935791, 21.50263786315918, -19.51529312133789, 0.586181640625, 0.1416015625, -0.67431640625
575, 122782884, -6.271357536315918, 1.9103076457977295, 7.117703914642334, -20.010330200195312, 34.68805694580078, -21.234394073486328, 0.589111328125, 0.147705078125, -0.669189453125
576, 122799551, -5.921425819396973, 1.7424356937408447, 7.391903877258301, -9.312819480895996, 54.3100471496582, -23.945232391357422, 0.59423828125, 0.156005859375, -0.658447265625
577, 122816218, -5.347931861877441, 1.9830632209777832, 7.700613498687744, 12.728669166564941, 86.57171630859375, -33.23222351074219, 0.60693359375, 0.162353515625, -0.640625
578, 122832885, -5.8028459548950195, 1.6987189054489136, 7.285486698150635, 18.55286407470703, 133.1091766357422, -40.31689453125, 0.618408203125, 0.168212890625, -0.604248046875
579, 122849552, -5.895452499389648, 1.4743947982788086, 7.53839635848999, 23.579254150390625, 181.25148010253906, -38.47491455078125, 0.640869140625, 0.174072265625, -0.56884765625
580, 122866219, -5.989981651306152, 1.383837103843689, 7.660914897918701, 22.493383407592773, 239.6141357421875, -33.78285598754883, 0.660400390625, 0.1806640625, -0.510009765625
581, 122882886, -6.030719757080078, 1.2304987907409668, 8.21973991394043, 12.433897972106934, 315.0766906738281, -32.77924728393555, 0.682861328125, 0.187744140625, -0.4365234375
582, 122899553, -7.7742838859558105, 3.4445414543151855, 9.07177734375, -19.560359954833984, 427.6493225097656, -37.58477783203125, 0.702392578125, 0.1923828125, -0.33251953125
583, 122916220, -11.036808013916016, 3.393083333969116, 9.519410133361816, -21.720027923583984, 530.540283203125, -80.33912658691406, 0.713134765625, 0.2099609375, -0.1982421875
584, 122932887, -18.95465660095215, 3.3793678283691406, 9.714107513427734, 19.075695037841797, 571.1641235351562, -74.7298583984375, 0.701416015625, 0.23095703125, -0.053466796875
585, 122949554, -22.15451431274414, 3.898200511932373, 12.159029960632324, 43.11714553833008, 538.5597534179688, -59.60633087158203, 0.661376953125, 0.248046875, 0.0849609375
586, 122966221, -25.521596908569336, 5.389059066772461, 12.5740385055542, 35.63013458251953, 508.2263488769531, -84.69559478759766, 0.60791015625, 0.26904296875, 0.204345703125
587, 122982888, -21.146831512451172, 3.9499478340148926, 17.802383422851562, 30.969764709472656, 456.80877685546875, -125.05638122558594, 0.54248046875, 0.299072265625, 0.30615234375
588, 122999555, -12.657485961914062, 5.6464080810546875, 21.99062156677246, 41.926639556884766, 365.6493225097656, -136.3941192626953, 0.473876953125, 0.33251953125, 0.38427734375
589, 123016222, -22.96443748474121, 10.901569366455078, 25.816041946411133, 40.385276794433594, 180.66419982910156, -73.23900604248047, 0.42236328125, 0.361083984375, 0.428466796875
590, 123032889, -16.41791534423828, 9.347447395324707, 25.058094024658203, -10.032123565673828, -181.3146514892578, -4.885538101196289, 0.440673828125, 0.366455078125, 0.41015625
591, 123049556, -7.241333484649658, 2.4630424976348877, 15.372742652893066, -40.89693069458008, -349.1334228515625, -17.450855255126953, 0.49658203125, 0.363037109375, 0.350830078125
592, 123066223, -0.5704504251480103, 0.027912748977541924, 7.567297458648682, -24.736377716064453, -369.0731506347656, -56.02717590332031, 0.556396484375, 0.368408203125, 0.277099609375
593, 123082890, -0.9093283414840698, 0.8494269847869873, 5.289902687072754, 12.187272071838379, -339.3468017578125, -81.54014587402344, 0.601806640625, 0.390380859375, 0.2001953125
594, 123099557, -5.420271873474121, 2.761183261871338, 6.455742359161377, 38.8322868347168, -334.21466064453125, -79.34127044677734, 0.635009765625, 0.413818359375, 0.125244140625
595, 123116224, -7.919652938842773, 5.49272346496582, 7.018705368041992, 46.10079574584961, -382.056884765625, -53.913963317871094, 0.663330078125, 0.430908203125, 0.035400390625
596, 123132891, -8.562054634094238, 7.634954452514648, 6.095303058624268, 23.562076568603516, -424.87451171875, -15.907893180847168, 0.690673828125, 0.436279296875, -0.0634765625
597, 123149558, -9.155643463134766, 7.301052093505859, 4.74340295791626, 0.24560362100601196, -433.8148193359375, 26.17113494873047, 0.710205078125, 0.43994140625, -0.1650390625
598, 123166225, -9.348176002502441, 6.170870304107666, 4.05341100692749, -0.9944756627082825, -416.5917053222656, 70.96988677978516, 0.729248046875, 0.443115234375, -0.2783203125
599, 123182892, -10.233707427978516, 5.82326078414917, 4.581071376800537, 14.542415618896484, -386.4085388183594, 107.2372055053711, 0.72412109375, 0.421875, -0.397705078125
600, 123199559, -11.55253791809082, 5.300419330596924, 5.091136455535889, 30.916906356811523, -348.3388977050781, 127.56194305419922, 0.7099609375, 0.3876953125, -0.4990234375
601, 123216226, -14.790451049804688, 4.835123538970947, 7.2123003005981445, 41.23200988769531, -304.8704833984375, 131.76194763183594, 0.686767578125, 0.349365234375, -0.584716796875
602, 123232893, -19.745187759399414, 4.61042594909668, 10.74382495880127, 45.02881622314453, -294.446044921875, 126.26168823242188, 0.66162109375, 0.312744140625, -0.666259765625
603, 123249560, -22.047941207885742, 3.8507511615753174, 12.606758117675781, 53.80620193481445, -313.9752502441406, 124.0980224609375, 0.619384765625, 0.277587890625, -0.7490234375
604, 123266227, -22.918943405151367, 1.689941167831421, 11.088576316833496, 72.299560546875, -332.5927734375, 125.96452331542969, 0.5625, 0.23828125, -0.829345703125
605, 123282894, -23.391555786132812, -2.213975667953491, 7.400118350982666, 110.97930145263672, -324.9735412597656, 127.7928695678711, 0.500244140625, 0.19384765625, -0.8994140625
606, 123299561, -24.682844161987305, -3.083153247833252, 4.28456974029541, 132.08949279785156, -301.7269592285156, 111.65238952636719, 0.431640625, 0.14501953125, -0.954833984375
607, 123316228, -26.271772384643555, -4.273247241973877, -0.827133059501648, 117.91480255126953, -269.3219909667969, 84.21028900146484, 0.36572265625, 0.102294921875, -0.999267578125
608, 123332895, -24.877361297607422, -5.68506383895874, -11.276115417480469, 107.92386627197266, -218.75283813476562, 37.04793930053711, 0.309814453125, 0.071044921875, -1.03173828125
609, 123349562, -24.83135414123535, -8.257927894592285, -17.78829002380371, 130.2748565673828, -112.48564147949219, 3.0193798542022705, 0.27392578125, 0.041015625, -1.04296875
610, 123366229, -25.256208419799805, -5.303099155426025, -18.3559627532959, 118.18242645263672, -23.530941009521484, 5.663930892944336, 0.2607421875, 0.010009765625, -1.042236328125
611, 123382896, -22.762081146240234, -1.5704545974731445, -15.493298530578613, -1.5250296592712402, 72.39910888671875, 20.30465316772461, 0.26611328125, 4.8828125E-4, -1.032470703125
612, 123399563, -20.840158462524414, -0.2799241840839386, -3.4007668495178223, -126.21096801757812, 141.42884826660156, 31.839214324951172, 0.294189453125, 0.020751953125, -1.020751953125
613, 123416230, -0.662217378616333, 0.9725141525268555, 31.526004791259766, -153.80445861816406, 65.57097625732422, 59.314422607421875, 0.30419921875, 0.050537109375, -1.019775390625
614, 123432897, 15.912481307983398, -12.970002174377441, 8.720911979675293, -84.26580810546875, 281.4615173339844, -20.764135360717773, 0.35009765625, 0.067138671875, -0.982177734375
615, 123449564, -25.757244110107422, -10.877751350402832, 10.951622009277344, -52.75560760498047, 283.6210021972656, -89.88755798339844, 0.4140625, 0.098876953125, -0.935546875
616, 123466231, -13.702911376953125, 0.46589162945747375, 7.331038475036621, 13.055408477783203, 224.0626983642578, -44.38603210449219, 0.460693359375, 0.105224609375, -0.890869140625
617, 123482898, -13.550254821777344, 7.235595703125, 10.045453071594238, 3.139016628265381, 183.70166015625, -32.581050872802734, 0.495361328125, 0.109375, -0.8544921875
618, 123499565, -9.042510986328125, 2.5091612339019775, 8.152776718139648, -11.055542945861816, 161.04302978515625, -30.498998641967773, 0.526123046875, 0.118408203125, -0.821044921875
619, 123516232, -12.418458938598633, 4.30438232421875, 9.651350975036621, -27.7803955078125, 129.4358367919922, -30.884613037109375, 0.549560546875, 0.1259765625, -0.7958984375
620, 123532899, -13.779050827026367, 1.9491031169891357, 10.041377067565918, -55.107601165771484, 74.05862426757812, -31.982257843017578, 0.5615234375, 0.14111328125, -0.778564453125
621, 123549566, -8.751128196716309, -0.07996995747089386, 8.158208847045898, -29.790771484375, 23.549257278442383, -20.266769409179688, 0.568115234375, 0.150390625, -0.7734375
622, 123566233, -7.445798397064209, 1.9097583293914795, 7.632709503173828, -20.820350646972656, 10.607502937316895, -14.16245174407959, 0.57080078125, 0.15869140625, -0.774169921875
623, 123582900, -6.719033718109131, 1.5978952646255493, 7.444137096405029, -10.654097557067871, 4.7283711433410645, -9.298186302185059, 0.57275390625, 0.163330078125, -0.77197265625
624, 123599567, -6.284171104431152, 1.8332805633544922, 7.458682060241699, -3.6380043029785156, 7.941612243652344, -6.2220964431762695, 0.57080078125, 0.1630859375, -0.771484375
625, 123616234, -6.308197975158691, 1.8036161661148071, 7.244697570800781, -0.3714867830276489, 9.593964576721191, -4.708423614501953, 0.57421875, 0.166748046875, -0.767578125
626, 123632901, -6.386266231536865, 1.9373500347137451, 7.095578193664551, 0.25685063004493713, 9.217456817626953, -3.7000885009765625, 0.575439453125, 0.166259765625, -0.766357421875
627, 123649568, -6.3840131759643555, 2.0357682704925537, 7.0141754150390625, -2.272256374359131, 6.077183723449707, -4.089337348937988, 0.578369140625, 0.16796875, -0.765380859375
628, 123666235, -6.292835712432861, 2.353677988052368, 7.053736209869385, -7.809250831604004, 1.0503066778182983, -6.1261372566223145, 0.576904296875, 0.1689453125, -0.766357421875
629, 123682902, -6.2411885261535645, 2.1989834308624268, 7.1321282386779785, -14.088500022888184, -2.1374335289001465, -9.600854873657227, 0.57568359375, 0.175537109375, -0.7685546875
630, 123699569, -6.433272361755371, 1.7284225225448608, 7.098983287811279, -16.27185821533203, -3.299560785293579, -10.889280319213867, 0.577880859375, 0.183349609375, -0.7705078125
631, 123716236, -6.3002119064331055, 1.4155519008636475, 7.204339027404785, -12.436436653137207, -1.7339047193527222, -8.822110176086426, 0.58642578125, 0.194091796875, -0.77001953125
632, 123732903, -6.218206405639648, 1.484038233757019, 7.192763328552246, -7.2511372566223145, 3.6110522747039795, -6.812339782714844, 0.603515625, 0.176025390625, -0.76171875
633, 123749570, -6.149909973144531, 1.6500693559646606, 7.226169586181641, -5.809014797210693, 8.135685920715332, -7.403047561645508, 0.583251953125, 0.15771484375, -0.76318359375
634, 123766237, -6.118679046630859, 2.3775315284729004, 7.122802257537842, -9.700553894042969, 12.489761352539062, -13.15833854675293, 0.578125, 0.176025390625, -0.764404296875
635, 123782904, -6.245837688446045, 2.207163095474243, 7.1206746101379395, -11.545302391052246, 17.33791160583496, -18.835168838500977, 0.57958984375, 0.18994140625, -0.759033203125
636, 123799571, -6.2713751792907715, 1.5901168584823608, 7.158126354217529, -9.489678382873535, 21.953388214111328, -19.689369201660156, 0.581298828125, 0.19921875, -0.75634765625
637, 123816238, -6.158777713775635, 1.176579236984253, 7.284027099609375, -6.255177974700928, 30.949817657470703, -20.264293670654297, 0.587646484375, 0.20556640625, -0.74365234375
638, 123832905, -5.984731674194336, 0.9347137808799744, 7.301797866821289, 0.0032336339354515076, 47.090694427490234, -21.936859130859375, 0.593017578125, 0.208251953125, -0.734375
639, 123849572, -5.232021331787109, 1.5241914987564087, 7.928753852844238, 8.651270866394043, 77.51753234863281, -28.619213104248047, 0.604248046875, 0.212890625, -0.72119140625
640, 123866239, -5.996084690093994, 1.5871464014053345, 7.546382427215576, 14.218350410461426, 112.37993621826172, -36.08185958862305, 0.619140625, 0.21875, -0.697998046875
641, 123882906, -6.069015979766846, 1.292933702468872, 7.591513633728027, 15.587698936462402, 146.27349853515625, -40.528385162353516, 0.63525390625, 0.22412109375, -0.6591796875
642, 123899573, -6.322896957397461, 0.6854531168937683, 7.757854461669922, 12.734850883483887, 185.2106475830078, -42.2660026550293, 0.657958984375, 0.23583984375, -0.61669921875
643, 123916240, -6.387551307678223, 0.6974518895149231, 7.6327595710754395, 8.83512020111084, 236.23471069335938, -46.155399322509766, 0.6826171875, 0.240966796875, -0.559814453125
644, 123932907, -6.246735572814941, 0.8794315457344055, 7.7419514656066895, -0.031591176986694336, 306.064697265625, -50.37785339355469, 0.70458984375, 0.254150390625, -0.48681640625
645, 123949574, -7.864710330963135, 1.504188060760498, 7.69464111328125, -22.059371948242188, 410.88006591796875, -52.05942916870117, 0.72802734375, 0.266845703125, -0.385009765625
646, 123966241, -8.990541458129883, 3.528125047683716, 8.919506072998047, -45.358646392822266, 527.1317749023438, -72.95787811279297, 0.743408203125, 0.2841796875, -0.249755859375
647, 123982908, -20.584362030029297, 3.3752963542938232, 9.415844917297363, -15.444186210632324, 567.1981201171875, -87.36268615722656, 0.7314453125, 0.30517578125, -0.0947265625
648, 123999575, -23.366243362426758, 2.447474956512451, 11.726808547973633, 26.568265914916992, 531.3897705078125, -74.13775634765625, 0.69775390625, 0.325927734375, 0.042236328125
649, 124016242, -24.398008346557617, 7.007931709289551, 13.772010803222656, 21.49786949157715, 517.2513427734375, -103.4094009399414, 0.640869140625, 0.348388671875, 0.169677734375
650, 124032909, -23.67911148071289, 3.7885255813598633, 17.587543487548828, 23.87201499938965, 465.7090148925781, -134.66424560546875, 0.5703125, 0.378173828125, 0.2783203125
651, 124049576, -15.388463973999023, 4.123196601867676, 21.4871768951416, 54.72554016113281, 343.7416076660156, -133.24742126464844, 0.497802734375, 0.41015625, 0.35498046875
652, 124066243, -22.124834060668945, 7.631048679351807, 23.326770782470703, 93.10186004638672, 163.18466186523438, -66.28075408935547, 0.444091796875, 0.442138671875, 0.3916015625
653, 124082910, -16.745973587036133, 9.989974021911621, 22.310585021972656, 65.6019515991211, -159.3125, -0.1233508288860321, 0.450439453125, 0.458740234375, 0.369140625
654, 124099577, -7.654836654663086, 6.390928268432617, 13.767424583435059, 4.38126802444458, -293.79119873046875, 13.4915132522583, 0.4912109375, 0.45654296875, 0.31640625
655, 124116244, -1.5967789888381958, 3.822091817855835, 7.397176265716553, -29.752355575561523, -308.11444091796875, 5.223150253295898, 0.530029296875, 0.451416015625, 0.258056640625
656, 124132911, -0.9895567893981934, 2.650433301925659, 5.283269882202148, -35.04270935058594, -285.0093078613281, -2.3780877590179443, 0.569091796875, 0.447265625, 0.205078125
657, 124149578, -3.048389434814453, 2.583648920059204, 5.690839767456055, -22.533628463745117, -278.42340087890625, 2.228027582168579, 0.59521484375, 0.44189453125, 0.142578125
658, 124166245, -4.9132256507873535, 2.731215000152588, 6.4233479499816895, -4.182471752166748, -303.42315673828125, 22.486064910888672, 0.619384765625, 0.432373046875, 0.07958984375
659, 124182912, -6.657306671142578, 3.291367292404175, 6.899052619934082, 8.606181144714355, -338.0352478027344, 50.96097183227539, 0.638916015625, 0.419677734375, 0.00634765625
660, 124199579, -8.742046356201172, 3.598737955093384, 7.068861961364746, 6.858758449554443, -375.47674560546875, 76.72566986083984, 0.66064453125, 0.402587890625, -0.064453125
