sep=,
DeviceTag:,A,,,,,,,,,,,,,,,,,
FirmwareVersion:,2.2.1,,,,,,,,,,,,,,,,,
AppVersion:,2023.6.1,,,,,,,,,,,,,,,,,
SyncStatus:,Synced,,,,,,,,,,,,,,,,,
OutputRate:,60Hz,,,,,,,,,,,,,,,,,
FilterProfile:,General,,,,,,,,,,,,,,,,,
Measurement Mode:,Inertial Mode - Rate quantities (with mag),,,,,,,,,,,,,,,,,
StartTime:,2023-12-07 13:30:19.333 +0200,,,,,,,,,,,,,,,,,
 2023,,,,,,,,,,,,,,,,,,,

PacketCounter,SampleTimeFine,Acc_X,Acc_Y,Acc_Z,Gyr_X,Gyr_Y,Gyr_Z,Mag_X,Mag_Y,Mag_Z
1, 3857972318, -6.828300476074219, -0.9388244152069092, 7.074512481689453, -2.5731029510498047, -1.4904671907424927, -2.306999921798706, 1.11865234375, -0.385498046875, 0.0654296875
2, 3857988985, -6.834914684295654, -0.9295125007629395, 7.094494819641113, -2.558708906173706, -1.4107604026794434, -2.3745791912078857, 1.12109375, -0.386962890625, 0.066162109375
3, 3858005652, -6.833221912384033, -0.931359589099884, 7.094848155975342, -2.597947120666504, -1.3589842319488525, -2.2773659229278564, 1.1220703125, -0.386474609375, 0.064453125
4, 3858022319, -6.856323719024658, -0.944397509098053, 7.084400177001953, -2.6410796642303467, -1.3911540508270264, -2.4026381969451904, 1.12060546875, -0.385009765625, 0.06494140625
5, 3858038986, -6.847973823547363, -0.9497337937355042, 7.086408615112305, -2.56844162940979, -1.413027048110962, -2.413292646408081, 1.12060546875, -0.38916015625, 0.066162109375
6, 3858055653, -6.834953308105469, -0.9299877285957336, 7.09385871887207, -2.5117506980895996, -1.368212342262268, -2.386909008026123, 1.11962890625, -0.386474609375, 0.06640625
7, 3858072320, -6.854521751403809, -0.9408576488494873, 7.088644981384277, -2.6341636180877686, -1.4345160722732544, -2.3120839595794678, 1.119140625, -0.386962890625, 0.067138671875
8, 3858088987, -6.837193965911865, -0.9277639985084534, 7.100260257720947, -2.6318719387054443, -1.4215947389602661, -2.4807186126708984, 1.1220703125, -0.385009765625, 0.06591796875
9, 3858105654, -6.835114002227783, -0.9343153834342957, 7.081647872924805, -2.6728265285491943, -1.3917303085327148, -2.4698331356048584, 1.1181640625, -0.3876953125, 0.06494140625
10, 3858122321, -6.841190338134766, -0.937210202217102, 7.099385738372803, -2.6629526615142822, -1.4171509742736816, -2.441441297531128, 1.1201171875, -0.387451171875, 0.064453125
11, 3858138988, -6.8502888679504395, -0.9554669260978699, 7.094730854034424, -2.619910717010498, -1.4357713460922241, -2.519777774810791, 1.12158203125, -0.387451171875, 0.067138671875
12, 3858155655, -6.837792873382568, -0.9576729536056519, 7.079198837280273, -2.585960865020752, -1.4025003910064697, -2.485713005065918, 1.11962890625, -0.384521484375, 0.06640625
13, 3858172322, -6.838612079620361, -0.9422745704650879, 7.087754726409912, -2.548668622970581, -1.4397540092468262, -2.4283533096313477, 1.119140625, -0.385498046875, 0.06689453125
14, 3858188989, -6.859260559082031, -0.9302264451980591, 7.0726141929626465, -2.5339930057525635, -1.383086085319519, -2.4974305629730225, 1.11962890625, -0.386962890625, 0.06591796875
15, 3858205656, -6.840296745300293, -0.946448564529419, 7.082536697387695, -2.523235559463501, -1.5288095474243164, -2.437701940536499, 1.12158203125, -0.386474609375, 0.066650390625
16, 3858222323, -6.836418628692627, -0.9465370178222656, 7.083564281463623, -2.496469736099243, -1.4762520790100098, -2.4112050533294678, 1.12060546875, -0.385498046875, 0.0654296875
17, 3858238990, -6.853238105773926, -0.943899929523468, 7.089200496673584, -2.4830360412597656, -1.4239252805709839, -2.412357807159424, 1.1201171875, -0.386474609375, 0.067626953125
18, 3858255657, -6.847553253173828, -0.9581518769264221, 7.06402587890625, -2.549872398376465, -1.4832956790924072, -2.4585633277893066, 1.1201171875, -0.385498046875, 0.068115234375
19, 3858272324, -6.854314804077148, -0.9517574310302734, 7.068418979644775, -2.604325294494629, -1.4851268529891968, -2.39042067527771, 1.123046875, -0.385498046875, 0.067138671875
20, 3858288991, -6.840173244476318, -0.9540860652923584, 7.0710248947143555, -2.5176258087158203, -1.490889549255371, -2.334033966064453, 1.1201171875, -0.385498046875, 0.06591796875
21, 3858305658, -6.838347434997559, -0.9431921243667603, 7.074656963348389, -2.408003807067871, -1.5445483922958374, -2.3342905044555664, 1.1201171875, -0.384521484375, 0.06640625
22, 3858322325, -6.860916614532471, -0.9540772438049316, 7.0845561027526855, -2.5325326919555664, -1.49566650390625, -2.2906334400177, 1.119140625, -0.386962890625, 0.066650390625
23, 3858338992, -6.854519367218018, -0.9473533034324646, 7.069418907165527, -2.546325206756592, -1.453149437904358, -2.4195806980133057, 1.12255859375, -0.385986328125, 0.067138671875
24, 3858355659, -6.845925331115723, -0.9632096290588379, 7.094616413116455, -2.4217190742492676, -1.5947492122650146, -2.3617470264434814, 1.1181640625, -0.3876953125, 0.067138671875
25, 3858372326, -6.852476596832275, -0.9465128183364868, 7.0772294998168945, -2.398744583129883, -1.612242579460144, -2.4187095165252686, 1.12158203125, -0.383056640625, 0.06640625
26, 3858388993, -6.839567184448242, -0.951285719871521, 7.087204933166504, -2.439443826675415, -1.6686804294586182, -2.4860074520111084, 1.12158203125, -0.386474609375, 0.06591796875
27, 3858405660, -6.853921413421631, -0.959861159324646, 7.100674629211426, -2.49565052986145, -1.5962990522384644, -2.3991036415100098, 1.12158203125, -0.386962890625, 0.06591796875
28, 3858422327, -6.853171348571777, -0.9567143321037292, 7.08552360534668, -2.573026418685913, -1.600371241569519, -2.474968194961548, 1.11865234375, -0.385986328125, 0.06591796875
29, 3858438994, -6.842215061187744, -0.9674762487411499, 7.073721885681152, -2.5193545818328857, -1.543203592300415, -2.3651280403137207, 1.12060546875, -0.384521484375, 0.069091796875
30, 3858455661, -6.835789203643799, -0.9594519734382629, 7.062199115753174, -2.473264694213867, -1.4812078475952148, -2.3248260021209717, 1.11962890625, -0.384521484375, 0.067138671875
31, 3858472328, -6.848392009735107, -0.9515335559844971, 7.074479579925537, -2.449265956878662, -1.5521808862686157, -2.3347129821777344, 1.1201171875, -0.385009765625, 0.066650390625
32, 3858488995, -6.844882488250732, -0.9632124900817871, 7.080679416656494, -2.4438741207122803, -1.4856903553009033, -2.3559205532073975, 1.12109375, -0.384521484375, 0.06591796875
33, 3858505662, -6.857715129852295, -0.9517930150032043, 7.08986759185791, -2.4381113052368164, -1.6264450550079346, -2.3046436309814453, 1.12158203125, -0.385498046875, 0.066162109375
34, 3858522329, -6.837043762207031, -0.9494774341583252, 7.088198184967041, -2.4305813312530518, -1.5631047487258911, -2.3376200199127197, 1.1201171875, -0.386474609375, 0.06640625
35, 3858538996, -6.828402042388916, -0.9718807935714722, 7.083950519561768, -2.4944214820861816, -1.5139925479888916, -2.4648513793945312, 1.12109375, -0.384521484375, 0.067626953125
36, 3858555663, -6.853219032287598, -0.9652004241943359, 7.0702433586120605, -2.4635961055755615, -1.6379706859588623, -2.2870607376098633, 1.12109375, -0.384033203125, 0.069580078125
37, 3858572330, -6.847935199737549, -0.9504592418670654, 7.094701290130615, -2.480398178100586, -1.5540889501571655, -2.2763671875, 1.119140625, -0.385009765625, 0.0654296875
38, 3858588997, -6.846813678741455, -0.9649125933647156, 7.096405506134033, -2.3970415592193604, -1.590202808380127, -2.2621009349823, 1.12109375, -0.385009765625, 0.06591796875
39, 3858605664, -6.837882041931152, -0.9469476342201233, 7.072303771972656, -2.3627207279205322, -1.6720868349075317, -2.321599245071411, 1.12060546875, -0.384033203125, 0.06591796875
40, 3858622331, -6.84113073348999, -0.9477155804634094, 7.066071033477783, -2.306128978729248, -1.5749762058258057, -2.271974563598633, 1.119140625, -0.384521484375, 0.067626953125
41, 3858638998, -6.842854976654053, -0.9515228867530823, 7.085080623626709, -2.3748481273651123, -1.5142357349395752, -2.320805311203003, 1.11962890625, -0.385009765625, 0.06494140625
42, 3858655665, -6.8399763107299805, -0.9536765813827515, 7.105588436126709, -2.295464515686035, -1.5796068906784058, -2.3292458057403564, 1.1201171875, -0.384033203125, 0.06640625
43, 3858672332, -6.834470272064209, -0.949340283870697, 7.082793712615967, -2.371185064315796, -1.494667410850525, -2.3073582649230957, 1.12060546875, -0.383056640625, 0.06591796875
44, 3858688999, -6.838943004608154, -0.9510182738304138, 7.103259563446045, -2.4318490028381348, -1.5951205492019653, -2.329244613647461, 1.1201171875, -0.385986328125, 0.06640625
45, 3858705666, -6.836438179016113, -0.9507576823234558, 7.081178188323975, -2.3709805011749268, -1.60897696018219, -2.195495128631592, 1.12060546875, -0.385009765625, 0.06591796875
46, 3858722333, -6.83799934387207, -0.9605278968811035, 7.079300403594971, -2.3693795204162598, -1.6101680994033813, -2.2712576389312744, 1.12158203125, -0.385009765625, 0.067626953125
47, 3858739000, -6.840077877044678, -0.9492849111557007, 7.068149566650391, -2.446307420730591, -1.6471529006958008, -2.181689739227295, 1.119140625, -0.385009765625, 0.067138671875
48, 3858755667, -6.841001033782959, -0.9456970691680908, 7.101291656494141, -2.418991804122925, -1.514299750328064, -2.29129958152771, 1.11962890625, -0.385986328125, 0.068115234375
49, 3858772334, -6.842771530151367, -0.9656543731689453, 7.0736002922058105, -2.3952224254608154, -1.5066540241241455, -2.291440010070801, 1.118896484375, -0.383056640625, 0.06640625
50, 3858789001, -6.844483852386475, -0.9498926401138306, 7.073612213134766, -2.3723506927490234, -1.58376145362854, -2.2043187618255615, 1.119140625, -0.383544921875, 0.06640625
51, 3858805668, -6.8405351638793945, -0.9541351795196533, 7.063319206237793, -2.413266897201538, -1.5319085121154785, -2.163402557373047, 1.12060546875, -0.385498046875, 0.06494140625
52, 3858822335, -6.837703704833984, -0.9519938826560974, 7.108717441558838, -2.441274642944336, -1.585208535194397, -2.289608955383301, 1.12158203125, -0.383056640625, 0.0654296875
53, 3858839002, -6.833034038543701, -0.950468122959137, 7.092068672180176, -2.3843884468078613, -1.4762903451919556, -2.206444501876831, 1.12109375, -0.385009765625, 0.06591796875
54, 3858855669, -6.838817596435547, -0.9578782916069031, 7.0649495124816895, -2.471958875656128, -1.4707964658737183, -2.2240917682647705, 1.123046875, -0.384033203125, 0.066650390625
55, 3858872336, -6.845980167388916, -0.9382801651954651, 7.083977222442627, -2.445641279220581, -1.4232465028762817, -2.232710361480713, 1.1201171875, -0.385986328125, 0.067626953125
56, 3858889003, -6.828882217407227, -0.9584228992462158, 7.082265853881836, -2.4259192943573, -1.5103423595428467, -2.3608248233795166, 1.12255859375, -0.383056640625, 0.0654296875
57, 3858905670, -6.846210479736328, -0.9527705311775208, 7.079437732696533, -2.411076784133911, -1.6283528804779053, -2.1798582077026367, 1.12158203125, -0.383544921875, 0.06640625
58, 3858922337, -6.852941513061523, -0.9411283731460571, 7.090102195739746, -2.404341220855713, -1.640916109085083, -2.264777421951294, 1.1220703125, -0.384521484375, 0.06396484375
59, 3858939004, -6.835768699645996, -0.9661456346511841, 7.085629940032959, -2.3958377838134766, -1.6331043243408203, -2.262446880340576, 1.1201171875, -0.386474609375, 0.066650390625
60, 3858955671, -6.845195293426514, -0.9481114745140076, 7.09173059463501, -2.404520273208618, -1.5761030912399292, -2.120744466781616, 1.12158203125, -0.384033203125, 0.066162109375
61, 3858972338, -6.835624694824219, -0.9428801536560059, 7.088755130767822, -2.4654653072357178, -1.4970877170562744, -2.3216373920440674, 1.12060546875, -0.386962890625, 0.0654296875
62, 3858989005, -6.850927829742432, -0.9528326988220215, 7.087695598602295, -2.3228671550750732, -1.5994236469268799, -2.2578108310699463, 1.12060546875, -0.384521484375, 0.0654296875
63, 3859005672, -6.847655773162842, -0.9520764946937561, 7.091756343841553, -2.318384885787964, -1.594365119934082, -2.2146406173706055, 1.1201171875, -0.385498046875, 0.066650390625
64, 3859022339, -6.843498229980469, -0.9406397342681885, 7.077247619628906, -2.38952374458313, -1.6231919527053833, -2.2139360904693604, 1.12158203125, -0.386474609375, 0.067626953125
65, 3859039006, -6.845469951629639, -0.9560599327087402, 7.112672328948975, -2.3552160263061523, -1.6684626340866089, -2.242955446243286, 1.119140625, -0.385009765625, 0.068115234375
66, 3859055673, -6.838935375213623, -0.9548323154449463, 7.071447372436523, -2.3651535511016846, -1.764561414718628, -2.2721667289733887, 1.12158203125, -0.382568359375, 0.06591796875
67, 3859072340, -6.8397908210754395, -0.9386756420135498, 7.083213806152344, -2.302658796310425, -1.611141324043274, -2.317206621170044, 1.12060546875, -0.385986328125, 0.069091796875
68, 3859089007, -6.833139896392822, -0.9481843709945679, 7.069153308868408, -2.316079616546631, -1.6832667589187622, -2.313441753387451, 1.11865234375, -0.38720703125, 0.06591796875
69, 3859105674, -6.847745418548584, -0.9487212896347046, 7.067041873931885, -2.369418144226074, -1.652262568473816, -2.2919654846191406, 1.12109375, -0.385498046875, 0.067138671875
70, 3859122341, -6.841280460357666, -0.9485796689987183, 7.100241661071777, -2.2210693359375, -1.6567703485488892, -2.255748987197876, 1.12060546875, -0.384521484375, 0.0654296875
71, 3859139008, -6.847198486328125, -0.946072518825531, 7.079381942749023, -2.270578622817993, -1.6854948997497559, -2.170893907546997, 1.123046875, -0.385009765625, 0.065673828125
72, 3859155675, -6.8371148109436035, -0.9424201250076294, 7.071427822113037, -2.2594242095947266, -1.6842782497406006, -2.196660280227661, 1.119140625, -0.385498046875, 0.06689453125
73, 3859172342, -6.845907211303711, -0.952181875705719, 7.099234580993652, -2.2923495769500732, -1.7244902849197388, -2.259181261062622, 1.119140625, -0.384521484375, 0.06640625
74, 3859189009, -6.849759578704834, -0.9569787979125977, 7.093860626220703, -2.2315962314605713, -1.8151720762252808, -2.2074177265167236, 1.119140625, -0.385009765625, 0.06640625
75, 3859205676, -6.829054355621338, -0.9556959867477417, 7.07152795791626, -2.140901803970337, -1.8465604782104492, -2.133256196975708, 1.12060546875, -0.387451171875, 0.064453125
76, 3859222343, -6.838833332061768, -0.9613932967185974, 7.092601299285889, -2.065126657485962, -1.7827208042144775, -2.0726821422576904, 1.12158203125, -0.385498046875, 0.066162109375
77, 3859239010, -6.839169502258301, -0.9500530362129211, 7.091665744781494, -2.044316053390503, -1.8101775646209717, -2.0958101749420166, 1.117919921875, -0.384033203125, 0.06591796875
78, 3859255677, -6.832138538360596, -0.9357629418373108, 7.086645126342773, -2.1119349002838135, -1.7537754774093628, -2.140773057937622, 1.11962890625, -0.387451171875, 0.066650390625
79, 3859272344, -6.834039211273193, -0.9424611926078796, 7.108654499053955, -2.249448299407959, -1.6983654499053955, -2.127006769180298, 1.1201171875, -0.387451171875, 0.066162109375
80, 3859289011, -6.829967021942139, -0.9537814855575562, 7.107069969177246, -2.27827525138855, -1.7590419054031372, -2.204357147216797, 1.119140625, -0.385009765625, 0.06494140625
81, 3859305678, -6.832481384277344, -0.9366937875747681, 7.095173358917236, -2.3438055515289307, -1.5869501829147339, -2.166424512863159, 1.11962890625, -0.385986328125, 0.0634765625
82, 3859322345, -6.844966888427734, -0.9509577751159668, 7.093722343444824, -2.3983347415924072, -1.6078628301620483, -2.253981590270996, 1.1201171875, -0.386474609375, 0.064453125
83, 3859339012, -6.849450588226318, -0.9414830207824707, 7.0769572257995605, -2.4079911708831787, -1.5593012571334839, -2.326913833618164, 1.11962890625, -0.387451171875, 0.067626953125
84, 3859355679, -6.833872318267822, -0.9410607814788818, 7.0974907875061035, -2.4145092964172363, -1.6015236377716064, -2.370762586593628, 1.11865234375, -0.386474609375, 0.0654296875
85, 3859372346, -6.8354411125183105, -0.9516127705574036, 7.0896406173706055, -2.4526467323303223, -1.5418334007263184, -2.3708012104034424, 1.11962890625, -0.386474609375, 0.0654296875
86, 3859389013, -6.835653781890869, -0.956739068031311, 7.099459171295166, -2.4022536277770996, -1.6437335014343262, -2.291747808456421, 1.11962890625, -0.385498046875, 0.06396484375
87, 3859405680, -6.827892303466797, -0.948735237121582, 7.104348659515381, -2.555673837661743, -1.3975954055786133, -2.3509130477905273, 1.1201171875, -0.385986328125, 0.06396484375
88, 3859422347, -6.826512336730957, -0.9406784772872925, 7.084624290466309, -2.5359268188476562, -1.4752277135849, -2.458268880844116, 1.12158203125, -0.386474609375, 0.0654296875
89, 3859439014, -6.8296380043029785, -0.9448292851448059, 7.105584144592285, -2.554431915283203, -1.5140821933746338, -2.399871826171875, 1.119140625, -0.386474609375, 0.064453125
90, 3859455681, -6.83717679977417, -0.9527755379676819, 7.067448616027832, -2.465235471725464, -1.5992316007614136, -2.450021505355835, 1.11865234375, -0.386962890625, 0.06591796875
91, 3859472348, -6.832660675048828, -0.9388049244880676, 7.089214324951172, -2.489439010620117, -1.6077218055725098, -2.3788816928863525, 1.11865234375, -0.385498046875, 0.0654296875
92, 3859489015, -6.8402018547058105, -0.9345646500587463, 7.101227760314941, -2.3946850299835205, -1.6359857320785522, -2.3551647663116455, 1.119140625, -0.3876953125, 0.066650390625
93, 3859505682, -6.821633338928223, -0.9401905536651611, 7.103704452514648, -2.3422815799713135, -1.6633143424987793, -2.3408727645874023, 1.117919921875, -0.385986328125, 0.06591796875
94, 3859522349, -6.832867622375488, -0.9623315930366516, 7.0921630859375, -2.33174204826355, -1.5858744382858276, -2.438239574432373, 1.1201171875, -0.386962890625, 0.06640625
95, 3859539016, -6.819528102874756, -0.9396892189979553, 7.0999436378479, -2.391829252243042, -1.5517584085464478, -2.371121406555176, 1.12060546875, -0.385498046875, 0.06494140625
96, 3859555683, -6.827885150909424, -0.9550008773803711, 7.092570781707764, -2.398860216140747, -1.552565097808838, -2.4281609058380127, 1.1220703125, -0.384521484375, 0.066650390625
97, 3859572350, -6.844013690948486, -0.9619695544242859, 7.076444149017334, -2.4046738147735596, -1.5323565006256104, -2.3890116214752197, 1.11962890625, -0.383544921875, 0.064453125
98, 3859589017, -6.836817264556885, -0.9499503970146179, 7.082688808441162, -2.4810638427734375, -1.5067695379257202, -2.3122379779815674, 1.1181640625, -0.38818359375, 0.06201171875
99, 3859605684, -6.833946704864502, -0.9452997446060181, 7.082004070281982, -2.361311674118042, -1.530346155166626, -2.279492139816284, 1.11962890625, -0.386962890625, 0.06591796875
100, 3859622351, -6.841037750244141, -0.9493813514709473, 7.097371578216553, -2.3613498210906982, -1.5589168071746826, -2.1899497509002686, 1.119140625, -0.386474609375, 0.06494140625
101, 3859639018, -6.830111503601074, -0.9371459484100342, 7.102316379547119, -2.3571882247924805, -1.5720436573028564, -2.2483086585998535, 1.1220703125, -0.384521484375, 0.06591796875
102, 3859655685, -6.835664749145508, -0.9597451686859131, 7.071933746337891, -2.4830105304718018, -1.551386833190918, -2.3347513675689697, 1.12060546875, -0.385498046875, 0.06640625
103, 3859672352, -6.839055061340332, -0.9376381039619446, 7.11028528213501, -2.519303798675537, -1.446823000907898, -2.369891881942749, 1.119140625, -0.385498046875, 0.0654296875
104, 3859689019, -6.831813335418701, -0.9608508944511414, 7.0728631019592285, -2.437701463699341, -1.5123401880264282, -2.3578407764434814, 1.12158203125, -0.385986328125, 0.06396484375
105, 3859705686, -6.837836265563965, -0.9569452404975891, 7.0782694816589355, -2.4590883255004883, -1.5341880321502686, -2.3114054203033447, 1.11962890625, -0.385498046875, 0.06640625
106, 3859722353, -6.832066059112549, -0.9581259489059448, 7.083796977996826, -2.4703450202941895, -1.5009043216705322, -2.299341917037964, 1.1201171875, -0.385986328125, 0.064453125
107, 3859739020, -6.836607933044434, -0.9588145613670349, 7.082690238952637, -2.439558506011963, -1.53948974609375, -2.3325228691101074, 1.1201171875, -0.385009765625, 0.06494140625
108, 3859755687, -6.838621616363525, -0.9554388523101807, 7.071824073791504, -2.4251770973205566, -1.6053273677825928, -2.3050918579101562, 1.11865234375, -0.385498046875, 0.0634765625
109, 3859772354, -6.821679592132568, -0.952238917350769, 7.095639228820801, -2.4369590282440186, -1.5771788358688354, -2.323417901992798, 1.1201171875, -0.3876953125, 0.0654296875
110, 3859789021, -6.856880187988281, -0.955937385559082, 7.082581520080566, -2.357687473297119, -1.6331040859222412, -2.2757012844085693, 1.119140625, -0.384521484375, 0.06591796875
111, 3859805688, -6.822408676147461, -0.9531115889549255, 7.088502883911133, -2.3542683124542236, -1.5421534776687622, -2.2198400497436523, 1.119140625, -0.383056640625, 0.064453125
112, 3859822355, -6.8385910987854, -0.9697481393814087, 7.0875468254089355, -2.380802869796753, -1.610398530960083, -2.2767131328582764, 1.119140625, -0.386962890625, 0.06640625
113, 3859839022, -6.848188877105713, -0.9707105755805969, 7.088598251342773, -2.3896005153656006, -1.6478825807571411, -2.1956357955932617, 1.1201171875, -0.384521484375, 0.0654296875
114, 3859855689, -6.840956687927246, -0.9425599575042725, 7.060754776000977, -2.389521598815918, -1.484563946723938, -2.274489402770996, 1.119140625, -0.384033203125, 0.06591796875
115, 3859872356, -6.838767051696777, -0.95808345079422, 7.070718765258789, -2.3114819526672363, -1.66022789478302, -2.194291114807129, 1.12158203125, -0.385009765625, 0.066162109375
116, 3859889023, -6.839279651641846, -0.9399675130844116, 7.107025146484375, -2.32710599899292, -1.6323102712631226, -2.1902573108673096, 1.1201171875, -0.384521484375, 0.0654296875
117, 3859905690, -6.8476057052612305, -0.9477716684341431, 7.108253479003906, -2.307115077972412, -1.7090328931808472, -2.292310953140259, 1.11865234375, -0.386962890625, 0.06591796875
118, 3859922357, -6.8332295417785645, -0.9535734057426453, 7.090356826782227, -2.2824628353118896, -1.702040672302246, -2.2368595600128174, 1.1201171875, -0.385498046875, 0.06396484375
119, 3859939024, -6.833210468292236, -0.9496598243713379, 7.096568584442139, -2.2974467277526855, -1.6965341567993164, -2.2843198776245117, 1.11962890625, -0.385498046875, 0.067138671875
120, 3859955691, -6.83005952835083, -0.9489129185676575, 7.098627090454102, -2.27481746673584, -1.7036670446395874, -2.2710652351379395, 1.11962890625, -0.384521484375, 0.0654296875
121, 3859972358, -6.838526248931885, -0.9657331705093384, 7.092391490936279, -2.363617181777954, -1.667284369468689, -2.22092866897583, 1.11962890625, -0.385009765625, 0.067626953125
122, 3859989025, -6.832051753997803, -0.9499384164810181, 7.096043109893799, -2.2568249702453613, -1.7209174633026123, -2.1609435081481934, 1.11865234375, -0.386474609375, 0.06396484375
123, 3860005692, -6.834684371948242, -0.9589315056800842, 7.08148193359375, -2.2608072757720947, -1.7308292388916016, -2.196686029434204, 1.12060546875, -0.384521484375, 0.06298828125
124, 3860022359, -6.828895092010498, -0.9520054459571838, 7.106611251831055, -2.2089285850524902, -1.6243317127227783, -2.0788931846618652, 1.1201171875, -0.385498046875, 0.06396484375
125, 3860039026, -6.820613384246826, -0.9621744751930237, 7.112093448638916, -2.2375705242156982, -1.7736601829528809, -2.138730764389038, 1.1201171875, -0.385009765625, 0.0654296875
126, 3860055693, -6.834733486175537, -0.9455063343048096, 7.0881147384643555, -2.3369667530059814, -1.698045253753662, -2.0851430892944336, 1.12060546875, -0.385498046875, 0.0654296875
127, 3860072360, -6.831127643585205, -0.9367302060127258, 7.089707374572754, -2.293015241622925, -1.633872628211975, -2.080519676208496, 1.1181640625, -0.386474609375, 0.0654296875
128, 3860089027, -6.833341598510742, -0.9398956894874573, 7.100378513336182, -2.4073634147644043, -1.6423888206481934, -2.161520004272461, 1.11962890625, -0.386474609375, 0.066650390625
129, 3860105694, -6.853267669677734, -0.949593186378479, 7.106028079986572, -2.310764789581299, -1.6604071855545044, -2.2309300899505615, 1.12109375, -0.385009765625, 0.06494140625
130, 3860122361, -6.825405597686768, -0.9409887194633484, 7.105810642242432, -2.287086009979248, -1.6746480464935303, -2.13812255859375, 1.11962890625, -0.384033203125, 0.0634765625
131, 3860139028, -6.822101593017578, -0.9491300582885742, 7.1116766929626465, -2.256453037261963, -1.6800777912139893, -2.1507110595703125, 1.11865234375, -0.38720703125, 0.0634765625
132, 3860155695, -6.817249774932861, -0.9582762718200684, 7.081284999847412, -2.2404963970184326, -1.7088152170181274, -2.0095083713531494, 1.11962890625, -0.384033203125, 0.06591796875
133, 3860172362, -6.8388671875, -0.940062940120697, 7.074607849121094, -2.2941677570343018, -1.602791428565979, -2.051910161972046, 1.1181640625, -0.386474609375, 0.0654296875
134, 3860189029, -6.832657337188721, -0.949410080909729, 7.107386589050293, -2.283039093017578, -1.5213942527770996, -2.0214180946350098, 1.119140625, -0.385498046875, 0.06640625
135, 3860205696, -6.827813148498535, -0.9566348195075989, 7.0890607833862305, -2.198824405670166, -1.5932122468948364, -1.9544153213500977, 1.119140625, -0.385986328125, 0.06298828125
136, 3860222363, -6.829185485839844, -0.9384240508079529, 7.090328693389893, -2.0949137210845947, -1.7164093255996704, -1.9874684810638428, 1.1201171875, -0.387451171875, 0.06494140625
137, 3860239030, -6.831736087799072, -0.9311092495918274, 7.092599868774414, -1.94413161277771, -1.7953860759735107, -1.8443702459335327, 1.11962890625, -0.387451171875, 0.064453125
138, 3860255697, -6.830938816070557, -0.9407095313072205, 7.098733425140381, -1.9554529190063477, -1.8918819427490234, -1.7106465101242065, 1.1181640625, -0.385986328125, 0.06494140625
139, 3860272364, -6.841002941131592, -0.954358696937561, 7.105368137359619, -1.9652239084243774, -1.8977727890014648, -1.7476056814193726, 1.12109375, -0.386474609375, 0.06396484375
140, 3860289031, -6.827205657958984, -0.9236167073249817, 7.11880350112915, -2.006319522857666, -1.6641596555709839, -1.7107491493225098, 1.1181640625, -0.386962890625, 0.0654296875
141, 3860305698, -6.822617530822754, -0.9391775131225586, 7.097904682159424, -1.9764294624328613, -1.837980031967163, -1.740472674369812, 1.12060546875, -0.3876953125, 0.06494140625
142, 3860322365, -6.832189559936523, -0.9427919983863831, 7.106223106384277, -1.9777357578277588, -1.8528226613998413, -1.8128410577774048, 1.119140625, -0.385986328125, 0.06689453125
143, 3860339032, -6.827942371368408, -0.9306786060333252, 7.095118999481201, -2.074641466140747, -1.929827094078064, -1.8751697540283203, 1.12109375, -0.385986328125, 0.06591796875
144, 3860355699, -6.813350200653076, -0.9253717660903931, 7.120743274688721, -2.106003999710083, -1.8185144662857056, -1.9776332378387451, 1.1201171875, -0.386962890625, 0.06640625
145, 3860372366, -6.823600769042969, -0.9293778538703918, 7.111749649047852, -2.114417791366577, -1.7042433023452759, -1.9829864501953125, 1.11865234375, -0.388671875, 0.0654296875
146, 3860389033, -6.8179802894592285, -0.9250784516334534, 7.100833415985107, -2.0261051654815674, -1.6370997428894043, -1.9540826082229614, 1.119140625, -0.38916015625, 0.0654296875
147, 3860405700, -6.828672885894775, -0.9261307120323181, 7.1029558181762695, -2.167461633682251, -1.6545034646987915, -1.965505599975586, 1.11962890625, -0.388671875, 0.0654296875
148, 3860422367, -6.834246635437012, -0.9068909287452698, 7.0956711769104, -2.1565635204315186, -1.5804187059402466, -1.9797207117080688, 1.12060546875, -0.387451171875, 0.06298828125
149, 3860439034, -6.838430881500244, -0.9098448157310486, 7.105661392211914, -2.1918325424194336, -1.5273492336273193, -1.9163933992385864, 1.12158203125, -0.3876953125, 0.0634765625
150, 3860455701, -6.830251216888428, -0.9103125929832458, 7.118614196777344, -2.2081432342529297, -1.6368094682693481, -2.031541585922241, 1.1181640625, -0.38818359375, 0.06396484375
151, 3860472368, -6.821571350097656, -0.9192964434623718, 7.119743824005127, -2.258707046508789, -1.624472737312317, -2.152837038040161, 1.11962890625, -0.38818359375, 0.06396484375
152, 3860489035, -6.81010627746582, -0.9266812801361084, 7.099096298217773, -2.227792501449585, -1.5657683610916138, -2.2221319675445557, 1.119140625, -0.38720703125, 0.06396484375
153, 3860505702, -6.817861557006836, -0.916111409664154, 7.094117641448975, -2.3526675701141357, -1.6583967208862305, -2.243736505508423, 1.12109375, -0.386962890625, 0.0654296875
154, 3860522369, -6.8282012939453125, -0.9367859363555908, 7.11713981628418, -2.378190279006958, -1.482885718345642, -2.258848190307617, 1.1201171875, -0.387451171875, 0.0625
155, 3860539036, -6.830504417419434, -0.9218478202819824, 7.125570774078369, -2.466336250305176, -1.3219226598739624, -2.2076098918914795, 1.12060546875, -0.38818359375, 0.06494140625
156, 3860555703, -6.834532737731934, -0.923008143901825, 7.095566749572754, -2.4882864952087402, -1.4690290689468384, -2.2625231742858887, 1.11865234375, -0.38818359375, 0.06396484375
157, 3860572370, -6.838214874267578, -0.9217629432678223, 7.1039323806762695, -2.5466578006744385, -1.408288598060608, -2.243992567062378, 1.1201171875, -0.388671875, 0.06591796875
158, 3860589037, -6.822152137756348, -0.921237051486969, 7.113554954528809, -2.4414923191070557, -1.4607436656951904, -2.2125658988952637, 1.1181640625, -0.3876953125, 0.0634765625
159, 3860605704, -6.806490421295166, -0.9281590580940247, 7.114957332611084, -2.483381986618042, -1.5370694398880005, -2.2796714305877686, 1.12060546875, -0.38818359375, 0.0625
160, 3860622371, -6.805817604064941, -0.9294863343238831, 7.093703746795654, -2.493037700653076, -1.4379481077194214, -2.2626640796661377, 1.1201171875, -0.3876953125, 0.06494140625
161, 3860639038, -6.812743663787842, -0.9219146966934204, 7.103132724761963, -2.5375657081604004, -1.3254060745239258, -2.2731399536132812, 1.11962890625, -0.390625, 0.064453125
162, 3860655705, -6.825023651123047, -0.931588888168335, 7.10621452331543, -2.4619312286376953, -1.3093981742858887, -2.261972665786743, 1.11865234375, -0.38916015625, 0.0654296875
163, 3860672372, -6.836294651031494, -0.9460156559944153, 7.100419998168945, -2.465222120285034, -1.342220664024353, -2.2003228664398193, 1.1181640625, -0.3896484375, 0.06591796875
164, 3860689039, -6.8343825340271, -0.9217771291732788, 7.096441268920898, -2.4480745792388916, -1.4279592037200928, -2.1680381298065186, 1.119140625, -0.388671875, 0.064453125
165, 3860705706, -6.825738906860352, -0.931908905506134, 7.090399742126465, -2.433321714401245, -1.4759063720703125, -2.1953542232513428, 1.12158203125, -0.3876953125, 0.064453125
166, 3860722373, -6.827821254730225, -0.9149231910705566, 7.119708061218262, -2.474968194961548, -1.3669754266738892, -2.1908977031707764, 1.119140625, -0.386962890625, 0.06640625
167, 3860739040, -6.836313724517822, -0.9182927012443542, 7.099305152893066, -2.592914342880249, -1.199314832687378, -2.388282060623169, 1.12060546875, -0.386962890625, 0.066162109375
168, 3860755707, -6.825066566467285, -0.9260625839233398, 7.096275806427002, -2.662811517715454, -1.396289348602295, -2.4011523723602295, 1.116943359375, -0.38818359375, 0.064453125
169, 3860772374, -6.829034328460693, -0.9293753504753113, 7.093094825744629, -2.4935503005981445, -1.4503192901611328, -2.3960938453674316, 1.12060546875, -0.3876953125, 0.0654296875
170, 3860789041, -6.826547145843506, -0.9383191466331482, 7.10346794128418, -2.43829083442688, -1.5399764776229858, -2.371044635772705, 1.1201171875, -0.39013671875, 0.06298828125
171, 3860805708, -6.825738430023193, -0.9190793633460999, 7.113818645477295, -2.5148983001708984, -1.5168354511260986, -2.3930459022521973, 1.11865234375, -0.38818359375, 0.0654296875
172, 3860822375, -6.827842712402344, -0.9120486378669739, 7.097700119018555, -2.5192012786865234, -1.5492868423461914, -2.4727401733398438, 1.119140625, -0.386962890625, 0.06591796875
173, 3860839042, -6.844939231872559, -0.9321337938308716, 7.10032320022583, -2.5427651405334473, -1.4500374794006348, -2.4276487827301025, 1.11962890625, -0.39013671875, 0.0625
174, 3860855709, -6.831641674041748, -0.9417739510536194, 7.098033905029297, -2.5043461322784424, -1.4714369773864746, -2.4253435134887695, 1.11962890625, -0.387451171875, 0.064453125
175, 3860872376, -6.820338249206543, -0.9310188889503479, 7.093174934387207, -2.4366254806518555, -1.561670184135437, -2.4427216053009033, 1.1181640625, -0.386474609375, 0.06298828125
176, 3860889043, -6.833614349365234, -0.9267780780792236, 7.091616630554199, -2.3598132133483887, -1.4290989637374878, -2.3322412967681885, 1.11865234375, -0.38720703125, 0.06494140625
177, 3860905710, -6.826437473297119, -0.9199954271316528, 7.095421314239502, -2.4456543922424316, -1.4812978506088257, -2.377742290496826, 1.11865234375, -0.38818359375, 0.06494140625
178, 3860922377, -6.8354315757751465, -0.9377291202545166, 7.124011516571045, -2.5506792068481445, -1.432479739189148, -2.423025131225586, 1.1220703125, -0.386962890625, 0.064453125
179, 3860939044, -6.829033851623535, -0.9225135445594788, 7.11640739440918, -2.7214393615722656, -1.2999728918075562, -2.504666328430176, 1.11962890625, -0.3876953125, 0.0634765625
180, 3860955711, -6.835066318511963, -0.9228684306144714, 7.088559627532959, -2.5675456523895264, -1.2646400928497314, -2.533698320388794, 1.1220703125, -0.385986328125, 0.06396484375
181, 3860972378, -6.827500820159912, -0.9439896941184998, 7.078432559967041, -2.448317766189575, -1.3358943462371826, -2.4092202186584473, 1.119140625, -0.3896484375, 0.064453125
182, 3860989045, -6.82909631729126, -0.9356094002723694, 7.080223560333252, -2.374835252761841, -1.5078710317611694, -2.3032989501953125, 1.11962890625, -0.385498046875, 0.06396484375
183, 3861005712, -6.828508377075195, -0.9330467581748962, 7.07366943359375, -2.423422336578369, -1.5260303020477295, -2.2669801712036133, 1.12060546875, -0.386474609375, 0.064453125
184, 3861022379, -6.836398601531982, -0.9328763484954834, 7.09137487411499, -2.3831722736358643, -1.5854902267456055, -2.2593350410461426, 1.12060546875, -0.386474609375, 0.06591796875
185, 3861039046, -6.82930850982666, -0.915057361125946, 7.102941989898682, -2.3920981884002686, -1.4889687299728394, -2.2937581539154053, 1.119140625, -0.3876953125, 0.06494140625
186, 3861055713, -6.838735103607178, -0.9340243339538574, 7.084805965423584, -2.4912233352661133, -1.4724370241165161, -2.3410911560058594, 1.1201171875, -0.3876953125, 0.066162109375
187, 3861072380, -6.820255279541016, -0.9418426752090454, 7.091647624969482, -2.4541704654693604, -1.5503497123718262, -2.39159893989563, 1.11962890625, -0.3876953125, 0.06396484375
188, 3861089047, -6.82181978225708, -0.9414083957672119, 7.09269905090332, -2.3164894580841064, -1.5771788358688354, -2.372389078140259, 1.119140625, -0.388671875, 0.064453125
189, 3861105714, -6.832658767700195, -0.9424842596054077, 7.098745822906494, -2.4345128536224365, -1.5795992612838745, -2.3773839473724365, 1.11962890625, -0.3876953125, 0.061279296875
190, 3861122381, -6.832225322723389, -0.9331700801849365, 7.103639602661133, -2.4451422691345215, -1.744365930557251, -2.3711342811584473, 1.119140625, -0.386962890625, 0.064453125
191, 3861139048, -6.826550483703613, -0.9372482299804688, 7.0976243019104, -2.5292670726776123, -1.5596343278884888, -2.403636932373047, 1.11962890625, -0.38916015625, 0.06591796875
192, 3861155715, -6.80980110168457, -0.9476147294044495, 7.102876663208008, -2.5489890575408936, -1.617595911026001, -2.476377010345459, 1.119140625, -0.388671875, 0.06640625
193, 3861172382, -6.832367897033691, -0.9405421018600464, 7.114156246185303, -2.5278966426849365, -1.4386141300201416, -2.3288605213165283, 1.1201171875, -0.3876953125, 0.06591796875
194, 3861189049, -6.820522308349609, -0.9381498694419861, 7.095126628875732, -2.5164480209350586, -1.3743518590927124, -2.292067766189575, 1.1201171875, -0.38818359375, 0.0654296875
195, 3861205716, -6.8352437019348145, -0.9439992904663086, 7.089885234832764, -2.4105138778686523, -1.5106115341186523, -2.2393441200256348, 1.12255859375, -0.38818359375, 0.065673828125
196, 3861222383, -6.828383922576904, -0.9468023777008057, 7.092194080352783, -2.3711087703704834, -1.561171054840088, -2.1897194385528564, 1.12060546875, -0.385009765625, 0.06298828125
197, 3861239050, -6.819653511047363, -0.9304079413414001, 7.088090896606445, -2.3769352436065674, -1.6207971572875977, -2.187401056289673, 1.1201171875, -0.388671875, 0.06494140625
198, 3861255717, -6.831316947937012, -0.9289722442626953, 7.111259937286377, -2.3108420372009277, -1.5858361721038818, -2.2318780422210693, 1.11865234375, -0.385986328125, 0.06494140625
199, 3861272384, -6.850975513458252, -0.9324424266815186, 7.117726802825928, -2.3416924476623535, -1.686455488204956, -2.240445375442505, 1.1181640625, -0.38916015625, 0.0654296875
200, 3861289051, -6.829235553741455, -0.9418953657150269, 7.091939926147461, -2.334559202194214, -1.736438512802124, -2.248807907104492, 1.119140625, -0.386962890625, 0.064453125
201, 3861305718, -6.836759090423584, -0.9207760095596313, 7.090213298797607, -2.389472723007202, -1.7717458009719849, -2.370737075805664, 1.119140625, -0.386474609375, 0.06494140625
202, 3861322385, -6.835289478302002, -0.9439762830734253, 7.095757007598877, -2.345303773880005, -1.6209383010864258, -2.369443655014038, 1.12158203125, -0.3876953125, 0.0634765625
203, 3861339052, -6.826746940612793, -0.9489446878433228, 7.104180335998535, -2.337146282196045, -1.6647231578826904, -2.3185131549835205, 1.11962890625, -0.386962890625, 0.06591796875
204, 3861355719, -6.831889629364014, -0.9483104944229126, 7.110311985015869, -2.3463022708892822, -1.6971230506896973, -2.2302639484405518, 1.11962890625, -0.386474609375, 0.064453125
205, 3861372386, -6.805556297302246, -0.9424516558647156, 7.074187278747559, -2.219724416732788, -1.6334497928619385, -2.1529650688171387, 1.11962890625, -0.388671875, 0.064453125
206, 3861389053, -6.824275493621826, -0.9386919736862183, 7.08737850189209, -2.2011425495147705, -1.646345853805542, -2.1150453090667725, 1.1181640625, -0.386962890625, 0.06298828125
207, 3861405720, -6.816258430480957, -0.943096399307251, 7.114823818206787, -2.270437717437744, -1.5907918214797974, -2.0609641075134277, 1.119140625, -0.386962890625, 0.06494140625
208, 3861422387, -6.8244781494140625, -0.9277170896530151, 7.121311187744141, -2.262946128845215, -1.507665991783142, -2.1419389247894287, 1.119140625, -0.388671875, 0.06494140625
209, 3861439054, -6.812290668487549, -0.932537317276001, 7.081768989562988, -2.4016897678375244, -1.38102388381958, -2.1034042835235596, 1.11865234375, -0.386962890625, 0.064453125
210, 3861455721, -6.825509071350098, -0.9385567903518677, 7.092617511749268, -2.44299054145813, -1.330477237701416, -2.083836078643799, 1.11962890625, -0.3876953125, 0.06640625
211, 3861472388, -6.827600955963135, -0.9393423199653625, 7.098639965057373, -2.4424781799316406, -1.2738603353500366, -1.983946681022644, 1.11865234375, -0.385498046875, 0.0654296875
212, 3861489055, -6.837732791900635, -0.9187718033790588, 7.089446544647217, -2.2745742797851562, -1.4016807079315186, -1.9425568580627441, 1.1201171875, -0.3876953125, 0.06494140625
213, 3861505722, -6.8186445236206055, -0.9429463148117065, 7.121395111083984, -2.3260555267333984, -1.3237537145614624, -2.0183188915252686, 1.12158203125, -0.387451171875, 0.064453125
214, 3861522389, -6.821807861328125, -0.9281491041183472, 7.109474182128906, -2.2967803478240967, -1.2291533946990967, -1.9739961624145508, 1.1201171875, -0.386962890625, 0.06591796875
215, 3861539056, -6.839576721191406, -0.911740243434906, 7.098005771636963, -2.3912782669067383, -1.157015323638916, -1.957360863685608, 1.11865234375, -0.385986328125, 0.0634765625
216, 3861555723, -6.82963228225708, -0.9278364181518555, 7.084244251251221, -2.2930662631988525, -1.3037374019622803, -1.9636359214782715, 1.119140625, -0.3896484375, 0.06591796875
217, 3861572390, -6.836241722106934, -0.9169928431510925, 7.098172187805176, -2.3109443187713623, -1.4366676807403564, -1.887412667274475, 1.1201171875, -0.38818359375, 0.06494140625
218, 3861589057, -6.840633869171143, -0.9203351140022278, 7.087743282318115, -2.2314035892486572, -1.3696132898330688, -1.9827302694320679, 1.1201171875, -0.388671875, 0.06396484375
219, 3861605724, -6.841433048248291, -0.9235590696334839, 7.098545074462891, -2.336620807647705, -1.4642138481140137, -1.9548763036727905, 1.119140625, -0.3876953125, 0.0654296875
220, 3861622391, -6.839383602142334, -0.9187664985656738, 7.0943498611450195, -2.2859716415405273, -1.3329745531082153, -1.899194359779358, 1.11962890625, -0.386962890625, 0.064453125
221, 3861639058, -6.823012351989746, -0.9463679194450378, 7.080168724060059, -2.373836040496826, -1.2580444812774658, -1.915317416191101, 1.119140625, -0.3876953125, 0.06396484375
222, 3861655725, -6.824307918548584, -0.9301050305366516, 7.102313041687012, -2.219834804534912, -1.3063485622406006, -1.8723424673080444, 1.119140625, -0.388671875, 0.067626953125
223, 3861672392, -6.83880615234375, -0.9037926197052002, 7.106994152069092, -2.254826784133911, -1.2638331651687622, -1.874017357826233, 1.119140625, -0.388671875, 0.06591796875
224, 3861689059, -6.836042404174805, -0.9124729037284851, 7.089387893676758, -2.309586524963379, -1.1749184131622314, -1.996573805809021, 1.11865234375, -0.38818359375, 0.066650390625
225, 3861705726, -6.847299575805664, -0.9150069952011108, 7.096370697021484, -2.268414258956909, -1.2164623737335205, -1.9628931283950806, 1.11865234375, -0.38818359375, 0.064453125
226, 3861722393, -6.8627519607543945, -0.9119344353675842, 7.084108829498291, -2.24474835395813, -1.3636715412139893, -2.1071572303771973, 1.1181640625, -0.39013671875, 0.064453125
227, 3861739060, -6.854284286499023, -0.9163126945495605, 7.091456890106201, -2.2171378135681152, -1.336112141609192, -2.0717856884002686, 1.1201171875, -0.38818359375, 0.066650390625
228, 3861755727, -6.842446327209473, -0.9105274081230164, 7.094639778137207, -2.3664345741271973, -1.4316346645355225, -2.062180995941162, 1.119140625, -0.3896484375, 0.06591796875
229, 3861772394, -6.853065013885498, -0.9100876450538635, 7.0702667236328125, -2.3055267333984375, -1.3117159605026245, -2.200207471847534, 1.1181640625, -0.39111328125, 0.06591796875
230, 3861789061, -6.840640544891357, -0.918643593788147, 7.114043235778809, -2.3882434368133545, -1.3076049089431763, -2.1184515953063965, 1.12109375, -0.388671875, 0.066650390625
231, 3861805728, -6.840800762176514, -0.9143331050872803, 7.101229667663574, -2.367663621902466, -1.325188159942627, -2.2073535919189453, 1.1201171875, -0.3876953125, 0.06591796875
232, 3861822395, -6.8391923904418945, -0.9107213020324707, 7.1009368896484375, -2.48028302192688, -1.2993195056915283, -2.194317102432251, 1.11962890625, -0.387451171875, 0.06591796875
233, 3861839062, -6.843223571777344, -0.923086404800415, 7.090315818786621, -2.4901692867279053, -1.1993532180786133, -2.2304179668426514, 1.12109375, -0.3876953125, 0.066162109375
234, 3861855729, -6.850620269775391, -0.9286389350891113, 7.07363748550415, -2.466169834136963, -1.368691325187683, -2.2175347805023193, 1.11865234375, -0.38720703125, 0.06640625
235, 3861872396, -6.8416008949279785, -0.9159817099571228, 7.0904693603515625, -2.34033465385437, -1.368409514427185, -2.1280438899993896, 1.119140625, -0.39111328125, 0.06591796875
236, 3861889063, -6.842645645141602, -0.9159299731254578, 7.093512535095215, -2.410385847091675, -1.3562309741973877, -2.0937869548797607, 1.1201171875, -0.3896484375, 0.068115234375
237, 3861905730, -6.856907844543457, -0.9189544320106506, 7.096141815185547, -2.4317593574523926, -1.2722467184066772, -2.0294349193573, 1.1201171875, -0.38818359375, 0.066162109375
238, 3861922397, -6.853546619415283, -0.9230234026908875, 7.090974807739258, -2.3307299613952637, -1.4232209920883179, -2.055176019668579, 1.11962890625, -0.390625, 0.066650390625
239, 3861939064, -6.833716869354248, -0.9233541488647461, 7.0980634689331055, -2.368342399597168, -1.4410984516143799, -2.0676748752593994, 1.119140625, -0.38818359375, 0.06640625
240, 3861955731, -6.8353657722473145, -0.8979344964027405, 7.106512546539307, -2.3495426177978516, -1.197137475013733, -1.9894535541534424, 1.12060546875, -0.3896484375, 0.067138671875
241, 3861972398, -6.826974391937256, -0.9207971692085266, 7.087762832641602, -2.449265956878662, -1.0798956155776978, -2.118849277496338, 1.1201171875, -0.39013671875, 0.066650390625
242, 3861989065, -6.859434604644775, -0.9082773327827454, 7.075290203094482, -2.5173826217651367, -1.0523873567581177, -1.9696037769317627, 1.1220703125, -0.38818359375, 0.069091796875
243, 3862005732, -6.862306118011475, -0.9060009717941284, 7.085943698883057, -2.3757314682006836, -1.1540697813034058, -2.060157299041748, 1.12060546875, -0.388671875, 0.0654296875
244, 3862022399, -6.854434490203857, -0.9157466888427734, 7.0815815925598145, -2.3133902549743652, -1.1226557493209839, -2.0015811920166016, 1.12158203125, -0.38818359375, 0.068115234375
245, 3862039066, -6.85764741897583, -0.9070211052894592, 7.083319187164307, -2.3476085662841797, -1.2295246124267578, -1.972408413887024, 1.121826171875, -0.39013671875, 0.066650390625
246, 3862055733, -6.8591485023498535, -0.9074888825416565, 7.069422245025635, -2.395235538482666, -1.3268402814865112, -2.0684688091278076, 1.121826171875, -0.3896484375, 0.068115234375
247, 3862072400, -6.864762306213379, -0.8917714357376099, 7.098783016204834, -2.286688804626465, -1.268584132194519, -1.9933083057403564, 1.1220703125, -0.38916015625, 0.065185546875
248, 3862089067, -6.8539276123046875, -0.8971713781356812, 7.076303005218506, -2.335289239883423, -1.3928440809249878, -2.1147379875183105, 1.12109375, -0.388671875, 0.068115234375
249, 3862105734, -6.861119747161865, -0.9068061113357544, 7.069233417510986, -2.302863597869873, -1.4508826732635498, -2.14782977104187, 1.12158203125, -0.390625, 0.068115234375
250, 3862122401, -6.861301898956299, -0.8916364312171936, 7.0944061279296875, -2.3384265899658203, -1.4726790189743042, -2.205317497253418, 1.12060546875, -0.39111328125, 0.066162109375
251, 3862139068, -6.86311149597168, -0.9090678691864014, 7.081853866577148, -2.4208099842071533, -1.5316779613494873, -2.364231586456299, 1.12060546875, -0.388671875, 0.067138671875
252, 3862155735, -6.868285655975342, -0.9146997928619385, 7.069789886474609, -2.4415435791015625, -1.7090842723846436, -2.3368899822235107, 1.11962890625, -0.38818359375, 0.066650390625
253, 3862172402, -6.854857444763184, -0.9060890078544617, 7.076799392700195, -2.379624605178833, -1.6434260606765747, -2.3423964977264404, 1.11962890625, -0.3876953125, 0.067138671875
254, 3862189069, -6.86214017868042, -0.9054332971572876, 7.072505474090576, -2.3186028003692627, -1.5967086553573608, -2.289224863052368, 1.11962890625, -0.38818359375, 0.068603515625
255, 3862205736, -6.856079578399658, -0.9074799418449402, 7.094660758972168, -2.371095657348633, -1.677183747291565, -2.316169261932373, 1.11865234375, -0.38916015625, 0.066650390625
256, 3862222403, -6.8565802574157715, -0.9003442525863647, 7.068665504455566, -2.4663236141204834, -1.5637704133987427, -2.335686206817627, 1.11962890625, -0.38916015625, 0.068115234375
257, 3862239070, -6.852219104766846, -0.9118726253509521, 7.09253454208374, -2.41865873336792, -1.6094893217086792, -2.3136720657348633, 1.1220703125, -0.388671875, 0.066162109375
258, 3862255737, -6.83815860748291, -0.9089045524597168, 7.073835372924805, -2.358736991882324, -1.7731889486312866, -2.352590322494507, 1.12109375, -0.39013671875, 0.068115234375
259, 3862272404, -6.843994617462158, -0.8934629559516907, 7.088232040405273, -2.419952154159546, -1.6721123456954956, -2.339169502258301, 1.11962890625, -0.387451171875, 0.069580078125
260, 3862289071, -6.857944488525391, -0.898325502872467, 7.090676307678223, -2.4803853034973145, -1.7176519632339478, -2.5155389308929443, 1.12158203125, -0.38916015625, 0.066162109375
261, 3862305738, -6.835853099822998, -0.9189008474349976, 7.0982561111450195, -2.4689109325408936, -1.6649280786514282, -2.4567062854766846, 1.12158203125, -0.386962890625, 0.066162109375
262, 3862322405, -6.854189395904541, -0.9135439395904541, 7.078709602355957, -2.350656509399414, -1.7133742570877075, -2.4210660457611084, 1.121826171875, -0.39111328125, 0.067138671875
263, 3862339072, -6.847878456115723, -0.9257078766822815, 7.088212490081787, -2.3272087574005127, -1.8633499145507812, -2.375680923461914, 1.12109375, -0.3896484375, 0.066650390625
264, 3862355739, -6.856584548950195, -0.9141229391098022, 7.086484432220459, -2.386962652206421, -1.7738972902297974, -2.3361728191375732, 1.1201171875, -0.38916015625, 0.067626953125
265, 3862372406, -6.8466105461120605, -0.9111465215682983, 7.080193996429443, -2.32063889503479, -1.8257629871368408, -2.3708267211914062, 1.122314453125, -0.3896484375, 0.065185546875
266, 3862389073, -6.852745532989502, -0.9136408567428589, 7.075632572174072, -2.472099781036377, -1.6533255577087402, -2.3268496990203857, 1.12158203125, -0.3896484375, 0.067626953125
267, 3862405740, -6.855228424072266, -0.9153137803077698, 7.086177825927734, -2.440455198287964, -1.7059084177017212, -2.464031219482422, 1.11865234375, -0.39013671875, 0.067138671875
268, 3862422407, -6.8363776206970215, -0.9295706152915955, 7.091232776641846, -2.4979302883148193, -1.662571907043457, -2.4201700687408447, 1.119140625, -0.39013671875, 0.0654296875
269, 3862439074, -6.834587574005127, -0.9212701320648193, 7.095311164855957, -2.3807520866394043, -1.7609502077102661, -2.4251515865325928, 1.1220703125, -0.3876953125, 0.065673828125
270, 3862455741, -6.842442989349365, -0.9204829931259155, 7.091580390930176, -2.4469480514526367, -1.6222445964813232, -2.4224493503570557, 1.12109375, -0.3876953125, 0.067626953125
271, 3862472408, -6.8396382331848145, -0.9201900362968445, 7.094922065734863, -2.4781696796417236, -1.5805342197418213, -2.37137770652771, 1.12109375, -0.386474609375, 0.068115234375
272, 3862489075, -6.842609882354736, -0.9099339246749878, 7.096099376678467, -2.4514172077178955, -1.5859127044677734, -2.4020869731903076, 1.12158203125, -0.38818359375, 0.067626953125
273, 3862505742, -6.850776195526123, -0.9171850681304932, 7.10369348526001, -2.5783801078796387, -1.4987401962280273, -2.437023162841797, 1.1201171875, -0.3876953125, 0.066650390625
274, 3862522409, -6.84210205078125, -0.917220950126648, 7.098169326782227, -2.60041880607605, -1.2542411088943481, -2.4202849864959717, 1.12109375, -0.388671875, 0.067138671875
275, 3862539076, -6.863325595855713, -0.9242799878120422, 7.070773124694824, -2.6553456783294678, -1.2154508829116821, -2.384491205215454, 1.1201171875, -0.38916015625, 0.067626953125
276, 3862555743, -6.858851909637451, -0.9264064431190491, 7.073275089263916, -2.435742139816284, -1.3414267301559448, -2.371659517288208, 1.121337890625, -0.3916015625, 0.068115234375
277, 3862572410, -6.85969877243042, -0.9092191457748413, 7.08809757232666, -2.426175832748413, -1.4750096797943115, -2.3147218227386475, 1.12060546875, -0.39013671875, 0.067626953125
278, 3862589077, -6.85515022277832, -0.9016568660736084, 7.107811450958252, -2.4015746116638184, -1.503414273262024, -2.3722097873687744, 1.11962890625, -0.3896484375, 0.06494140625
279, 3862605744, -6.861822128295898, -0.9156153202056885, 7.09877347946167, -2.415342092514038, -1.7123372554779053, -2.4632248878479004, 1.1201171875, -0.386962890625, 0.067626953125
280, 3862622411, -6.8536577224731445, -0.9239546656608582, 7.091423034667969, -2.3355069160461426, -1.7696841955184937, -2.463916301727295, 1.1220703125, -0.386474609375, 0.066650390625
281, 3862639078, -6.849414825439453, -0.9322986006736755, 7.093105792999268, -2.3673436641693115, -1.7550976276397705, -2.384260654449463, 1.12060546875, -0.385986328125, 0.066650390625
282, 3862655745, -6.816103935241699, -0.9241833686828613, 7.0826497077941895, -2.328322410583496, -1.6560531854629517, -2.3413209915161133, 1.11962890625, -0.39013671875, 0.066650390625
283, 3862672412, -6.838718414306641, -0.9344525337219238, 7.103911876678467, -2.3923285007476807, -1.644950032234192, -2.3438565731048584, 1.12158203125, -0.387451171875, 0.068603515625
284, 3862689079, -6.848583698272705, -0.9343286156654358, 7.076247692108154, -2.408311367034912, -1.5494403839111328, -2.2394206523895264, 1.12060546875, -0.3876953125, 0.066162109375
285, 3862705746, -6.837628364562988, -0.9123556017875671, 7.094343185424805, -2.329974412918091, -1.4319418668746948, -2.223694324493408, 1.1201171875, -0.39013671875, 0.067626953125
286, 3862722413, -6.83983850479126, -0.9142354130744934, 7.085006237030029, -2.333918809890747, -1.5000203847885132, -2.1840970516204834, 1.11962890625, -0.38916015625, 0.06591796875
287, 3862739080, -6.8561906814575195, -0.9240862131118774, 7.094478607177734, -2.3329966068267822, -1.4954229593276978, -2.134446859359741, 1.12109375, -0.387451171875, 0.06494140625
288, 3862755747, -6.847270965576172, -0.920035719871521, 7.08028507232666, -2.317385673522949, -1.5145941972732544, -2.166002035140991, 1.12158203125, -0.3876953125, 0.067138671875
289, 3862772414, -6.850318431854248, -0.919815182685852, 7.0733442306518555, -2.3521933555603027, -1.5246598720550537, -2.168050765991211, 1.11962890625, -0.39013671875, 0.0654296875
290, 3862789081, -6.841584205627441, -0.9179791808128357, 7.088706016540527, -2.334418296813965, -1.482629656791687, -2.090559482574463, 1.1201171875, -0.3876953125, 0.066162109375
291, 3862805748, -6.840687274932861, -0.9243342876434326, 7.06080436706543, -2.2573494911193848, -1.6066333055496216, -2.16341495513916, 1.1220703125, -0.38818359375, 0.06396484375
292, 3862822415, -6.851896286010742, -0.9288395643234253, 7.090705394744873, -2.3559458255767822, -1.5700201988220215, -2.188951015472412, 1.12158203125, -0.39111328125, 0.066650390625
293, 3862839082, -6.841503143310547, -0.9119775295257568, 7.098991394042969, -2.255249261856079, -1.5115973949432373, -2.2014241218566895, 1.11962890625, -0.38818359375, 0.069091796875
294, 3862855749, -6.847348690032959, -0.9279605746269226, 7.08263635635376, -2.393606424331665, -1.4839106798171997, -2.111806869506836, 1.11962890625, -0.386962890625, 0.06640625
295, 3862872416, -6.850381851196289, -0.9187142848968506, 7.1004638671875, -2.3434083461761475, -1.5399891138076782, -2.1331663131713867, 1.1201171875, -0.38818359375, 0.068115234375
296, 3862889083, -6.847696304321289, -0.920884370803833, 7.075198650360107, -2.3024022579193115, -1.518397569656372, -2.124432325363159, 1.11962890625, -0.388671875, 0.06591796875
297, 3862905750, -6.833343505859375, -0.9073979258537292, 7.084540843963623, -2.2973053455352783, -1.4434548616409302, -2.104121685028076, 1.119140625, -0.38818359375, 0.06591796875
298, 3862922417, -6.854384899139404, -0.895621657371521, 7.0814619064331055, -2.4135231971740723, -1.5329201221466064, -2.1857240200042725, 1.1220703125, -0.38916015625, 0.066162109375
299, 3862939084, -6.845727443695068, -0.9085139632225037, 7.08819055557251, -2.401843547821045, -1.4922726154327393, -2.2534821033477783, 1.12060546875, -0.39208984375, 0.068603515625
300, 3862955751, -6.846995830535889, -0.9188810586929321, 7.098148345947266, -2.408708333969116, -1.5432804822921753, -2.326580762863159, 1.12158203125, -0.38916015625, 0.068603515625
301, 3862972418, -6.835958480834961, -0.9128435850143433, 7.08103084564209, -2.4610860347747803, -1.391640543937683, -2.262267589569092, 1.12060546875, -0.3876953125, 0.067138671875
302, 3862989085, -6.838686943054199, -0.926783561706543, 7.091183185577393, -2.436830520629883, -1.236363410949707, -2.2985987663269043, 1.12060546875, -0.3896484375, 0.06494140625
303, 3863005752, -6.846007347106934, -0.9261273145675659, 7.058642387390137, -2.4323487281799316, -1.4384733438491821, -2.2103121280670166, 1.1201171875, -0.38818359375, 0.06494140625
304, 3863022419, -6.829176425933838, -0.9145107865333557, 7.081489086151123, -2.37548828125, -1.3798584938049316, -2.2474756240844727, 1.1220703125, -0.38916015625, 0.06494140625
305, 3863039086, -6.849832057952881, -0.8971878290176392, 7.07355260848999, -2.508392810821533, -1.439536213874817, -2.2880210876464844, 1.12060546875, -0.38916015625, 0.069091796875
306, 3863055753, -6.846144676208496, -0.9330174922943115, 7.0868635177612305, -2.5920441150665283, -1.4387809038162231, -2.4095406532287598, 1.12060546875, -0.387451171875, 0.068115234375
307, 3863072420, -6.8635454177856445, -0.9027442336082458, 7.095091342926025, -2.470216989517212, -1.4395618438720703, -2.446794271469116, 1.1201171875, -0.38818359375, 0.067626953125
308, 3863089087, -6.834499835968018, -0.923455536365509, 7.075037956237793, -2.523772954940796, -1.5004817247390747, -2.3220345973968506, 1.12158203125, -0.39013671875, 0.067626953125
309, 3863105754, -6.847379684448242, -0.9259948134422302, 7.098950386047363, -2.546017646789551, -1.4469894170761108, -2.325248956680298, 1.12109375, -0.386962890625, 0.067626953125
310, 3863122421, -6.845946788787842, -0.924980103969574, 7.077686786651611, -2.5040125846862793, -1.2410247325897217, -2.173506498336792, 1.1201171875, -0.38916015625, 0.067138671875
311, 3863139088, -6.846789836883545, -0.9338423609733582, 7.0775604248046875, -2.388320207595825, -1.2565973997116089, -2.13922381401062, 1.12158203125, -0.387451171875, 0.066162109375
312, 3863155755, -6.84726095199585, -0.9205166101455688, 7.088598251342773, -2.5030009746551514, -1.255150318145752, -2.122319221496582, 1.11767578125, -0.388671875, 0.067138671875
313, 3863172422, -6.840313911437988, -0.9134135842323303, 7.089690685272217, -2.5503716468811035, -0.9866523146629333, -2.180421829223633, 1.12158203125, -0.386474609375, 0.070068359375
314, 3863189089, -6.845801830291748, -0.9137499928474426, 7.099104881286621, -2.612738847732544, -1.053283929824829, -2.1549630165100098, 1.1201171875, -0.388671875, 0.069091796875
315, 3863205756, -6.852388858795166, -0.9188526272773743, 7.093813896179199, -2.434384346008301, -0.984027087688446, -2.1137263774871826, 1.1201171875, -0.3876953125, 0.067138671875
316, 3863222423, -6.8634443283081055, -0.9225193858146667, 7.0811285972595215, -2.471574306488037, -0.985346257686615, -2.18709397315979, 1.11962890625, -0.3876953125, 0.068603515625
317, 3863239090, -6.868600845336914, -0.8949602246284485, 7.061268329620361, -2.771422863006592, -1.0645281076431274, -2.387155294418335, 1.12060546875, -0.38818359375, 0.068603515625
318, 3863255757, -6.866783142089844, -0.940514087677002, 7.070928573608398, -2.678281307220459, -1.3207828998565674, -2.3036575317382812, 1.12158203125, -0.39013671875, 0.069580078125
319, 3863272424, -6.8553643226623535, -0.9128286838531494, 7.095885753631592, -2.6018917560577393, -1.2734891176223755, -2.350938558578491, 1.12158203125, -0.3876953125, 0.067138671875
320, 3863289091, -6.849278450012207, -0.9253109097480774, 7.082082271575928, -2.506958246231079, -1.2884341478347778, -2.3199856281280518, 1.11962890625, -0.38916015625, 0.068115234375
321, 3863305758, -6.85514497756958, -0.9225754737854004, 7.087069511413574, -2.6058616638183594, -1.2856166362762451, -2.358494281768799, 1.11962890625, -0.3896484375, 0.067138671875
322, 3863322425, -6.870106220245361, -0.9273858070373535, 7.078393936157227, -2.5352861881256104, -1.2500407695770264, -2.3616960048675537, 1.12158203125, -0.3876953125, 0.066162109375
323, 3863339092, -6.847484111785889, -0.9222825169563293, 7.080080509185791, -2.5078678131103516, -1.3717906475067139, -2.2280490398406982, 1.1220703125, -0.388671875, 0.068115234375
324, 3863355759, -6.8608078956604, -0.9246619939804077, 7.103280544281006, -2.3384904861450195, -1.3354332447052002, -2.157050132751465, 1.11962890625, -0.38818359375, 0.071044921875
325, 3863372426, -6.857818603515625, -0.9176938533782959, 7.0780720710754395, -2.4204254150390625, -1.355564832687378, -2.196903705596924, 1.12060546875, -0.3876953125, 0.070068359375
326, 3863389093, -6.854837894439697, -0.9264171123504639, 7.073265552520752, -2.475313901901245, -1.3969680070877075, -2.233414649963379, 1.11962890625, -0.3896484375, 0.069580078125
327, 3863405760, -6.869832992553711, -0.9229754209518433, 7.062839508056641, -2.483522653579712, -1.3598166704177856, -2.2903518676757812, 1.12060546875, -0.38818359375, 0.068603515625
328, 3863422427, -6.850234508514404, -0.9280485510826111, 7.068201541900635, -2.5682623386383057, -1.394521951675415, -2.307640314102173, 1.12060546875, -0.388671875, 0.067626953125
329, 3863439094, -6.856040954589844, -0.9233761429786682, 7.062351226806641, -2.6056950092315674, -1.269570231437683, -2.2907614707946777, 1.124267578125, -0.388671875, 0.068603515625
330, 3863455761, -6.857562065124512, -0.9237463474273682, 7.064184188842773, -2.4596195220947266, -1.359427809715271, -2.24133563041687, 1.12109375, -0.3896484375, 0.068115234375
331, 3863472428, -6.8645405769348145, -0.9297850728034973, 7.057911396026611, -2.4185049533843994, -1.4570040702819824, -2.304041624069214, 1.1201171875, -0.387451171875, 0.068115234375
332, 3863489095, -6.856747627258301, -0.9045659899711609, 7.073356628417969, -2.386681079864502, -1.6094893217086792, -2.3447532653808594, 1.119140625, -0.38818359375, 0.069580078125
333, 3863505762, -6.8569793701171875, -0.9293805956840515, 7.06442403793335, -2.475928544998169, -1.730035662651062, -2.322739362716675, 1.119140625, -0.3896484375, 0.068115234375
334, 3863522429, -6.8558735847473145, -0.9145065546035767, 7.065829753875732, -2.4003453254699707, -1.6421200037002563, -2.3823912143707275, 1.122314453125, -0.388671875, 0.068603515625
335, 3863539096, -6.865228652954102, -0.9103074669837952, 7.0615339279174805, -2.3843250274658203, -1.6358577013015747, -2.4725732803344727, 1.12060546875, -0.38916015625, 0.068603515625
336, 3863555763, -6.858686447143555, -0.9221394658088684, 7.077564239501953, -2.5004019737243652, -1.7426371574401855, -2.529574394226074, 1.12158203125, -0.388671875, 0.069091796875
337, 3863572430, -6.863302230834961, -0.9274999499320984, 7.082390785217285, -2.430581569671631, -1.6646465063095093, -2.4858791828155518, 1.119140625, -0.38916015625, 0.068115234375
338, 3863589097, -6.867079257965088, -0.9147663712501526, 7.0843634605407715, -2.5331857204437256, -1.671395182609558, -2.4898877143859863, 1.12109375, -0.388671875, 0.068603515625
339, 3863605764, -6.876819133758545, -0.9464423060417175, 7.054106712341309, -2.4823191165924072, -1.6659141778945923, -2.427290201187134, 1.1220703125, -0.3876953125, 0.068115234375
340, 3863622431, -6.873439311981201, -0.9258456826210022, 7.063499450683594, -2.444092035293579, -1.6174933910369873, -2.448241710662842, 1.1220703125, -0.388671875, 0.066162109375
341, 3863639098, -6.858511447906494, -0.9251490235328674, 7.0637030601501465, -2.479271173477173, -1.744378685951233, -2.5788662433624268, 1.119140625, -0.3876953125, 0.068115234375
342, 3863655765, -6.850059986114502, -0.922916054725647, 7.070219993591309, -2.3904976844787598, -1.7828106880187988, -2.6291441917419434, 1.12158203125, -0.387451171875, 0.068603515625
343, 3863672432, -6.8521728515625, -0.934887170791626, 7.068465232849121, -2.3924057483673096, -1.8055291175842285, -2.6033904552459717, 1.122314453125, -0.388671875, 0.066162109375
344, 3863689099, -6.845867156982422, -0.9268569946289062, 7.062464237213135, -2.5142455101013184, -1.8547567129135132, -2.5862300395965576, 1.12060546875, -0.387451171875, 0.066162109375
345, 3863705766, -6.849770545959473, -0.9359546899795532, 7.092287540435791, -2.537040948867798, -1.800508975982666, -2.628631591796875, 1.1201171875, -0.386962890625, 0.069091796875
346, 3863722433, -6.841099739074707, -0.9283141493797302, 7.0945844650268555, -2.4540939331054688, -1.7343002557754517, -2.6070404052734375, 1.12060546875, -0.385986328125, 0.069091796875
347, 3863739100, -6.845346450805664, -0.9477021098136902, 7.078641891479492, -2.524759292602539, -1.5567784309387207, -2.5363874435424805, 1.1220703125, -0.38818359375, 0.067626953125
348, 3863755767, -6.839463710784912, -0.944175124168396, 7.096848964691162, -2.460113048553467, -1.568189024925232, -2.492628574371338, 1.1220703125, -0.38818359375, 0.068603515625
349, 3863772434, -6.857363224029541, -0.9413397312164307, 7.090311050415039, -2.5646767616271973, -1.5179753303527832, -2.4927821159362793, 1.12109375, -0.387451171875, 0.070556640625
350, 3863789101, -6.862612724304199, -0.9443471431732178, 7.069931507110596, -2.3826470375061035, -1.5639883279800415, -2.390062093734741, 1.1220703125, -0.387451171875, 0.068603515625
351, 3863805768, -6.849035263061523, -0.9440513849258423, 7.069253921508789, -2.4799630641937256, -1.6867371797561646, -2.3995516300201416, 1.1220703125, -0.385498046875, 0.066162109375
352, 3863822435, -6.849371910095215, -0.9445209503173828, 7.07363748550415, -2.465581178665161, -1.707521915435791, -2.3255693912506104, 1.12060546875, -0.388671875, 0.067138671875
353, 3863839102, -6.842844009399414, -0.9194782376289368, 7.106765270233154, -2.3309478759765625, -1.6324255466461182, -2.303734302520752, 1.1220703125, -0.387451171875, 0.068603515625
354, 3863855769, -6.853849411010742, -0.9208775758743286, 7.082782745361328, -2.529651403427124, -1.5141334533691406, -2.4130496978759766, 1.119140625, -0.386474609375, 0.067626953125
355, 3863872436, -6.856334686279297, -0.934395968914032, 7.066299915313721, -2.463813543319702, -1.5179752111434937, -2.418863534927368, 1.12109375, -0.386962890625, 0.069091796875
356, 3863889103, -6.85258674621582, -0.931617259979248, 7.0922112464904785, -2.5270133018493652, -1.338097095489502, -2.4231793880462646, 1.1201171875, -0.386962890625, 0.069580078125
357, 3863905770, -6.8564653396606445, -0.9559036493301392, 7.066792964935303, -2.4495604038238525, -1.4530214071273804, -2.330986261367798, 1.12158203125, -0.388671875, 0.066162109375
358, 3863922437, -6.854445457458496, -0.9425361752510071, 7.072004795074463, -2.41115403175354, -1.5833771228790283, -2.2946674823760986, 1.12060546875, -0.385986328125, 0.067626953125
359, 3863939104, -6.865319728851318, -0.9467617869377136, 7.0774078369140625, -2.378241539001465, -1.5809053182601929, -2.338810682296753, 1.12060546875, -0.385498046875, 0.06640625
360, 3863955771, -6.8674750328063965, -0.9320852756500244, 7.061185836791992, -2.3657426834106445, -1.6334755420684814, -2.3093435764312744, 1.12060546875, -0.3876953125, 0.06591796875
361, 3863972438, -6.846755504608154, -0.9476063251495361, 7.084249496459961, -2.324915885925293, -1.630619764328003, -2.3280153274536133, 1.1201171875, -0.386962890625, 0.067138671875
362, 3863989105, -6.857892036437988, -0.9392433166503906, 7.072504043579102, -2.3427681922912598, -1.504093050956726, -2.334674835205078, 1.12060546875, -0.386962890625, 0.066162109375
363, 3864005772, -6.863936901092529, -0.9458641409873962, 7.07556676864624, -2.3456623554229736, -1.5488641262054443, -2.3400917053222656, 1.1201171875, -0.385986328125, 0.066650390625
364, 3864022439, -6.850890636444092, -0.9431078433990479, 7.072864532470703, -2.262728691101074, -1.7210454940795898, -2.36004376411438, 1.1201171875, -0.387451171875, 0.0654296875
365, 3864039106, -6.859138011932373, -0.932090699672699, 7.075408935546875, -2.292788028717041, -1.7409698963165283, -2.3240976333618164, 1.11962890625, -0.386962890625, 0.070068359375
366, 3864055773, -6.866328716278076, -0.9319421052932739, 7.079805850982666, -2.3256587982177734, -1.73788583278656, -2.251842975616455, 1.123046875, -0.386962890625, 0.067138671875
367, 3864072440, -6.858152389526367, -0.9362760782241821, 7.0667338371276855, -2.2808620929718018, -1.7743068933486938, -2.2609355449676514, 1.11962890625, -0.385986328125, 0.068115234375
368, 3864089107, -6.8330302238464355, -0.9333937168121338, 7.07224178314209, -2.287905216217041, -1.684444785118103, -2.2811951637268066, 1.12109375, -0.385986328125, 0.067626953125
369, 3864105774, -6.850948333740234, -0.9300174713134766, 7.079428195953369, -2.3313448429107666, -1.4835901260375977, -2.251612663269043, 1.1201171875, -0.38916015625, 0.067626953125
370, 3864122441, -6.837264537811279, -0.938819944858551, 7.0599565505981445, -2.378267288208008, -1.5440105199813843, -2.3647310733795166, 1.11865234375, -0.386474609375, 0.067138671875
371, 3864139108, -6.841625690460205, -0.9348646998405457, 7.0792765617370605, -2.462430715560913, -1.4449020624160767, -2.3185384273529053, 1.1220703125, -0.386962890625, 0.068603515625
372, 3864155775, -6.844506740570068, -0.9438607692718506, 7.076812744140625, -2.3982839584350586, -1.5685474872589111, -2.2668395042419434, 1.119140625, -0.385986328125, 0.067626953125
373, 3864172442, -6.8532891273498535, -0.9443961977958679, 7.05898904800415, -2.3363263607025146, -1.667284369468689, -2.2858824729919434, 1.119140625, -0.3876953125, 0.067626953125
374, 3864189109, -6.861429214477539, -0.9283978939056396, 7.084516525268555, -2.410398006439209, -1.7171777486801147, -2.3127756118774414, 1.12060546875, -0.386962890625, 0.067626953125
375, 3864205776, -6.848299980163574, -0.9362989068031311, 7.050559043884277, -2.5114026069641113, -1.7039875984191895, -2.417672872543335, 1.11962890625, -0.385986328125, 0.067138671875
376, 3864222443, -6.841024398803711, -0.9318419694900513, 7.084812641143799, -2.4884531497955322, -1.5646287202835083, -2.3922390937805176, 1.123046875, -0.385498046875, 0.066162109375
377, 3864239110, -6.84872579574585, -0.9317704439163208, 7.082473278045654, -2.5637929439544678, -1.4833852052688599, -2.44299054145813, 1.12109375, -0.386962890625, 0.067138671875
378, 3864255777, -6.847964286804199, -0.935063362121582, 7.0622358322143555, -2.5176007747650146, -1.4729866981506348, -2.5003890991210938, 1.12060546875, -0.386474609375, 0.06494140625
379, 3864272444, -6.84030818939209, -0.9529469013214111, 7.094707012176514, -2.4942545890808105, -1.5747328996658325, -2.3775246143341064, 1.1201171875, -0.386962890625, 0.06640625
380, 3864289111, -6.838709831237793, -0.9305796027183533, 7.088663101196289, -2.467130422592163, -1.577601432800293, -2.3935961723327637, 1.1220703125, -0.386962890625, 0.067626953125
381, 3864305778, -6.861363887786865, -0.9345118999481201, 7.062156677246094, -2.525988817214966, -1.5578285455703735, -2.4700379371643066, 1.12109375, -0.386962890625, 0.068115234375
382, 3864322445, -6.853438377380371, -0.9470153450965881, 7.073443412780762, -2.5725655555725098, -1.5188333988189697, -2.4820759296417236, 1.1220703125, -0.386474609375, 0.068115234375
383, 3864339112, -6.86406135559082, -0.9400354027748108, 7.062721252441406, -2.545736312866211, -1.5200114250183105, -2.5895981788635254, 1.12158203125, -0.3876953125, 0.066650390625
384, 3864355779, -6.86525821685791, -0.9136473536491394, 7.0800862312316895, -2.8614633083343506, -1.367295503616333, -2.8468899726867676, 1.11962890625, -0.3876953125, 0.067626953125
385, 3864372446, -6.867923736572266, -0.9065865278244019, 7.080569267272949, -3.007200241088867, -1.3714960813522339, -3.1290910243988037, 1.12158203125, -0.385986328125, 0.068115234375
386, 3864389113, -6.855503559112549, -0.9557018876075745, 7.071808338165283, -3.161952018737793, -1.3113192319869995, -3.198680877685547, 1.12060546875, -0.383544921875, 0.068115234375
387, 3864405780, -6.854489326477051, -0.9688816070556641, 7.079530239105225, -3.0897884368896484, -1.3546814918518066, -3.158853054046631, 1.12109375, -0.385009765625, 0.066162109375
388, 3864422447, -6.836155891418457, -0.9883530735969543, 7.086790561676025, -2.7423899173736572, -1.5432931184768677, -2.716738700866699, 1.123046875, -0.384521484375, 0.068115234375
389, 3864439114, -6.8534836769104, -0.9800060987472534, 7.083077430725098, -2.532520294189453, -1.5865918397903442, -2.5208277702331543, 1.1220703125, -0.385498046875, 0.067626953125
390, 3864455781, -6.850817680358887, -0.959053635597229, 7.088451385498047, -2.4226410388946533, -1.5408341884613037, -2.3484795093536377, 1.1201171875, -0.386962890625, 0.067626953125
391, 3864472448, -6.858132362365723, -0.9574466347694397, 7.065090656280518, -2.4404165744781494, -1.5010451078414917, -2.371748924255371, 1.11962890625, -0.385986328125, 0.066650390625
392, 3864489115, -6.85384464263916, -0.9579203128814697, 7.080281734466553, -2.5179717540740967, -1.312855839729309, -2.3593268394470215, 1.12060546875, -0.384521484375, 0.067138671875
393, 3864505782, -6.861340522766113, -0.9464948773384094, 7.073721885681152, -2.53395414352417, -1.2278985977172852, -2.3131086826324463, 1.11962890625, -0.385986328125, 0.069580078125
394, 3864522449, -6.8397393226623535, -0.9595800638198853, 7.099803447723389, -2.619487762451172, -1.3379563093185425, -2.3981430530548096, 1.12109375, -0.384521484375, 0.06494140625
395, 3864539116, -6.8445258140563965, -0.9851532578468323, 7.073729038238525, -2.5972816944122314, -1.0765531063079834, -2.238422155380249, 1.12158203125, -0.385498046875, 0.06591796875
396, 3864555783, -6.8421807289123535, -0.9612012505531311, 7.054933071136475, -2.429684638977051, -1.0465476512908936, -2.1223320960998535, 1.12060546875, -0.385986328125, 0.067626953125
397, 3864572450, -6.843669891357422, -0.9784697890281677, 7.0722880363464355, -2.4189658164978027, -1.0128413438796997, -2.0896377563476562, 1.12158203125, -0.383544921875, 0.067138671875
398, 3864589117, -6.8466691970825195, -0.9441390633583069, 7.06368350982666, -2.469576358795166, -1.0516445636749268, -2.1172351837158203, 1.1201171875, -0.383056640625, 0.069091796875
399, 3864605784, -6.850615501403809, -0.9521415829658508, 7.082793712615967, -2.3298590183258057, -1.2106482982635498, -2.0302929878234863, 1.12109375, -0.385009765625, 0.068603515625
400, 3864622451, -6.862635612487793, -0.9645591974258423, 7.0475263595581055, -2.357520818710327, -1.393087387084961, -2.05171799659729, 1.12109375, -0.385009765625, 0.066162109375
401, 3864639118, -6.874837398529053, -0.9405812621116638, 7.073812961578369, -2.427298069000244, -1.425581455230713, -2.1773715019226074, 1.12109375, -0.382568359375, 0.06640625
402, 3864655785, -6.8597941398620605, -0.9379347562789917, 7.066669940948486, -2.604862689971924, -1.536928415298462, -2.391944408416748, 1.1220703125, -0.386962890625, 0.069091796875
403, 3864672452, -6.840009689331055, -0.9775005578994751, 7.105386734008789, -2.6445884704589844, -1.390577793121338, -2.600253105163574, 1.11962890625, -0.385009765625, 0.069091796875
404, 3864689119, -6.864206790924072, -0.9631856083869934, 7.068962097167969, -2.815476417541504, -1.1870975494384766, -2.625763177871704, 1.11962890625, -0.385986328125, 0.066650390625
405, 3864705786, -6.837554931640625, -0.98519366979599, 7.047008991241455, -2.64205265045166, -1.3195152282714844, -2.5778932571411133, 1.12060546875, -0.385498046875, 0.067626953125
406, 3864722453, -6.844241619110107, -0.9742828011512756, 7.042532444000244, -2.6310391426086426, -1.371047854423523, -2.420297861099243, 1.12060546875, -0.385009765625, 0.069580078125
407, 3864739120, -6.845987796783447, -0.9287252426147461, 7.084015846252441, -2.7042534351348877, -1.4435958862304688, -2.628324270248413, 1.1220703125, -0.383056640625, 0.068603515625
408, 3864755787, -6.844841957092285, -0.9152068495750427, 7.095506191253662, -2.9409141540527344, -1.1318763494491577, -2.974005699157715, 1.1201171875, -0.384033203125, 0.069091796875
409, 3864772454, -6.85961389541626, -0.8331759572029114, 7.124087810516357, -3.989241600036621, -0.38999179005622864, -3.990138530731201, 1.1201171875, -0.383544921875, 0.069091796875
410, 3864789121, -6.893857955932617, -0.9026809930801392, 7.083660125732422, -5.575680255889893, 0.809022068977356, -5.519076347351074, 1.1201171875, -0.3818359375, 0.068115234375
411, 3864805788, -6.884061813354492, -0.9623894095420837, 7.062795162200928, -5.900309085845947, 1.3284859657287598, -5.820205211639404, 1.11962890625, -0.38232421875, 0.071044921875
412, 3864822455, -6.875712871551514, -1.0586817264556885, 7.047104358673096, -5.698185920715332, 1.045491337776184, -5.748373985290527, 1.12109375, -0.37841796875, 0.070068359375
413, 3864839122, -6.874209880828857, -1.0711185932159424, 7.022891044616699, -5.510663032531738, 0.6477004289627075, -5.237977504730225, 1.1220703125, -0.3779296875, 0.071044921875
414, 3864855789, -6.87912654876709, -1.0833956003189087, 7.018372058868408, -4.77781867980957, 0.31874367594718933, -4.672140598297119, 1.12353515625, -0.376220703125, 0.070068359375
415, 3864872456, -6.875565528869629, -1.1066927909851074, 7.017018795013428, -4.1077141761779785, -0.523651659488678, -3.934636354446411, 1.1220703125, -0.3779296875, 0.07177734375
416, 3864889123, -6.855967998504639, -1.132877230644226, 7.016401767730713, -3.0711677074432373, -1.08527410030365, -2.9227676391601562, 1.12158203125, -0.375732421875, 0.0732421875
417, 3864905790, -6.863248825073242, -1.07987380027771, 7.026045799255371, -2.5002219676971436, -1.4430066347122192, -2.354024648666382, 1.123046875, -0.37841796875, 0.0732421875
418, 3864922457, -6.883447647094727, -1.0498636960983276, 7.033263206481934, -2.3035035133361816, -1.3253802061080933, -2.1725587844848633, 1.12158203125, -0.3779296875, 0.070556640625
419, 3864939124, -6.872049331665039, -1.034665822982788, 7.025212287902832, -2.3643851280212402, -0.9974864721298218, -2.0056278705596924, 1.12255859375, -0.37744140625, 0.072265625
420, 3864955791, -6.876621246337891, -1.0602636337280273, 7.041518211364746, -2.135190010070801, -0.9011571407318115, -1.6344486474990845, 1.1220703125, -0.37841796875, 0.07421875
421, 3864972458, -6.860298156738281, -1.13222074508667, 6.977215766906738, -1.575859785079956, -1.1191598176956177, -0.9144246578216553, 1.1220703125, -0.3779296875, 0.07373046875
422, 3864989125, -6.880834579467773, -1.1116007566452026, 6.995789527893066, -0.6461058855056763, -1.716678261756897, 0.1734427809715271, 1.12060546875, -0.3779296875, 0.07373046875
423, 3865005792, -6.881722927093506, -1.0662041902542114, 6.998613357543945, 0.08720483630895615, -2.399167060852051, 0.8690580725669861, 1.1220703125, -0.380859375, 0.07275390625
424, 3865022459, -6.880403518676758, -1.0419869422912598, 7.044191837310791, 0.4768892526626587, -2.966245174407959, 1.1957095861434937, 1.123046875, -0.37890625, 0.07275390625
425, 3865039126, -6.882261753082275, -0.9833210706710815, 7.062019348144531, 0.24011266231536865, -2.8618862628936768, 1.0753172636032104, 1.123046875, -0.382568359375, 0.07080078125
426, 3865055793, -6.877864837646484, -0.9797236919403076, 7.070375919342041, -0.1924794465303421, -2.207366466522217, 0.838079571723938, 1.12255859375, -0.382568359375, 0.072265625
427, 3865072460, -6.881877899169922, -0.958678662776947, 7.063655376434326, -0.786655604839325, -1.2793543338775635, 0.39615800976753235, 1.123046875, -0.383544921875, 0.070556640625
428, 3865089127, -6.90378999710083, -0.9510825276374817, 7.07281494140625, -1.1603578329086304, -1.286064863204956, -0.10657445341348648, 1.12255859375, -0.386474609375, 0.07080078125
429, 3865105794, -6.930680274963379, -0.8745148777961731, 7.081833839416504, -1.2467879056930542, -1.6355117559432983, -0.6610254049301147, 1.124755859375, -0.383544921875, 0.0712890625
430, 3865122461, -6.9705328941345215, -0.7360674738883972, 7.107640743255615, -0.9223518371582031, -2.4964957237243652, -1.6206696033477783, 1.12255859375, -0.385498046875, 0.07275390625
431, 3865139128, -7.0286078453063965, -1.0502381324768066, 7.077392101287842, -2.710925579071045, -6.240087985992432, -1.4370266199111938, 1.1220703125, -0.385986328125, 0.07080078125
432, 3865155795, -6.906078338623047, -0.6647631525993347, 7.0185699462890625, -4.776129245758057, -8.282431602478027, -1.6403529644012451, 1.11962890625, -0.386962890625, 0.070556640625
433, 3865172462, -6.652889251708984, -0.22443673014640808, 7.138312816619873, -5.0757222175598145, -8.66723918914795, -6.470616340637207, 1.119140625, -0.383544921875, 0.067626953125
434, 3865189129, -6.692362308502197, -0.7657435536384583, 7.0227813720703125, -8.057851791381836, -4.954409599304199, -11.399953842163086, 1.12060546875, -0.383544921875, 0.067138671875
435, 3865205796, -6.77116584777832, -1.5147621631622314, 6.923502445220947, -7.869673252105713, -1.7086243629455566, -9.775886535644531, 1.118896484375, -0.3779296875, 0.06640625
436, 3865222463, -6.815059185028076, -1.8761330842971802, 6.835446834564209, -3.907998561859131, -2.5884838104248047, -3.000246524810791, 1.119873046875, -0.3779296875, 0.06787109375
437, 3865239130, -6.721831321716309, -1.6309219598770142, 6.929163932800293, 0.5779350996017456, -5.057026386260986, 2.786424398422241, 1.119873046875, -0.37939453125, 0.06689453125
438, 3865255797, -6.706327438354492, -0.9995270371437073, 7.201433181762695, 4.742558479309082, -6.708250522613525, 6.128116130828857, 1.118896484375, -0.382568359375, 0.064453125
439, 3865272464, -6.696462154388428, -0.8346421122550964, 7.296159267425537, 4.956871509552002, -4.501112937927246, 4.811391353607178, 1.117919921875, -0.384521484375, 0.06591796875
440, 3865289131, -6.795266628265381, -0.7820701599121094, 7.159865856170654, 2.518183469772339, -2.4305686950683594, 1.9975539445877075, 1.116943359375, -0.383544921875, 0.06396484375
441, 3865305798, -6.82849645614624, -1.3583110570907593, 6.922877311706543, 1.6709275245666504, -3.4585084915161133, 1.6376311779022217, 1.114501953125, -0.383056640625, 0.063720703125
442, 3865322465, -6.915680885314941, -1.0891627073287964, 6.989891529083252, 2.8224620819091797, -6.782858371734619, 3.24381685256958, 1.114501953125, -0.383544921875, 0.063720703125
443, 3865339132, -6.8904314041137695, -0.714168906211853, 7.201717376708984, 2.217566967010498, -7.726800918579102, 2.5053257942199707, 1.114501953125, -0.386962890625, 0.062255859375
444, 3865355799, -6.695058345794678, -0.8139487504959106, 7.307595252990723, -0.4360818862915039, -5.218870162963867, 0.2139749377965927, 1.111328125, -0.385009765625, 0.062255859375
445, 3865372466, -6.744527339935303, -0.8824387788772583, 7.195928573608398, -2.1875674724578857, -2.5979087352752686, 0.050757959485054016, 1.11083984375, -0.38720703125, 0.060791015625
446, 3865389133, -6.807462215423584, -0.9861394762992859, 7.197010517120361, -2.648148536682129, -0.7659221887588501, 0.7690917253494263, 1.112060546875, -0.388671875, 0.05908203125
447, 3865405800, -6.808244705200195, -1.3298290967941284, 7.1525397300720215, -1.2971168756484985, 0.761011004447937, 3.497126340866089, 1.11181640625, -0.38671875, 0.05908203125
448, 3865422467, -6.889491081237793, -1.5172449350357056, 7.105607032775879, 2.098801374435425, 0.2420337051153183, 8.02618408203125, 1.113037109375, -0.39208984375, 0.060791015625
449, 3865439134, -6.878814697265625, -1.1819392442703247, 7.140301704406738, 4.382636070251465, -0.38467735052108765, 11.223918914794922, 1.111083984375, -0.393798828125, 0.064453125
450, 3865455801, -6.992778301239014, -0.30395185947418213, 6.904477596282959, 4.739946365356445, -2.5295627117156982, 11.193069458007812, 1.11328125, -0.3994140625, 0.0634765625
451, 3865472468, -6.891098499298096, -0.41680908203125, 7.003626346588135, 3.9035491943359375, -8.703415870666504, 6.756882190704346, 1.11376953125, -0.39990234375, 0.0615234375
452, 3865489135, -6.707440376281738, -1.8327480554580688, 7.305638790130615, 6.287058353424072, -9.646724700927734, 11.110113143920898, 1.1123046875, -0.404541015625, 0.058349609375
453, 3865505802, -6.664754390716553, -1.8204518556594849, 7.383123397827148, 11.027005195617676, -3.364326000213623, 23.532411575317383, 1.1123046875, -0.41259765625, 0.06103515625
454, 3865522469, -6.5810699462890625, 0.0556056834757328, 7.6859588623046875, 9.64017105102539, 5.852450370788574, 28.52882957458496, 1.112548828125, -0.42138671875, 0.06201171875
455, 3865539136, -6.586555004119873, 0.9269979596138, 7.4352617263793945, 2.3559844493865967, 16.011497497558594, 22.92804718017578, 1.113525390625, -0.428466796875, 0.065673828125
456, 3865555803, -6.710490703582764, 1.4451252222061157, 7.280821800231934, -7.098348140716553, 24.00358772277832, 10.932560920715332, 1.118408203125, -0.4326171875, 0.072998046875
457, 3865572470, -7.0070672035217285, 2.0349855422973633, 6.872836589813232, -17.82811737060547, 25.95734214782715, -7.868365287780762, 1.121826171875, -0.43017578125, 0.078857421875
458, 3865589137, -7.291146278381348, 0.9814521670341492, 6.568226337432861, -21.120338439941406, 16.451868057250977, -26.60552978515625, 1.124267578125, -0.4228515625, 0.08447265625
459, 3865605804, -7.124912261962891, -0.8802096247673035, 6.801936149597168, -21.29497718811035, 3.673487424850464, -31.092124938964844, 1.125732421875, -0.41357421875, 0.083984375
460, 3865622471, -7.158413887023926, -2.3436079025268555, 6.612812042236328, -14.324091911315918, -5.108094692230225, -22.58272361755371, 1.12548828125, -0.407958984375, 0.083740234375
461, 3865639138, -7.128817081451416, -1.7088637351989746, 6.732381343841553, -5.287968158721924, -16.49321174621582, -13.198273658752441, 1.12255859375, -0.404052734375, 0.080078125
462, 3865655805, -6.904754161834717, -1.291979193687439, 7.030943870544434, -0.6551483273506165, -21.11883544921875, -8.276899337768555, 1.118896484375, -0.40234375, 0.075439453125
463, 3865672472, -6.717841148376465, -0.8440254330635071, 7.461786270141602, 0.12202542275190353, -15.95673942565918, -5.484312057495117, 1.118408203125, -0.40087890625, 0.0732421875
464, 3865689139, -6.643548488616943, -0.44891583919525146, 7.514796733856201, -1.4910178184509277, -6.131335258483887, -5.061569690704346, 1.1171875, -0.40087890625, 0.069580078125
465, 3865705806, -6.655540943145752, -0.06057043373584747, 7.33494758605957, -5.787818908691406, 2.9651002883911133, -8.140000343322754, 1.1162109375, -0.397705078125, 0.070556640625
466, 3865722473, -6.847513675689697, -0.5799234509468079, 7.087424278259277, -10.030878067016602, 6.737445831298828, -11.866066932678223, 1.1181640625, -0.396728515625, 0.0712890625
467, 3865739140, -6.967686653137207, -1.299079418182373, 6.955840110778809, -11.296586036682129, 7.822737216949463, -12.74262809753418, 1.1201171875, -0.393798828125, 0.07373046875
468, 3865755807, -7.042731285095215, -1.2455514669418335, 6.8775129318237305, -8.514843940734863, 5.052831649780273, -9.523897171020508, 1.11962890625, -0.3916015625, 0.077880859375
469, 3865772474, -6.94340181350708, -1.051849603652954, 7.08871603012085, -8.063509941101074, 3.671063184738159, -9.201404571533203, 1.12158203125, -0.3896484375, 0.076416015625
470, 3865789141, -6.9672770500183105, -0.7990903854370117, 7.015503406524658, -8.887958526611328, 5.3689446449279785, -9.36795425415039, 1.123291015625, -0.39306640625, 0.08056640625
471, 3865805808, -6.8901286125183105, -0.7972530126571655, 7.114870548248291, -10.78093147277832, 6.15446138381958, -11.10019588470459, 1.126708984375, -0.38916015625, 0.080078125
472, 3865822475, -6.929079532623291, -1.2498608827590942, 6.915701389312744, -10.523842811584473, 6.296560764312744, -10.360037803649902, 1.12841796875, -0.38818359375, 0.0810546875
473, 3865839142, -6.983702659606934, -1.3146939277648926, 6.862408638000488, -8.603435516357422, 4.321227073669434, -8.704753875732422, 1.127685546875, -0.387451171875, 0.08251953125
474, 3865855809, -6.9523210525512695, -1.3870512247085571, 6.773036003112793, -4.471465587615967, -0.07277848571538925, -4.85659122467041, 1.13037109375, -0.385498046875, 0.083740234375
475, 3865872476, -6.981112480163574, -1.0544803142547607, 7.0149736404418945, -3.4571127891540527, -1.2698007822036743, -4.201084613800049, 1.127685546875, -0.385498046875, 0.082763671875
476, 3865889143, -7.021821022033691, -1.409470796585083, 6.80426549911499, -3.4666788578033447, 0.4210919737815857, -2.3498241901397705, 1.1298828125, -0.385009765625, 0.0810546875
477, 3865905810, -7.009148120880127, -0.7193377614021301, 6.976168632507324, -2.8844001293182373, -1.994461178779602, -1.9791322946548462, 1.12939453125, -0.384033203125, 0.08154296875
478, 3865922477, -6.9695868492126465, -1.0173431634902954, 7.0329694747924805, -4.996358871459961, 0.5384365916252136, -3.478499412536621, 1.1298828125, -0.384521484375, 0.07958984375
479, 3865939144, -6.949028015136719, -0.9776265621185303, 6.960293292999268, -5.991426467895508, 1.8549169301986694, -4.053184986114502, 1.130859375, -0.383544921875, 0.084716796875
480, 3865955811, -6.926963806152344, -1.1388590335845947, 6.930017471313477, -6.444616317749023, 3.2018375396728516, -4.402016639709473, 1.12939453125, -0.38330078125, 0.08740234375
481, 3865972478, -6.9850687980651855, -1.2308244705200195, 6.838744640350342, -4.452844619750977, 2.4885876178741455, -3.3829896450042725, 1.13134765625, -0.38037109375, 0.085693359375
482, 3865989145, -7.04055643081665, -1.072284460067749, 6.8117499351501465, -2.9138028621673584, 0.5288702249526978, -3.041687250137329, 1.13134765625, -0.380859375, 0.08837890625
483, 3866005812, -7.006374359130859, -0.9124380350112915, 6.933150768280029, -2.4244210720062256, -0.8803468942642212, -3.270690441131592, 1.130859375, -0.37939453125, 0.08740234375
484, 3866022479, -7.017065048217773, -0.9600621461868286, 6.945313930511475, -3.470059871673584, -0.26506584882736206, -4.614345550537109, 1.13134765625, -0.3818359375, 0.087890625
485, 3866039146, -7.001859664916992, -1.0882235765457153, 6.920431137084961, -3.90682053565979, 0.17216214537620544, -4.704233169555664, 1.129638671875, -0.38037109375, 0.087158203125
486, 3866055813, -6.9896955490112305, -1.219359040260315, 6.843745708465576, -3.3115177154541016, -0.5518001317977905, -4.042440891265869, 1.13134765625, -0.38037109375, 0.09033203125
487, 3866072480, -6.944857597351074, -1.2842557430267334, 6.843373775482178, -2.0654079914093018, -1.40065598487854, -2.493818759918213, 1.1318359375, -0.37890625, 0.087158203125
488, 3866089147, -6.992649555206299, -1.0472819805145264, 6.917232036590576, -1.0759767293930054, -1.9753153324127197, -1.5811998844146729, 1.130126953125, -0.377685546875, 0.08984375
489, 3866105814, -7.003846168518066, -0.9766049385070801, 6.958528518676758, -1.9615741968154907, -1.1156506538391113, -2.2983553409576416, 1.130859375, -0.38037109375, 0.087890625
490, 3866122481, -7.025460720062256, -1.0793144702911377, 6.915746212005615, -2.406710147857666, -0.37407347559928894, -2.624213457107544, 1.1328125, -0.378173828125, 0.08740234375
491, 3866139148, -7.004390239715576, -1.1265846490859985, 6.884887218475342, -2.2186357975006104, -0.08838941901922226, -2.5930936336517334, 1.134765625, -0.3798828125, 0.08837890625
492, 3866155815, -6.994477272033691, -1.1974245309829712, 6.909936904907227, -1.654836654663086, 0.33801722526550293, -1.8439862728118896, 1.13037109375, -0.37939453125, 0.08935546875
493, 3866172482, -7.032754421234131, -1.17902410030365, 6.85422420501709, -0.9745376706123352, 0.39984628558158875, -0.9044229388237, 1.13037109375, -0.380859375, 0.091796875
494, 3866189149, -7.037289142608643, -1.1196603775024414, 6.8538899421691895, -0.4616560637950897, -0.27727025747299194, -0.22047410905361176, 1.13134765625, -0.38037109375, 0.09033203125
495, 3866205816, -7.051177501678467, -1.040776014328003, 6.9014058113098145, -0.3859705626964569, -0.9043843746185303, -0.3602553904056549, 1.1318359375, -0.3798828125, 0.0908203125
496, 3866222483, -7.043384552001953, -1.015128254890442, 6.896956920623779, -0.3690406084060669, -1.529872179031372, -0.38334527611732483, 1.1328125, -0.38134765625, 0.0908203125
497, 3866239150, -7.036488056182861, -1.1081081628799438, 6.8742995262146, -0.1617569923400879, -1.8664612770080566, 0.041742295026779175, 1.1328125, -0.38330078125, 0.08984375
498, 3866255817, -7.066688060760498, -1.154803991317749, 6.868251323699951, 0.520430862903595, -2.692150831222534, 1.0880979299545288, 1.1318359375, -0.38330078125, 0.09033203125
499, 3866272484, -7.058612823486328, -1.1131988763809204, 6.842580795288086, 1.1721333265304565, -4.000959873199463, 1.9184106588363647, 1.130859375, -0.383544921875, 0.09033203125
500, 3866289151, -7.040307521820068, -1.0418050289154053, 6.87103271484375, 1.503612756729126, -4.703145503997803, 2.3672730922698975, 1.13134765625, -0.387451171875, 0.0888671875
501, 3866305818, -7.028270244598389, -0.9699521660804749, 6.898426055908203, 1.3963724374771118, -4.791111946105957, 2.0869548320770264, 1.130859375, -0.3896484375, 0.08642578125
502, 3866322485, -7.01005220413208, -0.919529378414154, 6.913444519042969, 0.8765369653701782, -4.648205280303955, 1.382567048072815, 1.13232421875, -0.3896484375, 0.08544921875
503, 3866339152, -6.975101470947266, -0.8834874629974365, 6.959458351135254, 0.24611885845661163, -4.300564765930176, 0.3295009732246399, 1.130859375, -0.38916015625, 0.084716796875
504, 3866355819, -6.968247890472412, -0.8918401002883911, 6.95219612121582, -0.407869428396225, -3.556502342224121, -0.41935670375823975, 1.132080078125, -0.3916015625, 0.084228515625
505, 3866372486, -6.9671125411987305, -0.9462308883666992, 6.960695743560791, -1.0208326578140259, -2.3897545337677, -0.7954920530319214, 1.132080078125, -0.39306640625, 0.084228515625
506, 3866389153, -6.989568710327148, -0.995133638381958, 6.9361395835876465, -0.9550589323043823, -1.650354027748108, -0.4721956253051758, 1.131591796875, -0.392578125, 0.0849609375
507, 3866405820, -7.0040602684021, -0.9446871280670166, 6.931087017059326, -0.8707422018051147, -1.4570552110671997, -0.19647502899169922, 1.131591796875, -0.395263671875, 0.083740234375
508, 3866422487, -7.018972396850586, -0.9571729302406311, 6.949598789215088, -0.8736492395401001, -1.3980308771133423, -0.03863675892353058, 1.131103515625, -0.394287109375, 0.083740234375
509, 3866439154, -7.018628120422363, -0.9535382390022278, 6.922318458557129, -0.7295339107513428, -1.4447001218795776, 0.1603194624185562, 1.131591796875, -0.397705078125, 0.083984375
510, 3866455821, -7.025843620300293, -0.8941435217857361, 6.933635234832764, -0.7302309274673462, -1.5132496356964111, 0.03459635749459267, 1.134033203125, -0.396728515625, 0.0849609375
511, 3866472488, -7.025828838348389, -0.8944280743598938, 6.941773414611816, -0.8439127802848816, -1.545495867729187, -0.20996010303497314, 1.130615234375, -0.397705078125, 0.082763671875
512, 3866489155, -7.031341075897217, -0.9302605986595154, 6.925156593322754, -0.7090876698493958, -2.3051044940948486, -0.24197602272033691, 1.131103515625, -0.3994140625, 0.083984375
513, 3866505822, -7.022668838500977, -0.9251539707183838, 6.914836883544922, -0.3006930649280548, -3.364330291748047, -0.15852978825569153, 1.129638671875, -0.397705078125, 0.083251953125
514, 3866522489, -7.0247416496276855, -0.9013701677322388, 6.930933952331543, -0.23261456191539764, -4.229745388031006, -0.11502664536237717, 1.131103515625, -0.39990234375, 0.082275390625
515, 3866539156, -7.003317832946777, -0.8526232838630676, 6.968350887298584, -0.5475098490715027, -4.270789623260498, -0.20153354108333588, 1.131103515625, -0.3994140625, 0.082275390625
516, 3866555823, -6.979343414306641, -0.8414542078971863, 6.980567932128906, -0.9167810678482056, -3.88498592376709, -0.598504900932312, 1.130126953125, -0.4013671875, 0.082275390625
517, 3866572490, -6.981055736541748, -0.8123791217803955, 6.956929683685303, -1.1919126510620117, -3.347426176071167, -1.082930564880371, 1.130615234375, -0.3994140625, 0.081298828125
518, 3866589157, -6.99483060836792, -0.8117122650146484, 6.959566116333008, -1.5586224794387817, -3.072986125946045, -1.6881333589553833, 1.130126953125, -0.40087890625, 0.080322265625
519, 3866605824, -6.9897332191467285, -0.8620156645774841, 6.945967674255371, -1.6001408100128174, -3.2993388175964355, -1.7561603784561157, 1.131591796875, -0.3994140625, 0.079833984375
520, 3866622491, -6.960476875305176, -0.954948365688324, 6.979048728942871, -1.420928716659546, -3.358901262283325, -1.3188621997833252, 1.131591796875, -0.400390625, 0.079345703125
521, 3866639158, -6.966782093048096, -0.8829557299613953, 6.9600396156311035, -1.0997323989868164, -2.875332832336426, -0.8468710780143738, 1.130126953125, -0.40185546875, 0.078125
522, 3866655825, -6.983769416809082, -0.8148766756057739, 6.969300270080566, -1.1955622434616089, -2.5768680572509766, -0.9576843976974487, 1.131103515625, -0.40283203125, 0.080322265625
523, 3866672492, -6.9477152824401855, -0.8124861717224121, 6.982637405395508, -1.408557653427124, -2.4326300621032715, -1.1416221857070923, 1.129638671875, -0.4033203125, 0.0791015625
524, 3866689159, -6.9567084312438965, -0.8195383548736572, 6.992029666900635, -1.446515679359436, -2.208134889602661, -1.3584336042404175, 1.132568359375, -0.404296875, 0.079833984375
525, 3866705826, -6.954062461853027, -0.8721626400947571, 6.954012870788574, -1.5576874017715454, -2.484879732131958, -1.6665542125701904, 1.131103515625, -0.40234375, 0.07666015625
526, 3866722493, -6.934502124786377, -0.9440547823905945, 6.935602188110352, -1.2740782499313354, -2.7625088691711426, -1.3411961793899536, 1.131591796875, -0.4033203125, 0.0771484375
527, 3866739160, -6.975283622741699, -0.8551120162010193, 6.941077709197998, -1.171345591545105, -3.1229822635650635, -1.188570261001587, 1.132080078125, -0.406005859375, 0.0751953125
528, 3866755827, -6.965973377227783, -0.8237258195877075, 6.9641313552856445, -1.3629412651062012, -3.6287941932678223, -1.569533348083496, 1.129638671875, -0.404052734375, 0.076171875
529, 3866772494, -6.9354166984558105, -0.7907481789588928, 7.028309345245361, -1.3479194641113281, -3.6174991130828857, -1.782823085784912, 1.129638671875, -0.404541015625, 0.076171875
530, 3866789161, -6.945481777191162, -0.8036801218986511, 7.025929927825928, -1.6143174171447754, -3.0587968826293945, -2.09128999710083, 1.128662109375, -0.404052734375, 0.073974609375
531, 3866805828, -6.920741558074951, -0.825602650642395, 7.014488697052002, -1.8747475147247314, -2.681483745574951, -2.1918582916259766, 1.129150390625, -0.406005859375, 0.0751953125
532, 3866822495, -6.924949645996094, -0.8707173466682434, 7.0050225257873535, -1.8636186122894287, -2.593055486679077, -1.9894665479660034, 1.130126953125, -0.404052734375, 0.073974609375
533, 3866839162, -6.922934532165527, -0.8599911332130432, 6.99387788772583, -1.7543164491653442, -2.534850597381592, -1.7686082124710083, 1.127685546875, -0.406005859375, 0.07470703125
534, 3866855829, -6.933374404907227, -0.79789137840271, 7.008732795715332, -1.7329167127609253, -2.4619951248168945, -1.79876708984375, 1.128173828125, -0.406494140625, 0.076171875
535, 3866872496, -6.9348063468933105, -0.8085479140281677, 7.017064571380615, -1.822126030921936, -2.3284378051757812, -1.9216440916061401, 1.130615234375, -0.405517578125, 0.07373046875
536, 3866889163, -6.921202182769775, -0.8141989707946777, 7.010843276977539, -1.906609296798706, -2.325543165206909, -1.955657720565796, 1.127197265625, -0.407958984375, 0.073486328125
537, 3866905830, -6.934494495391846, -0.8212763071060181, 7.006894111633301, -1.9137934446334839, -2.0810186862945557, -1.7892388105392456, 1.129638671875, -0.406005859375, 0.073486328125
538, 3866922497, -6.935902118682861, -0.7871731519699097, 7.017271518707275, -1.9553500413894653, -1.9730613231658936, -1.8052723407745361, 1.129638671875, -0.406005859375, 0.071533203125
539, 3866939164, -6.931872844696045, -0.7952255010604858, 6.997928142547607, -1.9067374467849731, -1.8239058256149292, -1.871391773223877, 1.130126953125, -0.406005859375, 0.072998046875
540, 3866955831, -6.944748878479004, -0.810822606086731, 6.994635105133057, -1.9641611576080322, -1.9347832202911377, -1.8678059577941895, 1.128173828125, -0.405517578125, 0.073486328125
541, 3866972498, -6.932007312774658, -0.7907437682151794, 7.013729095458984, -1.9591540098190308, -1.930570125579834, -1.9469108581542969, 1.128662109375, -0.405517578125, 0.073486328125
542, 3866989165, -6.9351983070373535, -0.7997520565986633, 7.011976718902588, -2.01186466217041, -1.5615037679672241, -1.881252646446228, 1.130615234375, -0.406494140625, 0.073486328125
543, 3867005832, -6.944468975067139, -0.8066895604133606, 7.007959842681885, -1.9613311290740967, -1.5310248136520386, -1.8071041107177734, 1.128173828125, -0.405517578125, 0.07470703125
544, 3867022499, -6.94618558883667, -0.7727716565132141, 7.020039081573486, -1.8221901655197144, -1.4649823904037476, -1.6081572771072388, 1.128662109375, -0.404052734375, 0.071533203125
545, 3867039166, -6.943500995635986, -0.7965938448905945, 7.017763137817383, -1.695971131324768, -1.6869560480117798, -1.555519461631775, 1.130615234375, -0.406494140625, 0.072509765625
546, 3867055833, -6.982142448425293, -0.8344034552574158, 7.016519546508789, -1.0667304992675781, -2.4382266998291016, -0.8768380284309387, 1.131103515625, -0.408447265625, 0.0732421875
547, 3867072500, -6.975865840911865, -0.9222133755683899, 6.998367786407471, -0.2182842195034027, -3.4052977561950684, 0.2933102250099182, 1.129150390625, -0.408447265625, 0.072021484375
548, 3867089167, -6.934505462646484, -0.7742438316345215, 7.014938831329346, 0.08319644629955292, -4.175471782684326, 0.6871054768562317, 1.127685546875, -0.40966796875, 0.07421875
549, 3867105834, -6.886909484863281, -0.7676048874855042, 7.023057460784912, -0.24533124268054962, -4.365608215332031, 0.23911377787590027, 1.128173828125, -0.41015625, 0.069580078125
550, 3867122501, -6.861388683319092, -0.7368491291999817, 7.05435848236084, -0.5530679225921631, -3.677778959274292, 0.022891351953148842, 1.127197265625, -0.4111328125, 0.071044921875
551, 3867139168, -6.898144245147705, -0.7297331094741821, 7.060305118560791, -0.7250058650970459, -3.1779725551605225, -0.2562934458255768, 1.128173828125, -0.41259765625, 0.069091796875
552, 3867155835, -6.913545608520508, -0.7060742974281311, 7.023556709289551, -0.8856871128082275, -2.975388526916504, -0.7123531699180603, 1.127197265625, -0.41357421875, 0.070068359375
553, 3867172502, -6.883442401885986, -0.7073153257369995, 7.021746635437012, -1.0466372966766357, -3.14949107170105, -1.0790373086929321, 1.125244140625, -0.4140625, 0.071533203125
554, 3867189169, -6.893101215362549, -0.7517521381378174, 7.0253825187683105, -1.0726854801177979, -3.3273332118988037, -1.3784115314483643, 1.126220703125, -0.41357421875, 0.070068359375
555, 3867205836, -6.914771556854248, -0.7215774655342102, 7.026645183563232, -1.4347338676452637, -3.325899124145508, -1.5425763130187988, 1.126708984375, -0.4130859375, 0.06884765625
556, 3867222503, -6.886593341827393, -0.7335659265518188, 7.032024383544922, -1.6825882196426392, -3.118717908859253, -1.9603452682495117, 1.129150390625, -0.41455078125, 0.06787109375
557, 3867239170, -6.847187519073486, -0.7508560419082642, 7.047126293182373, -1.8205890655517578, -2.9816510677337646, -2.1491870880126953, 1.127197265625, -0.414306640625, 0.069091796875
558, 3867255837, -6.8905534744262695, -0.7094104290008545, 7.072460174560547, -1.9584242105484009, -2.5442378520965576, -2.2805678844451904, 1.126220703125, -0.4140625, 0.0673828125
559, 3867272504, -6.891124725341797, -0.696810781955719, 7.087796211242676, -1.9987128973007202, -2.4235122203826904, -2.5558531284332275, 1.126220703125, -0.415283203125, 0.06787109375
560, 3867289171, -6.882359027862549, -0.6940202116966248, 7.060848236083984, -2.244952917098999, -2.2083139419555664, -2.693687677383423, 1.125244140625, -0.4140625, 0.06640625
561, 3867305838, -6.879979133605957, -0.7255652546882629, 7.061923027038574, -2.2768919467926025, -2.1866071224212646, -2.8213024139404297, 1.125732421875, -0.414794921875, 0.06494140625
562, 3867322505, -6.872247219085693, -0.7240265011787415, 7.068480491638184, -2.2938730716705322, -2.288494348526001, -2.8655099868774414, 1.126220703125, -0.4130859375, 0.064208984375
563, 3867339172, -6.858886241912842, -0.7473519444465637, 7.039222717285156, -2.2673513889312744, -2.445449113845825, -2.9798197746276855, 1.126220703125, -0.41259765625, 0.0654296875
564, 3867355839, -6.872880935668945, -0.6890537738800049, 7.033848762512207, -2.558145523071289, -2.281707525253296, -3.367839813232422, 1.126220703125, -0.41259765625, 0.06591796875
565, 3867372506, -6.87623929977417, -0.6875302791595459, 7.0600409507751465, -2.760690927505493, -2.009866952896118, -3.941347122192383, 1.127197265625, -0.4130859375, 0.06884765625
566, 3867389173, -6.861423015594482, -0.7580880522727966, 7.088569164276123, -2.7749440670013428, -1.9234884977340698, -4.224098205566406, 1.126220703125, -0.4111328125, 0.0654296875
567, 3867405840, -6.878054141998291, -0.7734395861625671, 7.075201034545898, -2.6506712436676025, -1.4409962892532349, -3.707592248916626, 1.126708984375, -0.41162109375, 0.064453125
568, 3867422507, -6.912180423736572, -0.7529434561729431, 7.06830358505249, -2.5309062004089355, -1.4554033279418945, -3.1396560668945312, 1.127685546875, -0.4111328125, 0.064208984375
569, 3867439174, -6.88875675201416, -0.8146802186965942, 7.0605292320251465, -2.151057243347168, -2.025298833847046, -2.554175615310669, 1.127685546875, -0.4130859375, 0.06689453125
570, 3867455841, -6.892597675323486, -0.7503007054328918, 7.073891639709473, -2.1571145057678223, -2.108053684234619, -2.2377049922943115, 1.126220703125, -0.41162109375, 0.0654296875
571, 3867472508, -6.880036354064941, -0.763499915599823, 7.084006309509277, -2.2278311252593994, -2.0511035919189453, -2.091456174850464, 1.127197265625, -0.41162109375, 0.06494140625
572, 3867489175, -6.854984760284424, -0.7782939076423645, 7.065415382385254, -2.020496368408203, -2.050847291946411, -1.94819176197052, 1.126220703125, -0.41162109375, 0.06494140625
573, 3867505842, -6.873091220855713, -0.745926558971405, 7.102333068847656, -1.9720498323440552, -1.9701673984527588, -1.6100653409957886, 1.125732421875, -0.41162109375, 0.064697265625
574, 3867522509, -6.869788646697998, -0.7426274418830872, 7.075775623321533, -1.795322060585022, -2.013849973678589, -1.46573805809021, 1.126708984375, -0.4111328125, 0.06591796875
575, 3867539176, -6.859402179718018, -0.7278813123703003, 7.095827579498291, -1.8220746517181396, -2.184622287750244, -1.533316969871521, 1.127197265625, -0.41357421875, 0.06396484375
576, 3867555843, -6.866064071655273, -0.700675904750824, 7.0857391357421875, -1.9302624464035034, -2.1236512660980225, -1.7324941158294678, 1.12451171875, -0.41259765625, 0.06591796875
577, 3867572510, -6.873938083648682, -0.7001639604568481, 7.090330600738525, -2.167820453643799, -2.0004544258117676, -2.083810806274414, 1.125244140625, -0.41259765625, 0.064697265625
578, 3867589177, -6.865869522094727, -0.7296239137649536, 7.088653564453125, -2.282078742980957, -1.7931195497512817, -2.249845266342163, 1.126708984375, -0.4140625, 0.063720703125
579, 3867605844, -6.8476457595825195, -0.7433545589447021, 7.084640979766846, -2.3671000003814697, -1.5395410060882568, -2.242558240890503, 1.125244140625, -0.412109375, 0.0654296875
580, 3867622511, -6.863313674926758, -0.7277382016181946, 7.091953754425049, -2.3380935192108154, -1.399208903312683, -2.281540870666504, 1.126708984375, -0.4140625, 0.062744140625
581, 3867639178, -6.877182483673096, -0.7342087030410767, 7.095509052276611, -2.4215610027313232, -1.4296663999557495, -2.2403364181518555, 1.12451171875, -0.4130859375, 0.06591796875
582, 3867655845, -6.872097969055176, -0.7473962306976318, 7.087543964385986, -2.3706471920013428, -1.1966381072998047, -2.1952004432678223, 1.124755859375, -0.41259765625, 0.064208984375
583, 3867672512, -6.869663715362549, -0.7298319339752197, 7.092408657073975, -2.3332016468048096, -1.2205731868743896, -2.2495760917663574, 1.126220703125, -0.4130859375, 0.06591796875
584, 3867689179, -6.866574764251709, -0.7371169328689575, 7.085793495178223, -2.4306836128234863, -1.3670777082443237, -2.235271453857422, 1.126220703125, -0.41259765625, 0.063720703125
585, 3867705846, -6.878101825714111, -0.7357752323150635, 7.097533226013184, -2.387948751449585, -1.2356462478637695, -2.3046560287475586, 1.125732421875, -0.412109375, 0.06494140625
586, 3867722513, -6.887147903442383, -0.7241566777229309, 7.0742645263671875, -2.4041748046875, -1.4853957891464233, -2.299687623977661, 1.126220703125, -0.4111328125, 0.064697265625
587, 3867739180, -6.871264457702637, -0.7371380925178528, 7.066336154937744, -2.4418766498565674, -1.4566582441329956, -2.4338083267211914, 1.125732421875, -0.412109375, 0.06494140625
588, 3867755847, -6.866828918457031, -0.7520436644554138, 7.09220552444458, -2.5244007110595703, -1.488789439201355, -2.4169297218322754, 1.125244140625, -0.41357421875, 0.06494140625
589, 3867772514, -6.864846706390381, -0.7348324060440063, 7.0734686851501465, -2.5298948287963867, -1.4849605560302734, -2.4472427368164062, 1.126708984375, -0.41064453125, 0.0654296875
590, 3867789181, -6.866383075714111, -0.7182263731956482, 7.10025691986084, -2.637634515762329, -1.4369111061096191, -2.483625650405884, 1.1240234375, -0.41259765625, 0.0654296875
591, 3867805848, -6.861584186553955, -0.7546865344047546, 7.0808939933776855, -2.668510675430298, -1.42537260055542, -2.5614750385284424, 1.125732421875, -0.41259765625, 0.064697265625
592, 3867822515, -6.879376411437988, -0.7367174625396729, 7.094395160675049, -2.538986921310425, -1.3779633045196533, -2.4607529640197754, 1.125244140625, -0.4130859375, 0.06494140625
593, 3867839182, -6.859288692474365, -0.756664514541626, 7.090333461761475, -2.5445449352264404, -1.4495381116867065, -2.39512038230896, 1.126220703125, -0.412109375, 0.062744140625
594, 3867855849, -6.865513801574707, -0.7442201375961304, 7.058060169219971, -2.4688210487365723, -1.3465750217437744, -2.259488821029663, 1.125244140625, -0.41259765625, 0.06591796875
595, 3867872516, -6.881940841674805, -0.7456693649291992, 7.0638203620910645, -2.4803082942962646, -1.4982662200927734, -2.3418843746185303, 1.125, -0.41064453125, 0.062255859375
596, 3867889183, -6.8823723793029785, -0.7466893792152405, 7.082945823669434, -2.386847734451294, -1.6119225025177002, -2.355830669403076, 1.126220703125, -0.40966796875, 0.06689453125
597, 3867905850, -6.867321491241455, -0.7470919489860535, 7.065935134887695, -2.4082467555999756, -1.757812261581421, -2.323533058166504, 1.125, -0.4111328125, 0.0654296875
598, 3867922517, -6.877827167510986, -0.7431696057319641, 7.085770606994629, -2.468052625656128, -1.6412874460220337, -2.3208820819854736, 1.125732421875, -0.41162109375, 0.064208984375
599, 3867939184, -6.870720863342285, -0.7371369004249573, 7.092134475708008, -2.556481122970581, -1.5439722537994385, -2.3640527725219727, 1.125732421875, -0.41259765625, 0.064697265625
600, 3867955851, -6.860938549041748, -0.7342870831489563, 7.0648322105407715, -2.5809919834136963, -1.5914838314056396, -2.5078420639038086, 1.126708984375, -0.4130859375, 0.06591796875
601, 3867972518, -6.8545756340026855, -0.7651112675666809, 7.085552215576172, -2.601097822189331, -1.540104627609253, -2.504563570022583, 1.126708984375, -0.41064453125, 0.06494140625
602, 3867989185, -6.882421493530273, -0.7279160022735596, 7.070112705230713, -2.680535316467285, -1.2192925214767456, -2.3642313480377197, 1.125732421875, -0.41162109375, 0.06640625
603, 3868005852, -6.882320880889893, -0.753717839717865, 7.069027423858643, -2.6310009956359863, -1.38294517993927, -2.4360241889953613, 1.126220703125, -0.4111328125, 0.063232421875
604, 3868022519, -6.8806843757629395, -0.7143154144287109, 7.0797224044799805, -2.6128029823303223, -1.477916955947876, -2.5267701148986816, 1.125732421875, -0.41259765625, 0.064208984375
605, 3868039186, -6.896450042724609, -0.7403797507286072, 7.064720630645752, -2.5642669200897217, -1.651379108428955, -2.6113176345825195, 1.126220703125, -0.412109375, 0.0654296875
606, 3868055853, -6.880436420440674, -0.7533580660820007, 7.089665412902832, -2.682276964187622, -1.773115873336792, -2.7862131595611572, 1.12451171875, -0.41064453125, 0.065185546875
607, 3868072520, -6.87803840637207, -0.7376904487609863, 7.062248229980469, -2.5956037044525146, -1.756057858467102, -2.8143107891082764, 1.126220703125, -0.412109375, 0.0654296875
608, 3868089187, -6.860118865966797, -0.7794904708862305, 7.055694103240967, -2.5105185508728027, -1.7938108444213867, -2.8033998012542725, 1.125, -0.41064453125, 0.063720703125
609, 3868105854, -6.895790100097656, -0.7105129957199097, 7.095492839813232, -2.5121958255767822, -1.7514857053756714, -2.785367965698242, 1.126220703125, -0.41064453125, 0.06494140625
610, 3868122521, -6.876256465911865, -0.7368775010108948, 7.065301895141602, -2.612969160079956, -1.7116198539733887, -2.8798022270202637, 1.125732421875, -0.41064453125, 0.064208984375
611, 3868139188, -6.873826503753662, -0.7807298302650452, 7.066905498504639, -2.6654748916625977, -1.5345720052719116, -2.778670310974121, 1.127197265625, -0.41162109375, 0.06494140625
612, 3868155855, -6.8782734870910645, -0.7722466588020325, 7.078711986541748, -2.59985613822937, -1.5738365650177002, -2.6188478469848633, 1.126220703125, -0.41259765625, 0.069091796875
613, 3868172522, -6.869723320007324, -0.763573169708252, 7.07321834564209, -2.518970489501953, -1.7771116495132446, -2.4106931686401367, 1.126708984375, -0.412109375, 0.0673828125
614, 3868189189, -6.870058536529541, -0.736133337020874, 7.088097095489502, -2.4041366577148438, -1.95856511592865, -2.502143621444702, 1.1240234375, -0.41015625, 0.065673828125
615, 3868205856, -6.8747453689575195, -0.7380051016807556, 7.081587791442871, -2.4046359062194824, -1.9972529411315918, -2.531277894973755, 1.12548828125, -0.408935546875, 0.062744140625
616, 3868222523, -6.875968933105469, -0.7601631283760071, 7.079709053039551, -2.332228183746338, -2.08229923248291, -2.7057766914367676, 1.128173828125, -0.408935546875, 0.062744140625
617, 3868239190, -6.878540992736816, -0.7535886764526367, 7.086202144622803, -2.3866658210754395, -2.089063882827759, -2.710301160812378, 1.123046875, -0.4091796875, 0.063720703125
618, 3868255857, -6.864408016204834, -0.7562886476516724, 7.079044818878174, -2.38806414604187, -2.0700182914733887, -2.7974700927734375, 1.12548828125, -0.4111328125, 0.063232421875
619, 3868272524, -6.86126708984375, -0.7673918604850769, 7.080446243286133, -2.5052552223205566, -2.0380921363830566, -2.8482604026794434, 1.12353515625, -0.41015625, 0.06591796875
620, 3868289191, -6.854076862335205, -0.757009744644165, 7.090802192687988, -2.534747838973999, -1.8877838850021362, -2.8064346313476562, 1.12548828125, -0.41015625, 0.064208984375
621, 3868305858, -6.8573689460754395, -0.7676048874855042, 7.072375774383545, -2.5086867809295654, -1.8751953840255737, -2.8770999908447266, 1.12451171875, -0.41064453125, 0.063232421875
622, 3868322525, -6.859643936157227, -0.7723825573921204, 7.110126495361328, -2.559669256210327, -1.889051914215088, -2.861053705215454, 1.12451171875, -0.408447265625, 0.062744140625
623, 3868339192, -6.861114025115967, -0.7889218926429749, 7.088825702667236, -2.5479896068573, -1.751511573791504, -2.79976224899292, 1.125, -0.4091796875, 0.065185546875
624, 3868355859, -6.865405082702637, -0.7768178582191467, 7.079728603363037, -2.477452278137207, -1.790314793586731, -2.739508628845215, 1.1240234375, -0.408447265625, 0.064208984375
625, 3868372526, -6.866363525390625, -0.7773332595825195, 7.08343505859375, -2.5090200901031494, -1.7192779779434204, -2.718890428543091, 1.12451171875, -0.40966796875, 0.064697265625
626, 3868389193, -6.861378192901611, -0.770481526851654, 7.08711576461792, -2.4971227645874023, -1.8554221391677856, -2.680163860321045, 1.12451171875, -0.40869140625, 0.062255859375
627, 3868405860, -6.854530334472656, -0.7647337317466736, 7.098442077636719, -2.4647743701934814, -1.776573896408081, -2.6559090614318848, 1.1240234375, -0.40869140625, 0.061767578125
628, 3868422527, -6.859055519104004, -0.7737513780593872, 7.097078800201416, -2.5282936096191406, -1.8434484004974365, -2.7155864238739014, 1.125, -0.408447265625, 0.065185546875
629, 3868439194, -6.848880767822266, -0.7894766330718994, 7.087374210357666, -2.43815016746521, -1.7854872941970825, -2.629643678665161, 1.127197265625, -0.408447265625, 0.063232421875
630, 3868455861, -6.863646030426025, -0.7763105630874634, 7.103726387023926, -2.3379273414611816, -1.7804285287857056, -2.4129340648651123, 1.125, -0.408935546875, 0.065185546875
631, 3868472528, -6.861326694488525, -0.7733597159385681, 7.118730068206787, -2.281886577606201, -1.8776668310165405, -2.393122434616089, 1.12353515625, -0.406982421875, 0.063232421875
632, 3868489195, -6.864589214324951, -0.7667786478996277, 7.100559711456299, -2.3088185787200928, -1.8569719791412354, -2.3366594314575195, 1.12451171875, -0.40869140625, 0.063720703125
633, 3868505862, -6.842520713806152, -0.7596207857131958, 7.099964618682861, -2.3497986793518066, -1.9066991806030273, -2.450226306915283, 1.1240234375, -0.40869140625, 0.061767578125
634, 3868522529, -6.845584392547607, -0.7700523138046265, 7.099895000457764, -2.3150041103363037, -1.7850902080535889, -2.4520962238311768, 1.126708984375, -0.408447265625, 0.061767578125
635, 3868539196, -6.848509788513184, -0.7763833403587341, 7.085958480834961, -2.294347047805786, -1.6817169189453125, -2.370032548904419, 1.1259765625, -0.408935546875, 0.064208984375
636, 3868555863, -6.861164093017578, -0.7711794972419739, 7.087566375732422, -2.3458032608032227, -1.7178951501846313, -2.355177640914917, 1.1240234375, -0.4091796875, 0.064208984375
637, 3868572530, -6.855804920196533, -0.795011043548584, 7.096739768981934, -2.2419822216033936, -1.7954119443893433, -2.359403610229492, 1.12255859375, -0.408447265625, 0.061767578125
638, 3868589197, -6.865212440490723, -0.7917582392692566, 7.075593948364258, -2.236091136932373, -1.7270258665084839, -2.157050371170044, 1.12451171875, -0.40966796875, 0.064697265625
639, 3868605864, -6.856471061706543, -0.7737724781036377, 7.073276519775391, -2.1202707290649414, -1.8171955347061157, -2.217893362045288, 1.125, -0.4091796875, 0.062744140625
640, 3868622531, -6.857115268707275, -0.7725592851638794, 7.113095283508301, -2.1535544395446777, -1.9254475831985474, -2.1808063983917236, 1.1259765625, -0.408935546875, 0.062744140625
641, 3868639198, -6.863075256347656, -0.7747439742088318, 7.104518413543701, -2.3755910396575928, -1.804658055305481, -2.3094077110290527, 1.12548828125, -0.406982421875, 0.062255859375
642, 3868655865, -6.849826812744141, -0.7798275351524353, 7.110177993774414, -2.4862887859344482, -1.7018487453460693, -2.29548716545105, 1.1259765625, -0.407958984375, 0.061767578125
643, 3868672532, -6.850234031677246, -0.7737395167350769, 7.102635860443115, -2.5649452209472656, -1.493809461593628, -2.1482648849487305, 1.1240234375, -0.407958984375, 0.063720703125
644, 3868689199, -6.844182968139648, -0.7368539571762085, 7.111541748046875, -2.5637032985687256, -1.227501392364502, -2.229482889175415, 1.125, -0.40869140625, 0.061767578125
645, 3868705866, -6.862281799316406, -0.7827981114387512, 7.111848831176758, -2.6732871532440186, -1.113742709159851, -2.368739366531372, 1.125, -0.40869140625, 0.062744140625
646, 3868722533, -6.86358118057251, -0.7734522819519043, 7.112625598907471, -2.6875407695770264, -1.0978243350982666, -2.38541316986084, 1.12451171875, -0.407958984375, 0.06103515625
647, 3868739200, -6.860500812530518, -0.775837779045105, 7.105565071105957, -2.7475767135620117, -0.9606298208236694, -2.407491445541382, 1.12548828125, -0.408447265625, 0.061767578125
648, 3868755867, -6.858489036560059, -0.7831233739852905, 7.0618205070495605, -2.7498819828033447, -1.0568057298660278, -2.445782423019409, 1.125, -0.408447265625, 0.064697265625
649, 3868772534, -6.870302200317383, -0.7748215794563293, 7.08735990524292, -2.767887830734253, -1.1293665170669556, -2.639350652694702, 1.12646484375, -0.408447265625, 0.064208984375
650, 3868789201, -6.87114143371582, -0.7942231893539429, 7.079409122467041, -2.691037178039551, -1.27234947681427, -2.6600327491760254, 1.12451171875, -0.408447265625, 0.062744140625
651, 3868805868, -6.8620758056640625, -0.7924132943153381, 7.090980052947998, -2.673582077026367, -1.3712657690048218, -2.61337947845459, 1.12158203125, -0.406494140625, 0.06201171875
652, 3868822535, -6.848551273345947, -0.7962280511856079, 7.077845573425293, -2.6252763271331787, -1.3211032152175903, -2.598024368286133, 1.1259765625, -0.406005859375, 0.064697265625
653, 3868839202, -6.854706287384033, -0.7697691321372986, 7.085346221923828, -2.6421890258789062, -1.4485803842544556, -2.589378595352173, 1.126953125, -0.405517578125, 0.060791015625
