sep=,
DeviceTag:,B,,,,,,,,,,,,,,,,,
FirmwareVersion:,2.2.1,,,,,,,,,,,,,,,,,
AppVersion:,2023.6.1,,,,,,,,,,,,,,,,,
SyncStatus:,Synced,,,,,,,,,,,,,,,,,
OutputRate:,60Hz,,,,,,,,,,,,,,,,,
FilterProfile:,General,,,,,,,,,,,,,,,,,
Measurement Mode:,Inertial Mode - Rate quantities (with mag),,,,,,,,,,,,,,,,,
StartTime:,2023-12-07 13:30:19.331 +0200,,,,,,,,,,,,,,,,,
 2023,,,,,,,,,,,,,,,,,,,

PacketCounter,SampleTimeFine,Acc_X,Acc_Y,Acc_Z,Gyr_X,Gyr_Y,Gyr_Z,Mag_X,Mag_Y,Mag_Z
1, 3857988985, -6.318748474121094, 1.8313171863555908, 7.085174560546875, -0.3237701654434204, -0.804866373538971, -1.428484320640564, 0.597900390625, 0.189208984375, -0.70458984375
2, 3858005652, -6.320995807647705, 1.8315153121948242, 7.081509113311768, -0.2757079601287842, -0.9191374182701111, -1.4829882383346558, 0.598876953125, 0.188720703125, -0.705078125
3, 3858022319, -6.325855731964111, 1.8204951286315918, 7.069785118103027, -0.29225367307662964, -0.8478571772575378, -1.4320060014724731, 0.598876953125, 0.188720703125, -0.70458984375
4, 3858038986, -6.324112415313721, 1.8453223705291748, 7.069828510284424, -0.32319384813308716, -0.9717842936515808, -1.4390881061553955, 0.597900390625, 0.19140625, -0.7041015625
5, 3858055653, -6.313394546508789, 1.843148112297058, 7.077260971069336, -0.25118374824523926, -0.9246057271957397, -1.441060185432434, 0.599365234375, 0.19091796875, -0.70166015625
6, 3858072320, -6.323144435882568, 1.8209726810455322, 7.089943885803223, -0.2835838198661804, -0.927115797996521, -1.4440186023712158, 0.596923828125, 0.188720703125, -0.70166015625
7, 3858088987, -6.322751522064209, 1.8301032781600952, 7.090920925140381, -0.24799494445323944, -0.6015398502349854, -1.4252185821533203, 0.599365234375, 0.188720703125, -0.70361328125
8, 3858105654, -6.312230110168457, 1.8345860242843628, 7.080592632293701, -0.17592081427574158, -0.6966525316238403, -1.435450792312622, 0.598388671875, 0.190185546875, -0.7041015625
9, 3858122321, -6.324799537658691, 1.8392198085784912, 7.0867462158203125, -0.23751938343048096, -0.769981861114502, -1.4566327333450317, 0.597900390625, 0.1904296875, -0.70263671875
10, 3858138988, -6.3329176902771, 1.8272000551223755, 7.086918354034424, -0.20285259187221527, -0.838521420955658, -1.4546221494674683, 0.598388671875, 0.19189453125, -0.70361328125
11, 3858155655, -6.3339619636535645, 1.8238834142684937, 7.071227073669434, -0.2803694009780884, -0.8044436573982239, -1.413680076599121, 0.597900390625, 0.19189453125, -0.703125
12, 3858172322, -6.320277690887451, 1.8354917764663696, 7.088752746582031, -0.33696070313453674, -0.8875952363014221, -1.3679614067077637, 0.598388671875, 0.1904296875, -0.70361328125
13, 3858188989, -6.327429294586182, 1.840102195739746, 7.092897891998291, -0.31300002336502075, -0.748774528503418, -1.4629077911376953, 0.597900390625, 0.19091796875, -0.70458984375
14, 3858205656, -6.320187568664551, 1.8293060064315796, 7.084251880645752, -0.40131261944770813, -0.8666313886642456, -1.468453049659729, 0.599365234375, 0.189697265625, -0.70263671875
15, 3858222323, -6.331537246704102, 1.820285677909851, 7.082377910614014, -0.43131789565086365, -0.8730985522270203, -1.4125149250030518, 0.597412109375, 0.190673828125, -0.7041015625
16, 3858238990, -6.323832988739014, 1.8146741390228271, 7.080869674682617, -0.3545822501182556, -0.9407289028167725, -1.5021337270736694, 0.598876953125, 0.19189453125, -0.701171875
17, 3858255657, -6.320160388946533, 1.8324649333953857, 7.107133865356445, -0.3335157334804535, -0.8172499537467957, -1.3809086084365845, 0.598388671875, 0.19091796875, -0.70361328125
18, 3858272324, -6.324556827545166, 1.8122862577438354, 7.075577735900879, -0.25289982557296753, -0.7259407639503479, -1.3967885971069336, 0.596435546875, 0.190185546875, -0.70458984375
19, 3858288991, -6.310544967651367, 1.8322014808654785, 7.087736129760742, -0.209102064371109, -0.7695847153663635, -1.3686784505844116, 0.600830078125, 0.1923828125, -0.70263671875
20, 3858305658, -6.310553073883057, 1.8377596139907837, 7.097247123718262, -0.250428169965744, -0.832988977432251, -1.393381953239441, 0.599853515625, 0.19140625, -0.7041015625
21, 3858322325, -6.322354793548584, 1.8236639499664307, 7.073866367340088, -0.2761945426464081, -0.8392001390457153, -1.4633047580718994, 0.599853515625, 0.18994140625, -0.70458984375
22, 3858338992, -6.324978351593018, 1.8173784017562866, 7.074368476867676, -0.25749725103378296, -0.7791510820388794, -1.4025514125823975, 0.6005859375, 0.18994140625, -0.7021484375
23, 3858355659, -6.341145038604736, 1.8063746690750122, 7.087001323699951, -0.31246212124824524, -0.7961195111274719, -1.3969037532806396, 0.596923828125, 0.190673828125, -0.70263671875
24, 3858372326, -6.334813594818115, 1.818142056465149, 7.078760623931885, -0.312026709318161, -0.9292927384376526, -1.3057867288589478, 0.597900390625, 0.19140625, -0.703125
25, 3858388993, -6.319878101348877, 1.8136898279190063, 7.078985214233398, -0.22609609365463257, -0.9194702506065369, -1.3346905708312988, 0.596923828125, 0.19287109375, -0.705810546875
26, 3858405660, -6.321832656860352, 1.820406198501587, 7.115705490112305, -0.23353660106658936, -0.9875232577323914, -1.2918405532836914, 0.597900390625, 0.19140625, -0.70263671875
27, 3858422327, -6.31588077545166, 1.8217756748199463, 7.100124835968018, -0.23353660106658936, -0.9485535025596619, -1.416574478149414, 0.598388671875, 0.19140625, -0.70361328125
28, 3858438994, -6.3177337646484375, 1.8153462409973145, 7.085904121398926, -0.21784880757331848, -0.8506362438201904, -1.4087496995925903, 0.598876953125, 0.1904296875, -0.70166015625
29, 3858455661, -6.322463512420654, 1.825959324836731, 7.0815229415893555, -0.36355945467948914, -0.8851492404937744, -1.4940400123596191, 0.596435546875, 0.19140625, -0.70068359375
30, 3858472328, -6.32898473739624, 1.8109904527664185, 7.090389251708984, -0.2857096791267395, -0.8432597517967224, -1.394675612449646, 0.6005859375, 0.19091796875, -0.70361328125
31, 3858488995, -6.333038806915283, 1.8163522481918335, 7.087206840515137, -0.21209877729415894, -0.9745121002197266, -1.3642350435256958, 0.597900390625, 0.1904296875, -0.7041015625
32, 3858505662, -6.333820819854736, 1.8202286958694458, 7.1055426597595215, -0.26461759209632874, -0.8991467356681824, -1.352952480316162, 0.597412109375, 0.19140625, -0.7041015625
33, 3858522329, -6.317994594573975, 1.8112517595291138, 7.076484680175781, -0.16506104171276093, -0.8639675378799438, -1.2715167999267578, 0.597900390625, 0.189697265625, -0.703125
34, 3858538996, -6.321629524230957, 1.8157401084899902, 7.093599319458008, -0.2509148120880127, -0.7525138854980469, -1.2625012397766113, 0.599365234375, 0.19091796875, -0.70263671875
35, 3858555663, -6.31568717956543, 1.8127204179763794, 7.074199676513672, -0.2831484079360962, -0.8441818356513977, -1.4048821926116943, 0.598388671875, 0.19091796875, -0.705078125
36, 3858572330, -6.319345474243164, 1.8213285207748413, 7.08353328704834, -0.30390748381614685, -0.9444169998168945, -1.416190266609192, 0.598388671875, 0.19091796875, -0.703125
37, 3858588997, -6.315091133117676, 1.8227721452713013, 7.125558853149414, -0.3625093400478363, -0.93511962890625, -1.4265248775482178, 0.598876953125, 0.19189453125, -0.705078125
38, 3858605664, -6.318927764892578, 1.8214703798294067, 7.094989776611328, -0.2730441987514496, -0.8404679894447327, -1.4050743579864502, 0.596923828125, 0.19091796875, -0.70361328125
39, 3858622331, -6.331778049468994, 1.808751106262207, 7.074961185455322, -0.2683698534965515, -0.9149624109268188, -1.4324798583984375, 0.599365234375, 0.19140625, -0.70458984375
40, 3858638998, -6.333497047424316, 1.8232685327529907, 7.082869529724121, -0.31329452991485596, -0.8646974563598633, -1.378308892250061, 0.595458984375, 0.189208984375, -0.701171875
41, 3858655665, -6.3130059242248535, 1.8146648406982422, 7.102664947509766, -0.2648097276687622, -0.8613680005073547, -1.3799738883972168, 0.597412109375, 0.19189453125, -0.703125
42, 3858672332, -6.325342178344727, 1.8107469081878662, 7.0777058601379395, -0.22494356334209442, -0.8218474984169006, -1.3867100477218628, 0.597412109375, 0.1904296875, -0.7021484375
43, 3858688999, -6.32114315032959, 1.8143280744552612, 7.081594944000244, -0.18927787244319916, -0.7684065699577332, -1.3930747509002686, 0.598388671875, 0.189697265625, -0.70361328125
44, 3858705666, -6.320255756378174, 1.8158422708511353, 7.071866035461426, -0.22363726794719696, -0.8243831992149353, -1.398952841758728, 0.596923828125, 0.189208984375, -0.70263671875
45, 3858722333, -6.3218560218811035, 1.8037488460540771, 7.101539611816406, -0.28103533387184143, -0.737735390663147, -1.3149303197860718, 0.597412109375, 0.19091796875, -0.7021484375
46, 3858739000, -6.321209907531738, 1.817568063735962, 7.089674949645996, -0.15285657346248627, -0.8303764462471008, -1.336931586265564, 0.596435546875, 0.19140625, -0.703125
47, 3858755667, -6.329376697540283, 1.8161596059799194, 7.080221652984619, -0.12633463740348816, -0.7050151824951172, -1.3293119668960571, 0.598388671875, 0.19140625, -0.70166015625
48, 3858772334, -6.305814743041992, 1.8134732246398926, 7.097896099090576, -0.05048263072967529, -0.8232049345970154, -1.2229167222976685, 0.599365234375, 0.1904296875, -0.705078125
49, 3858789001, -6.326508045196533, 1.812783122062683, 7.097517967224121, -0.11022426187992096, -0.7629510760307312, -1.299281120300293, 0.596923828125, 0.19189453125, -0.705078125
50, 3858805668, -6.317270278930664, 1.8213653564453125, 7.098403453826904, -0.10731720924377441, -0.7108036279678345, -1.2768057584762573, 0.596923828125, 0.19287109375, -0.7041015625
51, 3858822335, -6.323572158813477, 1.8137260675430298, 7.100473403930664, -0.14083142578601837, -0.7371847033500671, -1.3628261089324951, 0.596435546875, 0.19091796875, -0.705078125
52, 3858839002, -6.323972702026367, 1.8215551376342773, 7.093176364898682, -0.20611819624900818, -0.7440744638442993, -1.3660916090011597, 0.598388671875, 0.19140625, -0.703125
53, 3858855669, -6.311600208282471, 1.8131203651428223, 7.11841344833374, -0.14866891503334045, -0.7513613104820251, -1.4372053146362305, 0.597900390625, 0.1923828125, -0.70263671875
54, 3858872336, -6.3278093338012695, 1.8077304363250732, 7.09690523147583, -0.165662944316864, -0.7167586088180542, -1.3818693161010742, 0.597412109375, 0.190673828125, -0.70458984375
55, 3858889003, -6.33018159866333, 1.8295084238052368, 7.0850019454956055, -0.14612044394016266, -0.7373511791229248, -1.4049845933914185, 0.598388671875, 0.19140625, -0.7041015625
56, 3858905670, -6.318377494812012, 1.8177791833877563, 7.100737571716309, -0.22614732384681702, -0.7945187091827393, -1.3158010244369507, 0.596923828125, 0.19189453125, -0.70263671875
57, 3858922337, -6.329133033752441, 1.8176556825637817, 7.108162879943848, -0.16315290331840515, -0.9271669387817383, -1.307822823524475, 0.598388671875, 0.19091796875, -0.703125
58, 3858939004, -6.321044445037842, 1.805138349533081, 7.119734287261963, -0.13131630420684814, -0.8515838980674744, -1.272464632987976, 0.599365234375, 0.1923828125, -0.70263671875
59, 3858955671, -6.324276924133301, 1.7966206073760986, 7.0920796394348145, -0.1314571648836136, -0.6100817322731018, -1.32146155834198, 0.596435546875, 0.19189453125, -0.70458984375
60, 3858972338, -6.32524299621582, 1.8221503496170044, 7.100931167602539, -0.07909201085567474, -0.6472200751304626, -1.351377248764038, 0.6005859375, 0.19140625, -0.7021484375
61, 3858989005, -6.328943252563477, 1.8313640356063843, 7.085056304931641, -0.18375833332538605, -0.6688628792762756, -1.2647935152053833, 0.599853515625, 0.19091796875, -0.7041015625
62, 3859005672, -6.319761276245117, 1.8164223432540894, 7.087234020233154, -0.1992155909538269, -0.7182441353797913, -1.287550449371338, 0.598876953125, 0.19287109375, -0.70361328125
63, 3859022339, -6.340036392211914, 1.8323277235031128, 7.082446575164795, -0.20310869812965393, -0.8033294677734375, -1.3786673545837402, 0.6005859375, 0.18994140625, -0.7021484375
64, 3859039006, -6.326231002807617, 1.8050967454910278, 7.094224452972412, -0.17913523316383362, -0.7492611408233643, -1.2656002044677734, 0.597412109375, 0.19189453125, -0.705322265625
65, 3859055673, -6.334333419799805, 1.8009625673294067, 7.0908589363098145, -0.21901418268680573, -0.9198160171508789, -1.2660869359970093, 0.598388671875, 0.19091796875, -0.703125
66, 3859072340, -6.325611114501953, 1.8281906843185425, 7.111176013946533, -0.22849087417125702, -0.8908994197845459, -1.3549885749816895, 0.596923828125, 0.1923828125, -0.70166015625
67, 3859089007, -6.326878547668457, 1.8194717168807983, 7.123589038848877, -0.20406918227672577, -0.9511275291442871, -1.2931468486785889, 0.597412109375, 0.19189453125, -0.70361328125
68, 3859105674, -6.325052261352539, 1.8217731714248657, 7.120471000671387, -0.2738765478134155, -0.8952150344848633, -1.3342934846878052, 0.597412109375, 0.190185546875, -0.70263671875
69, 3859122341, -6.33235502243042, 1.8118829727172852, 7.092977523803711, -0.20045778155326843, -0.8973024487495422, -1.3722387552261353, 0.600830078125, 0.19189453125, -0.70361328125
70, 3859139008, -6.325235366821289, 1.813656210899353, 7.086804389953613, -0.2481614500284195, -0.8231026530265808, -1.344231367111206, 0.596923828125, 0.190185546875, -0.7021484375
71, 3859155675, -6.323228359222412, 1.8224440813064575, 7.091279983520508, -0.1695432811975479, -0.7940706014633179, -1.320296287536621, 0.596923828125, 0.19140625, -0.70263671875
72, 3859172342, -6.340500831604004, 1.8139474391937256, 7.099833011627197, -0.1693255603313446, -0.8265987038612366, -1.3389039039611816, 0.599853515625, 0.1923828125, -0.70556640625
73, 3859189009, -6.320744514465332, 1.8070474863052368, 7.096497535705566, -0.20697620511054993, -0.8905150890350342, -1.2795078754425049, 0.598388671875, 0.1943359375, -0.70458984375
74, 3859205676, -6.314254283905029, 1.8066697120666504, 7.100882053375244, -0.25955912470817566, -0.9207382202148438, -1.2374264001846313, 0.597412109375, 0.189697265625, -0.703125
75, 3859222343, -6.311561584472656, 1.806546926498413, 7.114365577697754, -0.1948229968547821, -0.9834123849868774, -1.2095085382461548, 0.598876953125, 0.19189453125, -0.70166015625
76, 3859239010, -6.306639671325684, 1.8271244764328003, 7.108275890350342, -0.21883492171764374, -0.9848212003707886, -1.3002160787582397, 0.598876953125, 0.193359375, -0.70361328125
77, 3859255677, -6.323348522186279, 1.8254718780517578, 7.080073833465576, -0.2762586176395416, -0.8997742533683777, -1.4366036653518677, 0.599853515625, 0.19189453125, -0.70458984375
78, 3859272344, -6.319648742675781, 1.8070120811462402, 7.117371559143066, -0.17081108689308167, -0.8903871774673462, -1.3735835552215576, 0.597900390625, 0.19140625, -0.70458984375
79, 3859289011, -6.322192668914795, 1.8000209331512451, 7.095827102661133, -0.22340679168701172, -0.8729448914527893, -1.342079997062683, 0.599853515625, 0.19091796875, -0.703125
80, 3859305678, -6.330205917358398, 1.821944236755371, 7.085058689117432, -0.1881893128156662, -0.8521088361740112, -1.2646524906158447, 0.597412109375, 0.19140625, -0.70361328125
81, 3859322345, -6.312905788421631, 1.8085553646087646, 7.084267616271973, -0.21454477310180664, -0.8839711546897888, -1.2974241971969604, 0.598876953125, 0.19189453125, -0.70263671875
82, 3859339012, -6.322014331817627, 1.8200851678848267, 7.076565265655518, -0.2011365294456482, -0.9252460598945618, -1.3066319227218628, 0.600830078125, 0.19482421875, -0.703125
83, 3859355679, -6.315585136413574, 1.8117176294326782, 7.078701972961426, -0.24630452692508698, -0.9156028628349304, -1.3284155130386353, 0.597412109375, 0.189208984375, -0.70166015625
84, 3859372346, -6.3216233253479, 1.8135684728622437, 7.115655899047852, -0.18275941908359528, -0.9308679103851318, -1.277599811553955, 0.597412109375, 0.190185546875, -0.70361328125
85, 3859389013, -6.312236309051514, 1.799767017364502, 7.112811088562012, -0.11304164677858353, -0.8290062546730042, -1.285117268562317, 0.597412109375, 0.19140625, -0.705810546875
86, 3859405680, -6.311611652374268, 1.8197200298309326, 7.0958251953125, -0.16407494246959686, -0.7129166126251221, -1.249861240386963, 0.597900390625, 0.19189453125, -0.705810546875
87, 3859422347, -6.3150787353515625, 1.8308145999908447, 7.113554954528809, -0.1914421170949936, -0.6427506804466248, -1.3636970520019531, 0.597412109375, 0.19140625, -0.7021484375
88, 3859439014, -6.307945251464844, 1.8294966220855713, 7.076714515686035, -0.23915860056877136, -0.8203876614570618, -1.5023386478424072, 0.599365234375, 0.19189453125, -0.70458984375
89, 3859455681, -6.332540988922119, 1.7711738348007202, 7.088743686676025, -0.3255758285522461, -0.8166609406471252, -1.4637147188186646, 0.597412109375, 0.1904296875, -0.70361328125
90, 3859472348, -6.335473537445068, 1.8091272115707397, 7.099876403808594, -0.1931965947151184, -0.8834460973739624, -1.3467158079147339, 0.597900390625, 0.1904296875, -0.7041015625
91, 3859489015, -6.3211164474487305, 1.819159746170044, 7.103396892547607, -0.2737357020378113, -0.9407417178153992, -1.3351516723632812, 0.598876953125, 0.1904296875, -0.70556640625
92, 3859505682, -6.316571235656738, 1.8302338123321533, 7.0992751121521, -0.3896460235118866, -0.9459794759750366, -1.4889943599700928, 0.599365234375, 0.18994140625, -0.70458984375
93, 3859522349, -6.3193182945251465, 1.8042488098144531, 7.115762710571289, -0.4946068227291107, -1.0347145795822144, -1.5416667461395264, 0.598876953125, 0.19287109375, -0.70068359375
94, 3859539016, -6.306224346160889, 1.8143157958984375, 7.089739799499512, -0.44231849908828735, -0.9447754621505737, -1.5170528888702393, 0.598388671875, 0.19384765625, -0.70361328125
95, 3859555683, -6.321099758148193, 1.8047071695327759, 7.111608505249023, -0.3737277090549469, -0.8852902054786682, -1.4110422134399414, 0.595458984375, 0.19140625, -0.705078125
96, 3859572350, -6.32569694519043, 1.8169664144515991, 7.09727668762207, -0.2933550179004669, -0.8172627687454224, -1.4317625761032104, 0.600341796875, 0.1923828125, -0.70458984375
97, 3859589017, -6.326874256134033, 1.8227101564407349, 7.093827724456787, -0.2635418772697449, -0.8470631837844849, -1.3761318922042847, 0.601318359375, 0.19384765625, -0.7041015625
98, 3859605684, -6.316691875457764, 1.8151379823684692, 7.094544410705566, -0.16675147414207458, -0.7579822540283203, -1.4189180135726929, 0.597412109375, 0.19140625, -0.70556640625
99, 3859622351, -6.317338466644287, 1.8124995231628418, 7.08362340927124, -0.2574204206466675, -0.8801036477088928, -1.401117205619812, 0.598876953125, 0.19140625, -0.7041015625
100, 3859639018, -6.320107460021973, 1.814823031425476, 7.1021904945373535, -0.29083219170570374, -0.8507771492004395, -1.4058297872543335, 0.595458984375, 0.19189453125, -0.703125
101, 3859655685, -6.315797328948975, 1.812180995941162, 7.086295127868652, -0.3027805685997009, -0.9136178493499756, -1.370497226715088, 0.599365234375, 0.19140625, -0.705078125
102, 3859672352, -6.321491718292236, 1.8221697807312012, 7.080029010772705, -0.2677808105945587, -0.9701834321022034, -1.3520047664642334, 0.596923828125, 0.19091796875, -0.70556640625
103, 3859689019, -6.2994842529296875, 1.8137309551239014, 7.103308200836182, -0.29974547028541565, -1.0521825551986694, -1.411861777305603, 0.596923828125, 0.19189453125, -0.705322265625
104, 3859705686, -6.314947605133057, 1.811898112297058, 7.096301078796387, -0.28595298528671265, -1.0509787797927856, -1.295298457145691, 0.596923828125, 0.19091796875, -0.7041015625
105, 3859722353, -6.322010517120361, 1.8098417520523071, 7.0743489265441895, -0.26616719365119934, -0.9886758923530579, -1.4240405559539795, 0.596435546875, 0.1923828125, -0.7041015625
106, 3859739020, -6.319529056549072, 1.8208835124969482, 7.100183963775635, -0.20762938261032104, -0.9957451224327087, -1.336778163909912, 0.598876953125, 0.1953125, -0.7041015625
107, 3859755687, -6.326401710510254, 1.8015598058700562, 7.123365879058838, -0.3292256295681, -0.9453646540641785, -1.4427762031555176, 0.595947265625, 0.1923828125, -0.70458984375
108, 3859772354, -6.319009304046631, 1.8034929037094116, 7.101740837097168, -0.23818530142307281, -1.0224334001541138, -1.4371157884597778, 0.599365234375, 0.1904296875, -0.7060546875
109, 3859789021, -6.299678802490234, 1.8193515539169312, 7.136137962341309, -0.3786325752735138, -0.9911219477653503, -1.3907697200775146, 0.597412109375, 0.19189453125, -0.705078125
110, 3859805688, -6.306268692016602, 1.8150159120559692, 7.10750150680542, -0.253655344247818, -0.9294463992118835, -1.3130478858947754, 0.598388671875, 0.19140625, -0.705810546875
111, 3859822355, -6.310853481292725, 1.8147971630096436, 7.12454891204834, -0.1613471955060959, -0.9261552095413208, -1.2902781963348389, 0.599365234375, 0.1923828125, -0.70458984375
112, 3859839022, -6.307744026184082, 1.79079008102417, 7.106040954589844, -0.1615777164697647, -0.761427104473114, -1.222199559211731, 0.598876953125, 0.19287109375, -0.705078125
113, 3859855689, -6.312768459320068, 1.8238428831100464, 7.123190879821777, -0.12131454050540924, -0.7070000767707825, -1.3224347829818726, 0.598876953125, 0.19091796875, -0.705078125
114, 3859872356, -6.323397636413574, 1.8093458414077759, 7.112950801849365, -0.2120603621006012, -0.8897595405578613, -1.3245095014572144, 0.596923828125, 0.193359375, -0.70458984375
115, 3859889023, -6.318903923034668, 1.807478666305542, 7.1006622314453125, -0.25097885727882385, -0.9065359234809875, -1.3696904182434082, 0.599853515625, 0.19189453125, -0.706298828125
116, 3859905690, -6.315094947814941, 1.8014216423034668, 7.094005107879639, -0.17469142377376556, -0.9604121446609497, -1.258710503578186, 0.597900390625, 0.19384765625, -0.705810546875
117, 3859922357, -6.30706262588501, 1.8068386316299438, 7.124034881591797, -0.17567749321460724, -1.064745545387268, -1.199404239654541, 0.597412109375, 0.19189453125, -0.70361328125
118, 3859939024, -6.2993597984313965, 1.819095492362976, 7.129013538360596, -0.2712128758430481, -0.9282938241958618, -1.312292218208313, 0.596435546875, 0.1923828125, -0.70263671875
119, 3859955691, -6.308474540710449, 1.8020429611206055, 7.1227827072143555, -0.20534983277320862, -0.9909170269966125, -1.2579295635223389, 0.596435546875, 0.19140625, -0.703125
120, 3859972358, -6.303425312042236, 1.8250768184661865, 7.104671955108643, -0.2712000906467438, -1.0238035917282104, -1.309013843536377, 0.594482421875, 0.191162109375, -0.70361328125
121, 3859989025, -6.304231643676758, 1.8043265342712402, 7.0858049392700195, -0.3177383542060852, -1.1248202323913574, -1.2688148021697998, 0.597412109375, 0.1923828125, -0.707275390625
122, 3860005692, -6.307287216186523, 1.7835819721221924, 7.121575832366943, -0.2651042640209198, -1.0980550050735474, -1.2616816759109497, 0.599365234375, 0.1923828125, -0.706298828125
123, 3860022359, -6.311600685119629, 1.8073264360427856, 7.079279899597168, -0.19310696423053741, -1.0646944046020508, -1.2529221773147583, 0.596923828125, 0.19189453125, -0.705078125
124, 3860039026, -6.29844856262207, 1.8083964586257935, 7.115013599395752, -0.20392830669879913, -1.0541930198669434, -1.1618176698684692, 0.596435546875, 0.19091796875, -0.705322265625
125, 3860055693, -6.306132793426514, 1.8048368692398071, 7.124140739440918, -0.07932253181934357, -1.0075011253356934, -1.2345575094223022, 0.596923828125, 0.19189453125, -0.70458984375
126, 3860072360, -6.3036651611328125, 1.8007043600082397, 7.097296714782715, -0.03225919231772423, -1.0413483381271362, -1.1583470106124878, 0.597900390625, 0.19189453125, -0.705078125
127, 3860089027, -6.328930377960205, 1.8059561252593994, 7.1357622146606445, 0.041780710220336914, -0.9765223860740662, -1.0914723873138428, 0.598388671875, 0.193359375, -0.706787109375
128, 3860105694, -6.298405170440674, 1.8268921375274658, 7.0921950340271, 0.05767339840531349, -0.9390127062797546, -1.0528484582901, 0.596923828125, 0.190185546875, -0.70556640625
129, 3860122361, -6.294243335723877, 1.8164863586425781, 7.1274003982543945, 0.16656579077243805, -0.677135705947876, -1.0520800352096558, 0.596435546875, 0.19091796875, -0.705078125
130, 3860139028, -6.305440425872803, 1.79545259475708, 7.107296466827393, 0.32953938841819763, -0.41223639249801636, -0.9540090560913086, 0.597412109375, 0.1904296875, -0.703125
131, 3860155695, -6.317183971405029, 1.8198744058609009, 7.110110759735107, 0.45023924112319946, -0.2741583287715912, -0.8559635877609253, 0.595947265625, 0.19091796875, -0.706787109375
132, 3860172362, -6.285193920135498, 1.8281575441360474, 7.106176376342773, 0.40422603487968445, -0.24022148549556732, -1.0283498764038086, 0.597412109375, 0.1923828125, -0.706298828125
133, 3860189029, -6.288337230682373, 1.8218371868133545, 7.101598739624023, 0.4648897349834442, -0.06569657474756241, -1.0003937482833862, 0.598876953125, 0.19091796875, -0.706298828125
134, 3860205696, -6.293392658233643, 1.8289457559585571, 7.087652683258057, 0.4971616864204407, 0.041601426899433136, -0.9624099731445312, 0.598876953125, 0.1904296875, -0.705078125
135, 3860222363, -6.30854606628418, 1.8153244256973267, 7.118882179260254, 0.4829850494861603, -0.07896395772695541, -0.9335188865661621, 0.597900390625, 0.190185546875, -0.70556640625
136, 3860239030, -6.312817096710205, 1.8329507112503052, 7.093775272369385, 0.38075196743011475, -0.13843663036823273, -1.0551663637161255, 0.597412109375, 0.19140625, -0.7041015625
137, 3860255697, -6.318146705627441, 1.8304774761199951, 7.097121238708496, 0.3514126241207123, -0.2238805890083313, -1.0340359210968018, 0.597900390625, 0.19091796875, -0.7041015625
138, 3860272364, -6.304830074310303, 1.8319127559661865, 7.105266571044922, 0.19949090480804443, -0.28359660506248474, -1.1315945386886597, 0.597412109375, 0.19189453125, -0.705078125
139, 3860289031, -6.305556774139404, 1.8411750793457031, 7.108437538146973, 0.22315706312656403, -0.3769805431365967, -1.1204787492752075, 0.599365234375, 0.18994140625, -0.70458984375
140, 3860305698, -6.314516544342041, 1.8421905040740967, 7.104055404663086, 0.12862057983875275, -0.6134753823280334, -1.1667994260787964, 0.598388671875, 0.189208984375, -0.7041015625
141, 3860322365, -6.293635845184326, 1.8438817262649536, 7.108874797821045, 0.029986068606376648, -0.6312122344970703, -1.256456732749939, 0.598388671875, 0.19091796875, -0.706298828125
142, 3860339032, -6.30555534362793, 1.8293707370758057, 7.096250534057617, 0.004373368341475725, -0.6163824200630188, -1.2130303382873535, 0.598876953125, 0.190185546875, -0.70263671875
143, 3860355699, -6.316890716552734, 1.8359451293945312, 7.112318992614746, -0.03704876825213432, -0.5556418895721436, -1.2383867502212524, 0.596435546875, 0.189208984375, -0.70361328125
144, 3860372366, -6.314306735992432, 1.8397599458694458, 7.1125335693359375, 0.04408586025238037, -0.5206037759780884, -1.2420878410339355, 0.597412109375, 0.189208984375, -0.7021484375
145, 3860389033, -6.3104119300842285, 1.8404083251953125, 7.121313571929932, 0.010930218733847141, -0.4975266754627228, -1.2360560894012451, 0.597900390625, 0.190185546875, -0.70263671875
146, 3860405700, -6.299670219421387, 1.837668776512146, 7.102063179016113, -0.05994652211666107, -0.49116188287734985, -1.2736684083938599, 0.597412109375, 0.190185546875, -0.705078125
147, 3860422367, -6.30755615234375, 1.8479441404342651, 7.093005180358887, -0.031695712357759476, -0.48904886841773987, -1.347957968711853, 0.599853515625, 0.18994140625, -0.705078125
148, 3860439034, -6.321281433105469, 1.8469499349594116, 7.080132007598877, -0.15877312421798706, -0.5109221935272217, -1.33977472782135, 0.595947265625, 0.188720703125, -0.70361328125
149, 3860455701, -6.3290629386901855, 1.827862024307251, 7.089066505432129, -0.07093437761068344, -0.5700234770774841, -1.3580111265182495, 0.599365234375, 0.19091796875, -0.7021484375
150, 3860472368, -6.323495388031006, 1.834751844406128, 7.103916645050049, -0.05360737815499306, -0.5978260040283203, -1.3307334184646606, 0.598388671875, 0.189208984375, -0.701171875
151, 3860489035, -6.310070037841797, 1.8332037925720215, 7.0839691162109375, -0.0652867779135704, -0.8111670613288879, -1.2833627462387085, 0.60009765625, 0.19091796875, -0.70263671875
152, 3860505702, -6.314411640167236, 1.845749855041504, 7.071124076843262, -0.11310569196939468, -0.9235042333602905, -1.3025721311569214, 0.596435546875, 0.189697265625, -0.7041015625
153, 3860522369, -6.320764064788818, 1.845070242881775, 7.11308479309082, -0.20360814034938812, -0.9293566346168518, -1.2530372142791748, 0.599365234375, 0.189697265625, -0.703125
154, 3860539036, -6.321496963500977, 1.8344876766204834, 7.096096515655518, -0.09953093528747559, -0.8972128033638, -1.295682430267334, 0.598388671875, 0.188720703125, -0.7021484375
155, 3860555703, -6.313929080963135, 1.8493398427963257, 7.094691276550293, -0.21577420830726624, -0.8129215240478516, -1.378462791442871, 0.597900390625, 0.189697265625, -0.70361328125
156, 3860572370, -6.32258415222168, 1.821869969367981, 7.084761142730713, -0.19039200246334076, -0.9673148989677429, -1.329324722290039, 0.596435546875, 0.187255859375, -0.7041015625
157, 3860589037, -6.317323207855225, 1.8445979356765747, 7.095710277557373, -0.13387757539749146, -0.8252283930778503, -1.3099615573883057, 0.596923828125, 0.189208984375, -0.70361328125
158, 3860605704, -6.3110857009887695, 1.841871738433838, 7.113536357879639, -0.14121562242507935, -0.8790534138679504, -1.4427889585494995, 0.599365234375, 0.189697265625, -0.70458984375
159, 3860622371, -6.313443660736084, 1.8419592380523682, 7.100186824798584, -0.292228102684021, -0.9288702011108398, -1.4757270812988281, 0.597900390625, 0.187255859375, -0.70263671875
160, 3860639038, -6.32321310043335, 1.8365381956100464, 7.105152130126953, -0.24551056325435638, -0.8701274991035461, -1.4830522537231445, 0.598876953125, 0.19140625, -0.7021484375
161, 3860655705, -6.324419975280762, 1.8412357568740845, 7.080709457397461, -0.2981574535369873, -0.8833436369895935, -1.5579181909561157, 0.596435546875, 0.189697265625, -0.70068359375
162, 3860672372, -6.323896884918213, 1.8337082862854004, 7.082767009735107, -0.3714994490146637, -0.8172628283500671, -1.5563558340072632, 0.598388671875, 0.189208984375, -0.707275390625
163, 3860689039, -6.330148220062256, 1.8244787454605103, 7.0790696144104, -0.4266178607940674, -0.9742430448532104, -1.60735023021698, 0.597412109375, 0.189697265625, -0.703125
164, 3860705706, -6.322756290435791, 1.8426192998886108, 7.1036763191223145, -0.39447396993637085, -0.9060492515563965, -1.551963210105896, 0.597900390625, 0.189697265625, -0.70458984375
165, 3860722373, -6.317553520202637, 1.8183822631835938, 7.105739116668701, -0.2856840193271637, -0.7444714903831482, -1.5341238975524902, 0.597900390625, 0.19091796875, -0.70068359375
166, 3860739040, -6.3200602531433105, 1.8457356691360474, 7.087631702423096, -0.29097306728363037, -0.6303541660308838, -1.4833723306655884, 0.596923828125, 0.188720703125, -0.70361328125
167, 3860755707, -6.315468788146973, 1.837082862854004, 7.0815935134887695, -0.36756789684295654, -0.8135746121406555, -1.4954359531402588, 0.597900390625, 0.188232421875, -0.703125
168, 3860772374, -6.338167667388916, 1.823175311088562, 7.096611499786377, -0.3883140981197357, -0.9018614888191223, -1.495358943939209, 0.597412109375, 0.189697265625, -0.70458984375
169, 3860789041, -6.3159942626953125, 1.8328015804290771, 7.096072673797607, -0.4094318449497223, -0.9752804040908813, -1.4798377752304077, 0.597412109375, 0.188232421875, -0.7041015625
170, 3860805708, -6.3123555183410645, 1.8470579385757446, 7.083566665649414, -0.43733683228492737, -1.0639387369155884, -1.4502549171447754, 0.597900390625, 0.190185546875, -0.701171875
171, 3860822375, -6.320613384246826, 1.8262161016464233, 7.0836873054504395, -0.4594790041446686, -1.1440297365188599, -1.534175157546997, 0.596923828125, 0.190673828125, -0.70361328125
172, 3860839042, -6.297940254211426, 1.8225817680358887, 7.10644006729126, -0.4850788712501526, -1.0599429607391357, -1.6689103841781616, 0.596923828125, 0.188720703125, -0.70361328125
173, 3860855709, -6.3083977699279785, 1.8282023668289185, 7.10167121887207, -0.5327569246292114, -0.9556353688240051, -1.606249213218689, 0.597900390625, 0.189208984375, -0.70166015625
174, 3860872376, -6.32157039642334, 1.823714017868042, 7.0902252197265625, -0.5720852613449097, -1.042270302772522, -1.6074146032333374, 0.595947265625, 0.19140625, -0.70263671875
175, 3860889043, -6.3251423835754395, 1.820896029472351, 7.097801685333252, -0.6070594191551208, -1.0045557022094727, -1.7542136907577515, 0.597900390625, 0.1904296875, -0.70458984375
176, 3860905710, -6.31804084777832, 1.8286848068237305, 7.110461235046387, -0.6349644064903259, -1.024072527885437, -1.6932297945022583, 0.598388671875, 0.1943359375, -0.706787109375
177, 3860922377, -6.312655448913574, 1.8315318822860718, 7.104306697845459, -0.5577293634414673, -1.04828941822052, -1.7622562646865845, 0.598388671875, 0.19140625, -0.705078125
178, 3860939044, -6.305166721343994, 1.8118590116500854, 7.104068756103516, -0.5072210431098938, -0.9074450731277466, -1.6719329357147217, 0.596923828125, 0.19140625, -0.703125
179, 3860955711, -6.320516586303711, 1.8149821758270264, 7.104671955108643, -0.41332486271858215, -0.914616584777832, -1.595325231552124, 0.596923828125, 0.19140625, -0.706298828125
180, 3860972378, -6.313721179962158, 1.8125661611557007, 7.120522975921631, -0.3599993586540222, -0.7916117906570435, -1.5094590187072754, 0.596923828125, 0.19287109375, -0.705810546875
181, 3860989045, -6.333092212677002, 1.8201334476470947, 7.11240816116333, -0.3145751953125, -0.8796042203903198, -1.413705825805664, 0.599365234375, 0.1923828125, -0.706298828125
182, 3861005712, -6.332083702087402, 1.8208799362182617, 7.095244407653809, -0.3573996424674988, -0.9409210085868835, -1.47404944896698, 0.597412109375, 0.19189453125, -0.7041015625
183, 3861022379, -6.318554878234863, 1.8225716352462769, 7.108439922332764, -0.229605033993721, -1.044575572013855, -1.5023895502090454, 0.600830078125, 0.1923828125, -0.705078125
184, 3861039046, -6.32240629196167, 1.8247512578964233, 7.106903076171875, -0.3093501925468445, -0.9921591877937317, -1.469605565071106, 0.597412109375, 0.19140625, -0.703125
185, 3861055713, -6.300960540771484, 1.8141942024230957, 7.103780746459961, -0.34694957733154297, -1.0624529123306274, -1.4758291244506836, 0.596435546875, 0.19189453125, -0.70361328125
186, 3861072380, -6.323172092437744, 1.8120105266571045, 7.099344253540039, -0.3625989854335785, -1.0644508600234985, -1.446925163269043, 0.597412109375, 0.19189453125, -0.70361328125
187, 3861089047, -6.321900844573975, 1.810457706451416, 7.075669765472412, -0.35436445474624634, -1.0547053813934326, -1.5048484802246094, 0.598388671875, 0.190185546875, -0.7041015625
188, 3861105714, -6.306818962097168, 1.8150124549865723, 7.120851039886475, -0.30269089341163635, -0.9804670214653015, -1.3673083782196045, 0.597412109375, 0.193359375, -0.70458984375
189, 3861122381, -6.3115057945251465, 1.8273451328277588, 7.114290237426758, -0.33635881543159485, -1.0234450101852417, -1.2849252223968506, 0.597900390625, 0.19189453125, -0.70361328125
190, 3861139048, -6.322835922241211, 1.8340483903884888, 7.088688850402832, -0.44781240820884705, -1.2416523694992065, -1.4666471481323242, 0.598876953125, 0.19189453125, -0.703125
191, 3861155715, -6.308170318603516, 1.7906500101089478, 7.100149154663086, -0.5058507919311523, -1.3223451375961304, -1.416010856628418, 0.598876953125, 0.1923828125, -0.70458984375
192, 3861172382, -6.312395095825195, 1.838211178779602, 7.130820274353027, -0.43363574147224426, -1.191105604171753, -1.4093002080917358, 0.598388671875, 0.19189453125, -0.70458984375
193, 3861189049, -6.3084564208984375, 1.800376057624817, 7.132399082183838, -0.2414124757051468, -0.8783747553825378, -1.3614557981491089, 0.597900390625, 0.19091796875, -0.70458984375
194, 3861205716, -6.305100440979004, 1.8155028820037842, 7.107409477233887, -0.17592082917690277, -0.8391744494438171, -1.3272628784179688, 0.598388671875, 0.1923828125, -0.70361328125
195, 3861222383, -6.310628414154053, 1.8081653118133545, 7.101175308227539, -0.1818757802248001, -0.837932288646698, -1.3296833038330078, 0.596435546875, 0.19287109375, -0.706298828125
196, 3861239050, -6.292322635650635, 1.8099371194839478, 7.109886169433594, -0.21130478382110596, -0.7792408466339111, -1.3602007627487183, 0.597900390625, 0.193359375, -0.7041015625
197, 3861255717, -6.300326347351074, 1.8009307384490967, 7.098093032836914, -0.255230575799942, -0.8633913397789001, -1.3867613077163696, 0.597412109375, 0.19189453125, -0.70361328125
198, 3861272384, -6.303692817687988, 1.8115849494934082, 7.104179382324219, -0.28718242049217224, -0.9510764479637146, -1.3966734409332275, 0.596923828125, 0.190185546875, -0.705078125
199, 3861289051, -6.313587665557861, 1.8088322877883911, 7.102147102355957, -0.23385676741600037, -0.9503848552703857, -1.247107982635498, 0.597900390625, 0.1923828125, -0.70458984375
200, 3861305718, -6.3169355392456055, 1.811927318572998, 7.105432987213135, -0.1500519961118698, -0.9405752420425415, -1.1915156841278076, 0.598388671875, 0.19189453125, -0.70458984375
201, 3861322385, -6.311476707458496, 1.8171501159667969, 7.110763072967529, -0.21177862584590912, -0.8854182958602905, -1.1741886138916016, 0.597900390625, 0.1953125, -0.704833984375
202, 3861339052, -6.298295974731445, 1.8167556524276733, 7.117473125457764, -0.1532919853925705, -0.8103857040405273, -1.254240870475769, 0.598388671875, 0.19140625, -0.7041015625
203, 3861355719, -6.2996625900268555, 1.808660864830017, 7.124502182006836, -0.11713968217372894, -0.8125244975090027, -1.2476330995559692, 0.598876953125, 0.19091796875, -0.705810546875
204, 3861372386, -6.309101581573486, 1.823223352432251, 7.1138153076171875, -0.03464118018746376, -0.7644622325897217, -1.3166849613189697, 0.596435546875, 0.19287109375, -0.707763671875
205, 3861389053, -6.302316665649414, 1.8088968992233276, 7.097882270812988, -0.09060493111610413, -0.746955931186676, -1.336483359336853, 0.600830078125, 0.1904296875, -0.70556640625
206, 3861405720, -6.315304756164551, 1.8164231777191162, 7.114110946655273, -0.09936447441577911, -0.6578750014305115, -1.3246504068374634, 0.596435546875, 0.1923828125, -0.7041015625
207, 3861422387, -6.29707670211792, 1.8163412809371948, 7.109608173370361, -0.13349337875843048, -0.5776560306549072, -1.3678078651428223, 0.598388671875, 0.19189453125, -0.705810546875
208, 3861439054, -6.298954963684082, 1.816452145576477, 7.100688934326172, -0.03686948120594025, -0.6468231081962585, -1.3728023767471313, 0.597900390625, 0.19189453125, -0.705810546875
209, 3861455721, -6.299736022949219, 1.8273978233337402, 7.100497245788574, -0.026240212842822075, -0.38288426399230957, -1.4865484237670898, 0.596435546875, 0.19091796875, -0.70361328125
210, 3861472388, -6.308404922485352, 1.804183840751648, 7.096285820007324, 0.08956120908260345, -0.23967085778713226, -1.5089082717895508, 0.596923828125, 0.19091796875, -0.705078125
211, 3861489055, -6.319311618804932, 1.803511142730713, 7.099765777587891, 0.03185579553246498, -0.3314923644065857, -1.4055095911026, 0.598388671875, 0.19287109375, -0.703125
212, 3861505722, -6.296246528625488, 1.8112014532089233, 7.104115009307861, 0.011775437742471695, -0.3603578805923462, -1.3483549356460571, 0.598876953125, 0.1943359375, -0.705322265625
213, 3861522389, -6.3137664794921875, 1.8239996433258057, 7.095714092254639, 0.09326224029064178, -0.3787350058555603, -1.4985606670379639, 0.597900390625, 0.1923828125, -0.70458984375
214, 3861539056, -6.33282470703125, 1.8111706972122192, 7.089316368103027, 0.013184135779738426, -0.41428542137145996, -1.450536847114563, 0.599853515625, 0.19189453125, -0.705078125
215, 3861555723, -6.319479465484619, 1.806226134300232, 7.093525409698486, -0.03667738661170006, -0.4747697710990906, -1.4392800331115723, 0.595458984375, 0.19189453125, -0.70458984375
216, 3861572390, -6.306519985198975, 1.8211637735366821, 7.09065580368042, -0.07355967909097672, -0.6717187166213989, -1.390359878540039, 0.597412109375, 0.19189453125, -0.703125
217, 3861589057, -6.311837196350098, 1.8305312395095825, 7.110978126525879, -0.06359633803367615, -0.6170867681503296, -1.5014036893844604, 0.598876953125, 0.193359375, -0.705078125
218, 3861605724, -6.316688060760498, 1.8089790344238281, 7.122099876403809, -0.14151017367839813, -0.6027052402496338, -1.5185898542404175, 0.599365234375, 0.19189453125, -0.70556640625
219, 3861622391, -6.304756164550781, 1.812677025794983, 7.127060413360596, 0.05083480849862099, -0.4196256697177887, -1.3917044401168823, 0.597412109375, 0.1943359375, -0.70458984375
220, 3861639058, -6.318190574645996, 1.8395729064941406, 7.105662822723389, -0.06944882869720459, -0.3769676983356476, -1.3710477352142334, 0.597900390625, 0.19189453125, -0.7041015625
221, 3861655725, -6.321409702301025, 1.8272892236709595, 7.106283664703369, -0.08813329041004181, -0.49003496766090393, -1.5461105108261108, 0.597412109375, 0.1923828125, -0.7021484375
222, 3861672392, -6.318678379058838, 1.808621883392334, 7.080134391784668, -0.07715824991464615, -0.39530637860298157, -1.4987783432006836, 0.596923828125, 0.190185546875, -0.7021484375
223, 3861689059, -6.31767463684082, 1.8178147077560425, 7.092379570007324, -0.11569256335496902, -0.5195664167404175, -1.5181798934936523, 0.599853515625, 0.19140625, -0.703125
224, 3861705726, -6.300492286682129, 1.818045735359192, 7.0799994468688965, -0.17182280123233795, -0.5757991075515747, -1.4914019107818604, 0.598388671875, 0.193359375, -0.70263671875
225, 3861722393, -6.316283226013184, 1.8228954076766968, 7.0882568359375, -0.3324912488460541, -0.60543292760849, -1.6074401140213013, 0.599365234375, 0.1923828125, -0.70263671875
226, 3861739060, -6.334569454193115, 1.8153049945831299, 7.105770587921143, -0.3072499632835388, -0.6652898192405701, -1.5705194473266602, 0.597900390625, 0.1923828125, -0.7041015625
227, 3861755727, -6.339702606201172, 1.7950934171676636, 7.079456806182861, -0.2757079005241394, -0.6861256957054138, -1.5982835292816162, 0.595458984375, 0.19189453125, -0.705322265625
228, 3861772394, -6.330308437347412, 1.8178988695144653, 7.099852561950684, -0.33331090211868286, -0.691299557685852, -1.4580156803131104, 0.597900390625, 0.1923828125, -0.70068359375
229, 3861789061, -6.33322286605835, 1.8181159496307373, 7.075390338897705, -0.20743726193904877, -0.682514488697052, -1.5294880867004395, 0.597412109375, 0.1923828125, -0.70458984375
230, 3861805728, -6.332459926605225, 1.8147344589233398, 7.112342357635498, -0.2156205177307129, -0.5772462487220764, -1.4834108352661133, 0.595458984375, 0.1923828125, -0.703125
231, 3861822395, -6.347551345825195, 1.82398521900177, 7.0908894538879395, -0.23678940534591675, -0.5473177433013916, -1.4692596197128296, 0.597412109375, 0.19091796875, -0.707275390625
232, 3861839062, -6.338447093963623, 1.83919358253479, 7.082335948944092, -0.24636860191822052, -0.5618017911911011, -1.5359296798706055, 0.600830078125, 0.19189453125, -0.70458984375
233, 3861855729, -6.3156843185424805, 1.792925238609314, 7.1018452644348145, -0.33115944266319275, -0.7461107969284058, -1.5481724739074707, 0.597412109375, 0.193359375, -0.70361328125
234, 3861872396, -6.320370197296143, 1.8123888969421387, 7.0754075050354, -0.19785812497138977, -0.835934579372406, -1.5116488933563232, 0.595947265625, 0.19189453125, -0.70263671875
235, 3861889063, -6.329929351806641, 1.7996277809143066, 7.106901168823242, -0.14078021049499512, -0.6643677949905396, -1.4737035036087036, 0.598388671875, 0.19140625, -0.705078125
236, 3861905730, -6.304951190948486, 1.8077582120895386, 7.079749584197998, -0.09203923493623734, -0.42194363474845886, -1.4216585159301758, 0.599853515625, 0.19140625, -0.70263671875
237, 3861922397, -6.322734355926514, 1.7983812093734741, 7.081424713134766, -0.1359778195619583, -0.48393917083740234, -1.4132320880889893, 0.599365234375, 0.1923828125, -0.7021484375
238, 3861939064, -6.325361728668213, 1.8057405948638916, 7.081132411956787, -0.18702393770217896, -0.5925625562667847, -1.4576956033706665, 0.597900390625, 0.193359375, -0.7021484375
239, 3861955731, -6.321545600891113, 1.8419914245605469, 7.096054553985596, -0.12723109126091003, -0.4642813801765442, -1.5173603296279907, 0.595458984375, 0.1923828125, -0.703125
240, 3861972398, -6.317729949951172, 1.823927402496338, 7.08890438079834, -0.17438405752182007, -0.5178887248039246, -1.5884995460510254, 0.597900390625, 0.190185546875, -0.705078125
241, 3861989065, -6.3255462646484375, 1.807637095451355, 7.099739074707031, -0.2482639104127884, -0.5540668368339539, -1.6001535654067993, 0.598388671875, 0.19482421875, -0.70263671875
242, 3862005732, -6.32572603225708, 1.7974332571029663, 7.067477703094482, -0.1765739619731903, -0.44896504282951355, -1.5309224128723145, 0.598876953125, 0.1923828125, -0.70263671875
243, 3862022399, -6.337058067321777, 1.793565034866333, 7.0750412940979, -0.12196766585111618, -0.5069265365600586, -1.531024694442749, 0.598876953125, 0.1943359375, -0.70263671875
244, 3862039066, -6.339097023010254, 1.813727617263794, 7.0721540451049805, -0.1817605197429657, -0.5759015679359436, -1.4970494508743286, 0.597412109375, 0.19189453125, -0.70458984375
245, 3862055733, -6.338908672332764, 1.8051893711090088, 7.076718807220459, -0.14445561170578003, -0.4843488931655884, -1.4734472036361694, 0.598876953125, 0.1923828125, -0.703125
246, 3862072400, -6.347076416015625, 1.7901439666748047, 7.091341972351074, -0.12712863087654114, -0.42915356159210205, -1.4416875839233398, 0.594970703125, 0.19189453125, -0.70458984375
247, 3862089067, -6.341916561126709, 1.818772315979004, 7.098421096801758, -0.15395794808864594, -0.5570378303527832, -1.406380534172058, 0.597412109375, 0.19384765625, -0.70263671875
248, 3862105734, -6.350978851318359, 1.8023558855056763, 7.0814948081970215, -0.2286829799413681, -0.7212920188903809, -1.490159511566162, 0.598876953125, 0.19189453125, -0.705078125
249, 3862122401, -6.336180210113525, 1.7918931245803833, 7.090575695037842, -0.26758870482444763, -0.9398196339607239, -1.3867740631103516, 0.596435546875, 0.1923828125, -0.7021484375
250, 3862139068, -6.345827579498291, 1.7986458539962769, 7.07526969909668, -0.28494131565093994, -0.9766506552696228, -1.3452814817428589, 0.598388671875, 0.19189453125, -0.7021484375
251, 3862155735, -6.329556465148926, 1.8132531642913818, 7.094691753387451, -0.3038434386253357, -1.0004321336746216, -1.2637561559677124, 0.597412109375, 0.1943359375, -0.70166015625
252, 3862172402, -6.339584827423096, 1.824148416519165, 7.0824151039123535, -0.3291616141796112, -1.0416812896728516, -1.3560643196105957, 0.597900390625, 0.19189453125, -0.7021484375
253, 3862189069, -6.335421562194824, 1.7964409589767456, 7.089346885681152, -0.3085305988788605, -1.1320557594299316, -1.3294657468795776, 0.598388671875, 0.193359375, -0.703125
254, 3862205736, -6.337056636810303, 1.8022092580795288, 7.088127136230469, -0.3207990825176239, -1.076220154762268, -1.2414348125457764, 0.598388671875, 0.193359375, -0.703125
255, 3862222403, -6.338359355926514, 1.8104026317596436, 7.102016925811768, -0.2562166154384613, -1.0498132705688477, -1.1967277526855469, 0.597412109375, 0.19140625, -0.7021484375
256, 3862239070, -6.321231365203857, 1.8138264417648315, 7.093301773071289, -0.20009921491146088, -1.0609933137893677, -1.163046956062317, 0.600341796875, 0.19384765625, -0.701171875
257, 3862255737, -6.339717388153076, 1.8076157569885254, 7.101340293884277, -0.2260064333677292, -1.089064598083496, -1.2170640230178833, 0.598388671875, 0.19384765625, -0.70361328125
258, 3862272404, -6.315633296966553, 1.8078608512878418, 7.096372127532959, -0.2561269998550415, -1.1875585317611694, -1.2184473276138306, 0.600341796875, 0.1904296875, -0.70361328125
259, 3862289071, -6.333805084228516, 1.814705491065979, 7.088278770446777, -0.3611006736755371, -1.1441066265106201, -1.2330338954925537, 0.597900390625, 0.19189453125, -0.703125
260, 3862305738, -6.322286605834961, 1.8239742517471313, 7.0984110832214355, -0.34084099531173706, -1.2504503726959229, -1.316992163658142, 0.59521484375, 0.19384765625, -0.7041015625
261, 3862322405, -6.325122833251953, 1.8145745992660522, 7.099871635437012, -0.3320302665233612, -1.145400047302246, -1.2727079391479492, 0.599853515625, 0.19287109375, -0.70361328125
262, 3862339072, -6.321221828460693, 1.801316261291504, 7.0898003578186035, -0.30740365386009216, -1.130787968635559, -1.2278215885162354, 0.597900390625, 0.1923828125, -0.70263671875
263, 3862355739, -6.311955451965332, 1.804404854774475, 7.086033344268799, -0.20785987377166748, -1.1571433544158936, -1.2891000509262085, 0.597900390625, 0.1923828125, -0.7041015625
264, 3862372406, -6.317009925842285, 1.8226428031921387, 7.102412223815918, -0.25459024310112, -1.0437047481536865, -1.29756498336792, 0.595947265625, 0.190673828125, -0.70361328125
265, 3862389073, -6.328684329986572, 1.8124661445617676, 7.117642402648926, -0.18955960869789124, -0.9448397159576416, -1.4166641235351562, 0.596923828125, 0.19140625, -0.705078125
266, 3862405740, -6.32364559173584, 1.823103904724121, 7.088366508483887, -0.34647583961486816, -1.0213449001312256, -1.4561461210250854, 0.596923828125, 0.193359375, -0.70458984375
267, 3862422407, -6.313763618469238, 1.8038156032562256, 7.092920303344727, -0.3364611864089966, -0.8544780015945435, -1.4620623588562012, 0.597900390625, 0.19140625, -0.7041015625
268, 3862439074, -6.319007396697998, 1.8237664699554443, 7.082967281341553, -0.2931629717350006, -0.92831951379776, -1.471155047416687, 0.599365234375, 0.19189453125, -0.70263671875
269, 3862455741, -6.320295810699463, 1.8017067909240723, 7.096529960632324, -0.30554667115211487, -0.9462611675262451, -1.5375303030014038, 0.597900390625, 0.19287109375, -0.7021484375
270, 3862472408, -6.325926780700684, 1.7969324588775635, 7.112861156463623, -0.4228785037994385, -1.0016744136810303, -1.4220300912857056, 0.598388671875, 0.1923828125, -0.705078125
271, 3862489075, -6.312311172485352, 1.7996137142181396, 7.097561836242676, -0.34929320216178894, -0.9093532562255859, -1.525710105895996, 0.597412109375, 0.19189453125, -0.705078125
272, 3862505742, -6.32095193862915, 1.7951682806015015, 7.095272541046143, -0.3824232220649719, -0.9264369606971741, -1.4757782220840454, 0.595947265625, 0.19189453125, -0.707275390625
273, 3862522409, -6.321811199188232, 1.7843073606491089, 7.116659164428711, -0.2714433968067169, -0.6360529661178589, -1.3526322841644287, 0.596435546875, 0.193359375, -0.70458984375
274, 3862539076, -6.322926998138428, 1.8182659149169922, 7.100674152374268, -0.29557058215141296, -0.5667451024055481, -1.3844177722930908, 0.595947265625, 0.19384765625, -0.704833984375
275, 3862555743, -6.324179172515869, 1.8146576881408691, 7.090428829193115, -0.3350653350353241, -0.7347003221511841, -1.4561076164245605, 0.597412109375, 0.1943359375, -0.70361328125
276, 3862572410, -6.324900150299072, 1.795633316040039, 7.094961166381836, -0.3649681806564331, -0.7992442846298218, -1.4379225969314575, 0.596923828125, 0.19384765625, -0.70458984375
277, 3862589077, -6.332653999328613, 1.7927325963974, 7.100717067718506, -0.2443963587284088, -0.8666567802429199, -1.3497251272201538, 0.598876953125, 0.19287109375, -0.70166015625
278, 3862605744, -6.33551549911499, 1.7921797037124634, 7.105279445648193, -0.24872492253780365, -0.9362338781356812, -1.3120874166488647, 0.599365234375, 0.19189453125, -0.70458984375
279, 3862622411, -6.3285064697265625, 1.797502875328064, 7.119454860687256, -0.20714271068572998, -1.0451900959014893, -1.3070671558380127, 0.597412109375, 0.19287109375, -0.705322265625
280, 3862639078, -6.316043853759766, 1.805058479309082, 7.091313362121582, -0.24607400596141815, -1.0174132585525513, -1.3044803142547607, 0.59423828125, 0.1923828125, -0.7041015625
281, 3862655745, -6.31471586227417, 1.8023465871810913, 7.1076154708862305, -0.23963244259357452, -1.0092812776565552, -1.3502631187438965, 0.598388671875, 0.1923828125, -0.703125
282, 3862672412, -6.327120780944824, 1.8092668056488037, 7.114063739776611, -0.3883269429206848, -0.9101089239120483, -1.3507113456726074, 0.597900390625, 0.19287109375, -0.70458984375
283, 3862689079, -6.331602573394775, 1.790417194366455, 7.0920610427856445, -0.2798059284687042, -0.8279432654380798, -1.3574986457824707, 0.599365234375, 0.19140625, -0.7041015625
284, 3862705746, -6.3058390617370605, 1.7996435165405273, 7.116438865661621, -0.12653954327106476, -0.696319580078125, -1.3996058702468872, 0.596435546875, 0.193359375, -0.7041015625
285, 3862722413, -6.319084167480469, 1.794493317604065, 7.111987113952637, -0.12588642537593842, -0.72720867395401, -1.5158108472824097, 0.597412109375, 0.1943359375, -0.705322265625
286, 3862739080, -6.3169708251953125, 1.8000801801681519, 7.097606182098389, -0.136374831199646, -0.6815155148506165, -1.358151912689209, 0.598388671875, 0.19140625, -0.703125
287, 3862755747, -6.320623397827148, 1.7911237478256226, 7.0898027420043945, -0.11918871104717255, -0.7019928693771362, -1.3270196914672852, 0.596435546875, 0.193359375, -0.70361328125
288, 3862772414, -6.310555934906006, 1.8031084537506104, 7.094761371612549, -0.13976851105690002, -0.739605188369751, -1.2291151285171509, 0.596923828125, 0.1943359375, -0.70458984375
289, 3862789081, -6.329826354980469, 1.7812191247940063, 7.080897331237793, -0.1270005702972412, -0.7621186375617981, -1.2574297189712524, 0.596435546875, 0.19091796875, -0.70361328125
290, 3862805748, -6.314018249511719, 1.7984260320663452, 7.094829559326172, -0.09004144370555878, -0.8189660906791687, -1.2659717798233032, 0.599853515625, 0.19287109375, -0.70458984375
291, 3862822415, -6.3092570304870605, 1.7849514484405518, 7.116872310638428, -0.03053033910691738, -0.7971953749656677, -1.2424081563949585, 0.595947265625, 0.19091796875, -0.70361328125
292, 3862839082, -6.323960781097412, 1.7797037363052368, 7.113718509674072, -0.02230866067111492, -0.7325872778892517, -1.3074642419815063, 0.598388671875, 0.19140625, -0.705078125
293, 3862855749, -6.318384647369385, 1.8084999322891235, 7.104493141174316, -0.05613023415207863, -0.6836926341056824, -1.242100715637207, 0.595458984375, 0.1923828125, -0.70361328125
294, 3862872416, -6.333347797393799, 1.808112621307373, 7.077682018280029, -0.14033198356628418, -0.7622467279434204, -1.2315739393234253, 0.596923828125, 0.1923828125, -0.70361328125
295, 3862889083, -6.3303046226501465, 1.8004966974258423, 7.091616630554199, -0.09264113754034042, -0.6857032179832458, -1.190529465675354, 0.599853515625, 0.1904296875, -0.7021484375
296, 3862905750, -6.331328392028809, 1.7962688207626343, 7.105275630950928, -0.15395791828632355, -0.6545453071594238, -1.231189489364624, 0.597412109375, 0.19482421875, -0.7041015625
297, 3862922417, -6.319883346557617, 1.8120745420455933, 7.088513374328613, -0.12344040721654892, -0.8595622181892395, -1.2566357851028442, 0.597900390625, 0.19287109375, -0.705078125
298, 3862939084, -6.308041572570801, 1.8070814609527588, 7.110622882843018, -0.16497139632701874, -0.7855287194252014, -1.2896250486373901, 0.597412109375, 0.19287109375, -0.70361328125
299, 3862955751, -6.309808731079102, 1.801777958869934, 7.104471206665039, -0.16836509108543396, -0.6661479473114014, -1.322166085243225, 0.598876953125, 0.193359375, -0.70361328125
300, 3862972418, -6.317416667938232, 1.8039823770523071, 7.099889755249023, -0.08152522146701813, -0.4669322669506073, -1.3848018646240234, 0.597412109375, 0.19091796875, -0.70361328125
301, 3862989085, -6.325524806976318, 1.8099257946014404, 7.084507465362549, -0.22905437648296356, -0.6184442639350891, -1.4593603610992432, 0.599365234375, 0.193359375, -0.705078125
302, 3863005752, -6.3190741539001465, 1.8059887886047363, 7.090336322784424, -0.25313034653663635, -0.8679503798484802, -1.395520806312561, 0.595947265625, 0.19287109375, -0.70361328125
303, 3863022419, -6.324076175689697, 1.8000556230545044, 7.0830979347229, -0.3434663414955139, -0.9439560770988464, -1.4041138887405396, 0.600830078125, 0.19287109375, -0.703125
304, 3863039086, -6.317718029022217, 1.803849220275879, 7.0999321937561035, -0.33422011137008667, -0.9174724221229553, -1.4517661333084106, 0.598876953125, 0.19482421875, -0.701171875
305, 3863055753, -6.322547435760498, 1.8118572235107422, 7.095672607421875, -0.2843906283378601, -0.9079574346542358, -1.3989145755767822, 0.596923828125, 0.193359375, -0.7041015625
306, 3863072420, -6.318800926208496, 1.8040106296539307, 7.0970940589904785, -0.1796218454837799, -0.8483437895774841, -1.473114252090454, 0.597412109375, 0.19140625, -0.70556640625
307, 3863089087, -6.317109107971191, 1.7978074550628662, 7.071380615234375, -0.13602904975414276, -0.6902751326560974, -1.400681734085083, 0.597900390625, 0.19287109375, -0.7041015625
308, 3863105754, -6.32371187210083, 1.806579351425171, 7.0943284034729, -0.191557377576828, -0.6691061854362488, -1.3765801191329956, 0.597900390625, 0.193359375, -0.70458984375
309, 3863122421, -6.316085338592529, 1.8228404521942139, 7.102458477020264, -0.23781393468379974, -0.6717955470085144, -1.4130399227142334, 0.597412109375, 0.19287109375, -0.703125
310, 3863139088, -6.307182788848877, 1.8228952884674072, 7.091292858123779, -0.4007619321346283, -0.6707069873809814, -1.5760775804519653, 0.595947265625, 0.1923828125, -0.703125
311, 3863155755, -6.3132476806640625, 1.800431728363037, 7.083892822265625, -0.3568233251571655, -0.673114538192749, -1.600127935409546, 0.598876953125, 0.1923828125, -0.705078125
312, 3863172422, -6.318499565124512, 1.7839761972427368, 7.103710651397705, -0.23741692304611206, -0.5337686538696289, -1.5475705862045288, 0.596435546875, 0.19287109375, -0.70458984375
313, 3863189089, -6.327402591705322, 1.7755441665649414, 7.10048246383667, -0.1548287570476532, -0.448580801486969, -1.5524240732192993, 0.598876953125, 0.195556640625, -0.7021484375
314, 3863205756, -6.329891204833984, 1.831620693206787, 7.070064544677734, -0.24033674597740173, -0.47496187686920166, -1.489890694618225, 0.598388671875, 0.19287109375, -0.70361328125
315, 3863222423, -6.3385748863220215, 1.804356575012207, 7.106545925140381, -0.2856840491294861, -0.6141926050186157, -1.6191325187683105, 0.597900390625, 0.19384765625, -0.70263671875
316, 3863239090, -6.323697090148926, 1.812966227531433, 7.077589511871338, -0.33503976464271545, -0.6131808757781982, -1.626585841178894, 0.597900390625, 0.19384765625, -0.705322265625
317, 3863255757, -6.334036350250244, 1.7846206426620483, 7.097091197967529, -0.3446957468986511, -0.6510364413261414, -1.5666136741638184, 0.597412109375, 0.19580078125, -0.7021484375
318, 3863272424, -6.332912921905518, 1.7769228219985962, 7.103087902069092, -0.31086134910583496, -0.7250443696975708, -1.5545885562896729, 0.599365234375, 0.19384765625, -0.703125
319, 3863289091, -6.32695198059082, 1.7843074798583984, 7.083526134490967, -0.23515018820762634, -0.6911202073097229, -1.3502758741378784, 0.598876953125, 0.19482421875, -0.70458984375
320, 3863305758, -6.319758415222168, 1.791153907775879, 7.081000804901123, -0.1959627866744995, -0.7417950630187988, -1.355974793434143, 0.597900390625, 0.19287109375, -0.7041015625
321, 3863322425, -6.319177627563477, 1.7923915386199951, 7.099083423614502, -0.17443528771400452, -0.791355550289154, -1.3980306386947632, 0.596923828125, 0.19287109375, -0.703125
322, 3863339092, -6.334868431091309, 1.8024797439575195, 7.077818393707275, -0.2713409662246704, -0.80125492811203, -1.486612319946289, 0.599365234375, 0.1943359375, -0.70166015625
323, 3863355759, -6.328273296356201, 1.8071571588516235, 7.096357345581055, -0.3493444323539734, -0.8451935648918152, -1.44640052318573, 0.598388671875, 0.1943359375, -0.703125
324, 3863372426, -6.326408863067627, 1.775079607963562, 7.098021030426025, -0.2275816947221756, -0.870729386806488, -1.4137827157974243, 0.598876953125, 0.1943359375, -0.70263671875
325, 3863389093, -6.323367118835449, 1.7972854375839233, 7.1138787269592285, -0.2845698893070221, -0.8227695822715759, -1.4100943803787231, 0.598388671875, 0.19384765625, -0.70458984375
326, 3863405760, -6.327030658721924, 1.7971290349960327, 7.095905303955078, -0.2392738312482834, -0.7121099233627319, -1.4838076829910278, 0.597412109375, 0.19384765625, -0.705322265625
327, 3863422427, -6.317046642303467, 1.7847199440002441, 7.0676374435424805, -0.07268884032964706, -0.5959691405296326, -1.3199377059936523, 0.599365234375, 0.1943359375, -0.70458984375
328, 3863439094, -6.312191963195801, 1.8092352151870728, 7.090279579162598, -0.05889640748500824, -0.5566408634185791, -1.3746592998504639, 0.597900390625, 0.19287109375, -0.70361328125
329, 3863455761, -6.31928014755249, 1.7966071367263794, 7.088493347167969, -0.2418479025363922, -0.7846193909645081, -1.4439287185668945, 0.596923828125, 0.1953125, -0.70166015625
330, 3863472428, -6.337587356567383, 1.782239317893982, 7.090541839599609, -0.3205685019493103, -0.8364338278770447, -1.4075970649719238, 0.599365234375, 0.195556640625, -0.705810546875
331, 3863489095, -6.319447040557861, 1.7859272956848145, 7.087596893310547, -0.19278676807880402, -1.0105105638504028, -1.2643067836761475, 0.598876953125, 0.19384765625, -0.701171875
332, 3863505762, -6.329793930053711, 1.7946171760559082, 7.094505310058594, -0.2354191541671753, -1.0126110315322876, -1.2981284856796265, 0.597412109375, 0.1953125, -0.703125
333, 3863522429, -6.3304901123046875, 1.7887816429138184, 7.096491813659668, -0.2138020545244217, -1.0481998920440674, -1.2968350648880005, 0.596923828125, 0.19287109375, -0.70458984375
334, 3863539096, -6.31685209274292, 1.7867778539657593, 7.101349830627441, -0.21080532670021057, -1.0912418365478516, -1.2494513988494873, 0.599365234375, 0.1923828125, -0.703125
335, 3863555763, -6.322649955749512, 1.8008160591125488, 7.115004539489746, -0.2962876856327057, -0.9454159140586853, -1.3044803142547607, 0.597900390625, 0.1943359375, -0.70458984375
336, 3863572430, -6.314526557922363, 1.787535548210144, 7.1070876121521, -0.29023033380508423, -0.9455696940422058, -1.358151912689209, 0.59521484375, 0.1953125, -0.703125
337, 3863589097, -6.333538055419922, 1.779502511024475, 7.102958679199219, -0.29308614134788513, -0.9940032958984375, -1.353977084159851, 0.596923828125, 0.1943359375, -0.70166015625
338, 3863605764, -6.323476791381836, 1.7776590585708618, 7.083345890045166, -0.30678895115852356, -0.9631272554397583, -1.2845667600631714, 0.598876953125, 0.19482421875, -0.705078125
339, 3863622431, -6.325816631317139, 1.7908130884170532, 7.096206188201904, -0.3058924674987793, -1.069176435470581, -1.278637170791626, 0.595458984375, 0.19287109375, -0.7041015625
340, 3863639098, -6.332729816436768, 1.7817413806915283, 7.078526973724365, -0.22763286530971527, -1.1036767959594727, -1.2198048830032349, 0.598388671875, 0.19482421875, -0.7021484375
341, 3863655765, -6.318079948425293, 1.7803899049758911, 7.098475456237793, -0.14176630973815918, -1.1676318645477295, -1.2363251447677612, 0.597412109375, 0.19189453125, -0.703125
342, 3863672432, -6.333287239074707, 1.8045567274093628, 7.086681365966797, -0.2377755045890808, -1.22234046459198, -1.190375804901123, 0.596923828125, 0.1923828125, -0.70458984375
343, 3863689099, -6.327574253082275, 1.7802938222885132, 7.076007843017578, -0.2913316786289215, -1.2778946161270142, -1.1123085021972656, 0.597412109375, 0.19580078125, -0.704833984375
344, 3863705766, -6.310445308685303, 1.7886230945587158, 7.11325740814209, -0.2553458511829376, -1.3331667184829712, -1.1058411598205566, 0.597900390625, 0.19580078125, -0.706298828125
345, 3863722433, -6.307910442352295, 1.8088908195495605, 7.112079620361328, -0.13715600967407227, -1.0837757587432861, -1.236376404762268, 0.599365234375, 0.193359375, -0.7041015625
346, 3863739100, -6.315202236175537, 1.7971917390823364, 7.105878829956055, -0.16363954544067383, -1.1391762495040894, -1.2458786964416504, 0.595947265625, 0.193359375, -0.704833984375
347, 3863755767, -6.320015907287598, 1.8021433353424072, 7.083972454071045, -0.1871648132801056, -1.0493780374526978, -1.2031950950622559, 0.597412109375, 0.1943359375, -0.705810546875
348, 3863772434, -6.310196399688721, 1.7956873178482056, 7.1109232902526855, -0.12359409034252167, -0.9509995579719543, -1.2613998651504517, 0.5947265625, 0.19384765625, -0.70458984375
349, 3863789101, -6.310572147369385, 1.7939109802246094, 7.1053667068481445, -0.12602727115154266, -0.907035231590271, -1.3015477657318115, 0.597412109375, 0.1953125, -0.706298828125
350, 3863805768, -6.309792995452881, 1.7970924377441406, 7.103856563568115, -0.19067373871803284, -0.9582735300064087, -1.2215720415115356, 0.596435546875, 0.193359375, -0.705078125
351, 3863822435, -6.317480564117432, 1.7832428216934204, 7.116587162017822, -0.2158382087945938, -0.9923767447471619, -1.294542670249939, 0.598388671875, 0.19287109375, -0.706298828125
352, 3863839102, -6.319056510925293, 1.8063294887542725, 7.107266902923584, -0.2103443145751953, -0.9812609553337097, -1.3149304389953613, 0.596923828125, 0.19287109375, -0.706298828125
353, 3863855769, -6.304967403411865, 1.795933723449707, 7.119866847991943, -0.1816580891609192, -0.9591701030731201, -1.284079909324646, 0.596923828125, 0.196533203125, -0.70263671875
354, 3863872436, -6.315164566040039, 1.7858412265777588, 7.124719142913818, -0.10814961791038513, -0.8302612900733948, -1.2194846868515015, 0.595703125, 0.1953125, -0.705322265625
355, 3863889103, -6.303971290588379, 1.7998031377792358, 7.11047887802124, -0.053248804062604904, -0.5786164999008179, -1.23880934715271, 0.595947265625, 0.1943359375, -0.705322265625
356, 3863905770, -6.318361282348633, 1.8112339973449707, 7.091971397399902, -0.16572698950767517, -0.564631998538971, -1.3423105478286743, 0.598388671875, 0.1953125, -0.7021484375
357, 3863922437, -6.316250801086426, 1.7841553688049316, 7.098865985870361, -0.2510172426700592, -0.739861249923706, -1.4070976972579956, 0.597900390625, 0.193359375, -0.707275390625
358, 3863939104, -6.3190598487854, 1.791934847831726, 7.117084503173828, -0.2808816730976105, -0.8049558997154236, -1.3712270259857178, 0.595947265625, 0.19384765625, -0.703125
359, 3863955771, -6.314599990844727, 1.7878319025039673, 7.101073741912842, -0.15877310931682587, -0.8706139922142029, -1.3223323822021484, 0.596923828125, 0.193359375, -0.7041015625
360, 3863972438, -6.318171977996826, 1.7994431257247925, 7.092881202697754, -0.28117620944976807, -0.8487663865089417, -1.3793461322784424, 0.596435546875, 0.19091796875, -0.7041015625
361, 3863989105, -6.301766395568848, 1.785319447517395, 7.094245433807373, -0.20534981787204742, -0.8067872524261475, -1.2580446004867554, 0.5947265625, 0.19384765625, -0.704833984375
362, 3864005772, -6.310508728027344, 1.808843731880188, 7.10972785949707, -0.24933964014053345, -0.905268132686615, -1.2821077108383179, 0.595947265625, 0.19287109375, -0.70458984375
363, 3864022439, -6.313564777374268, 1.803848147392273, 7.08933162689209, -0.28861674666404724, -1.057356357574463, -1.2994860410690308, 0.598388671875, 0.19287109375, -0.7041015625
364, 3864039106, -6.307597637176514, 1.7945696115493774, 7.1259026527404785, -0.35684895515441895, -1.0702522993087769, -1.4017574787139893, 0.595703125, 0.19482421875, -0.705810546875
365, 3864055773, -6.327517032623291, 1.7807190418243408, 7.103482246398926, -0.29289400577545166, -1.009614109992981, -1.2594146728515625, 0.595947265625, 0.1943359375, -0.704833984375
366, 3864072440, -6.3167266845703125, 1.8006738424301147, 7.107176780700684, -0.209307000041008, -1.1464885473251343, -1.1722805500030518, 0.595947265625, 0.19384765625, -0.7041015625
367, 3864089107, -6.310475826263428, 1.785628318786621, 7.129064559936523, -0.10905887186527252, -1.0578557252883911, -1.1508041620254517, 0.59521484375, 0.19384765625, -0.705810546875
368, 3864105774, -6.314545631408691, 1.7964134216308594, 7.093477249145508, -0.146683931350708, -1.073351502418518, -1.2970528602600098, 0.596923828125, 0.193359375, -0.706298828125
369, 3864122441, -6.316320896148682, 1.8156901597976685, 7.07078742980957, -0.1985880583524704, -0.9615903496742249, -1.292775273323059, 0.596435546875, 0.1943359375, -0.706298828125
370, 3864139108, -6.2941718101501465, 1.8232417106628418, 7.102270126342773, -0.1456594318151474, -0.9470680356025696, -1.2241973876953125, 0.597412109375, 0.19482421875, -0.704833984375
371, 3864155775, -6.308199405670166, 1.7959438562393188, 7.103155136108398, -0.16897977888584137, -0.8749041557312012, -1.3432323932647705, 0.595703125, 0.19580078125, -0.70361328125
372, 3864172442, -6.308340072631836, 1.8060797452926636, 7.1111741065979, -0.11142803728580475, -0.9254893660545349, -1.2383354902267456, 0.5966796875, 0.19482421875, -0.706298828125
373, 3864189109, -6.296907901763916, 1.7833948135375977, 7.117093086242676, -0.051379069685935974, -0.7831979393959045, -1.211583137512207, 0.597412109375, 0.1943359375, -0.705810546875
374, 3864205776, -6.307478904724121, 1.8017780780792236, 7.095376491546631, -0.1297539472579956, -0.7550880312919617, -1.1970608234405518, 0.596435546875, 0.193359375, -0.706787109375
375, 3864222443, -6.305581569671631, 1.8100377321243286, 7.1224141120910645, -0.09397299587726593, -0.8186331391334534, -1.2043859958648682, 0.597900390625, 0.19189453125, -0.706298828125
376, 3864239110, -6.303054332733154, 1.8116602897644043, 7.126114368438721, -0.14588995277881622, -0.889657199382782, -1.2791240215301514, 0.598388671875, 0.1943359375, -0.705078125
377, 3864255777, -6.306151866912842, 1.8022693395614624, 7.112614154815674, -0.2378779649734497, -0.8788614273071289, -1.272221326828003, 0.596435546875, 0.19189453125, -0.705322265625
378, 3864272444, -6.309368133544922, 1.788935899734497, 7.0804033279418945, -0.3167778551578522, -0.8969694972038269, -1.3653745651245117, 0.596923828125, 0.19189453125, -0.705810546875
379, 3864289111, -6.299542427062988, 1.8094756603240967, 7.120904445648193, -0.21795131266117096, -0.8950743675231934, -1.4382940530776978, 0.596923828125, 0.1943359375, -0.70458984375
380, 3864305778, -6.301116943359375, 1.7962814569473267, 7.120420932769775, -0.25311753153800964, -0.8548495173454285, -1.4301620721817017, 0.59521484375, 0.19287109375, -0.706787109375
381, 3864322445, -6.310456275939941, 1.788985252380371, 7.113121509552002, -0.1702476143836975, -0.7710446715354919, -1.470578670501709, 0.5947265625, 0.1953125, -0.706298828125
382, 3864339112, -6.316931247711182, 1.7980499267578125, 7.124664306640625, -0.1629864126443863, -0.5853142142295837, -1.3324496746063232, 0.596435546875, 0.193359375, -0.703125
383, 3864355779, -6.314279556274414, 1.8080596923828125, 7.122949123382568, -0.24038797616958618, -0.5323600172996521, -1.2948756217956543, 0.595947265625, 0.19384765625, -0.7041015625
384, 3864372446, -6.31500768661499, 1.7955106496810913, 7.109831809997559, -0.20903803408145905, -0.6917862296104431, -1.441367506980896, 0.595703125, 0.19384765625, -0.705810546875
385, 3864389113, -6.304384231567383, 1.8155732154846191, 7.100854873657227, -0.30780062079429626, -0.8826135993003845, -1.3491106033325195, 0.598388671875, 0.196044921875, -0.70458984375
386, 3864405780, -6.308235168457031, 1.7594239711761475, 7.1068902015686035, -0.34632211923599243, -0.8913475871086121, -1.2713247537612915, 0.596923828125, 0.196044921875, -0.70458984375
387, 3864422447, -6.3024115562438965, 1.793572187423706, 7.128434181213379, -0.3226943910121918, -1.087412714958191, -1.3190410137176514, 0.598388671875, 0.193359375, -0.7041015625
388, 3864439114, -6.303375244140625, 1.7627668380737305, 7.123283386230469, -0.30676329135894775, -1.0012900829315186, -1.166901707649231, 0.596923828125, 0.19384765625, -0.70458984375
389, 3864455781, -6.299607753753662, 1.7644166946411133, 7.118969917297363, -0.09020792692899704, -0.8476523756980896, -1.0312697887420654, 0.59521484375, 0.1943359375, -0.70361328125
390, 3864472448, -6.314691543579102, 1.7558985948562622, 7.072587490081787, 0.15123657882213593, -0.9107363820075989, -0.6788005232810974, 0.598876953125, 0.1943359375, -0.706787109375
391, 3864489115, -6.323132038116455, 1.828307867050171, 7.101802825927734, 0.22028841078281403, -0.925604522228241, -0.7016214728355408, 0.597900390625, 0.19189453125, -0.707275390625
392, 3864505782, -6.300442218780518, 1.8136032819747925, 7.108919620513916, 0.01636011339724064, -1.148127555847168, -0.7952999472618103, 0.59521484375, 0.193359375, -0.705322265625
393, 3864522449, -6.295546531677246, 1.818705439567566, 7.10955810546875, -0.06550448387861252, -1.4762135744094849, -0.8731369972229004, 0.597412109375, 0.19189453125, -0.708251953125
394, 3864539116, -6.295614719390869, 1.8126368522644043, 7.103464603424072, -0.06462084501981735, -1.302982211112976, -0.8830233812332153, 0.595947265625, 0.193359375, -0.705322265625
395, 3864555783, -6.2923688888549805, 1.7892041206359863, 7.116158962249756, -0.04443803057074547, -1.2727335691452026, -0.9436870217323303, 0.597412109375, 0.19287109375, -0.706298828125
396, 3864572450, -6.278472900390625, 1.8114039897918701, 7.116299152374268, -0.13418492674827576, -1.327160358428955, -0.9666360020637512, 0.597900390625, 0.1923828125, -0.70361328125
397, 3864589117, -6.302796840667725, 1.7985631227493286, 7.110871315002441, -0.034551531076431274, -1.2816851139068604, -0.8992875814437866, 0.596923828125, 0.19482421875, -0.706298828125
398, 3864605784, -6.310286521911621, 1.8011661767959595, 7.089009761810303, 0.014515997841954231, -1.5390543937683105, -0.7724663019180298, 0.59423828125, 0.1923828125, -0.705322265625
399, 3864622451, -6.2965545654296875, 1.8140071630477905, 7.110942363739014, 0.01936960592865944, -1.6159309148788452, -0.8003968596458435, 0.597412109375, 0.19189453125, -0.705322265625
400, 3864639118, -6.272331714630127, 1.8364665508270264, 7.139880180358887, -0.03425697982311249, -1.7037310600280762, -0.839699387550354, 0.59521484375, 0.19140625, -0.707275390625
401, 3864655785, -6.287180423736572, 1.8534834384918213, 7.145901679992676, -0.2514526844024658, -1.6825109720230103, -1.0871182680130005, 0.595947265625, 0.1923828125, -0.705810546875
402, 3864672452, -6.27708101272583, 1.8383492231369019, 7.152666091918945, -0.5934590101242065, -1.7598869800567627, -1.4454271793365479, 0.59423828125, 0.19287109375, -0.705322265625
403, 3864689119, -6.272091865539551, 1.8039189577102661, 7.140243053436279, -0.5592405200004578, -1.6235121488571167, -1.6146373748779297, 0.59423828125, 0.19287109375, -0.706787109375
404, 3864705786, -6.287869453430176, 1.8005965948104858, 7.125859260559082, -0.5871327519416809, -1.4209413528442383, -1.660125494003296, 0.59375, 0.191650390625, -0.706298828125
405, 3864722453, -6.2799272537231445, 1.7806974649429321, 7.125849723815918, -0.48556551337242126, -1.1851507425308228, -1.611691951751709, 0.596435546875, 0.1923828125, -0.708251953125
406, 3864739120, -6.277502059936523, 1.8213335275650024, 7.134990692138672, -0.4298322796821594, -0.7711855173110962, -1.6854180097579956, 0.59521484375, 0.19287109375, -0.709716796875
407, 3864755787, -6.285132884979248, 1.8147053718566895, 7.145585060119629, -0.3315948247909546, -0.3994428515434265, -1.7215064764022827, 0.5947265625, 0.19140625, -0.707275390625
408, 3864772454, -6.289356231689453, 1.8070186376571655, 7.111147403717041, -0.4159245491027832, 0.08647486567497253, -1.8925988674163818, 0.59521484375, 0.19287109375, -0.708251953125
409, 3864789121, -6.287910461425781, 1.803274393081665, 7.142971038818359, -0.6252956390380859, 0.46071484684944153, -1.939995527267456, 0.5947265625, 0.19140625, -0.708251953125
410, 3864805788, -6.301999568939209, 1.804277777671814, 7.127324104309082, -0.5689477324485779, 0.5961548089981079, -2.1288764476776123, 0.5966796875, 0.1943359375, -0.708740234375
411, 3864822455, -6.2976603507995605, 1.761967658996582, 7.105527877807617, -0.5522097945213318, 0.5541372299194336, -2.1005489826202393, 0.596435546875, 0.19287109375, -0.709228515625
412, 3864839122, -6.3092265129089355, 1.7930775880813599, 7.110377788543701, -0.47905993461608887, 0.2623060643672943, -1.8813295364379883, 0.598388671875, 0.19384765625, -0.708740234375
413, 3864855789, -6.300207614898682, 1.7982943058013916, 7.100339412689209, -0.35072752833366394, 0.0822615921497345, -1.7138482332229614, 0.59326171875, 0.1953125, -0.705810546875
414, 3864872456, -6.312860488891602, 1.7701581716537476, 7.118454456329346, -0.37613528966903687, -0.30409958958625793, -1.6704859733581543, 0.596923828125, 0.193359375, -0.705810546875
415, 3864889123, -6.31170654296875, 1.7790855169296265, 7.118319034576416, -0.4031054377555847, -0.6685426831245422, -1.4399844408035278, 0.595703125, 0.19287109375, -0.706787109375
416, 3864905790, -6.291678428649902, 1.787835955619812, 7.118922233581543, -0.37376612424850464, -0.8969694972038269, -1.3771052360534668, 0.59619140625, 0.19580078125, -0.706787109375
417, 3864922457, -6.28497838973999, 1.800740361213684, 7.102369785308838, -0.38716158270835876, -1.0114712715148926, -1.3248041868209839, 0.596435546875, 0.19189453125, -0.705810546875
418, 3864939124, -6.302389621734619, 1.781036376953125, 7.104532241821289, -0.48118576407432556, -1.3744029998779297, -1.267188310623169, 0.596923828125, 0.1943359375, -0.707275390625
419, 3864955791, -6.288462162017822, 1.8152124881744385, 7.101691722869873, -0.7450222373008728, -1.948934555053711, -1.2986536026000977, 0.59375, 0.193359375, -0.706298828125
420, 3864972458, -6.301878452301025, 1.7714890241622925, 7.111325740814209, -0.8497524857521057, -2.349977970123291, -1.4653793573379517, 0.59521484375, 0.19384765625, -0.707275390625
421, 3864989125, -6.311939239501953, 1.6906790733337402, 7.117453575134277, -0.6612558960914612, -2.5541369915008545, -1.0941873788833618, 0.596923828125, 0.19189453125, -0.708251953125
422, 3865005792, -6.300714492797852, 1.6888127326965332, 7.135799884796143, 0.22893273830413818, -2.2080581188201904, 0.14394979178905487, 0.59423828125, 0.19482421875, -0.706787109375
423, 3865022459, -6.26216459274292, 1.7986314296722412, 7.125685214996338, 0.9582800269126892, -1.8772186040878296, 0.8880500197410583, 0.595703125, 0.193359375, -0.706298828125
424, 3865039126, -6.253267288208008, 1.8447668552398682, 7.120285987854004, 0.9551550149917603, -1.5806490182876587, 0.7313256859779358, 0.597412109375, 0.1923828125, -0.710693359375
425, 3865055793, -6.275439739227295, 1.9188404083251953, 7.122702598571777, 0.35374340415000916, -1.4924392700195312, 0.05175686627626419, 0.59423828125, 0.19189453125, -0.706298828125
426, 3865072460, -6.286778450012207, 1.8161333799362183, 7.1468305587768555, -0.26302963495254517, -1.9590258598327637, -0.7533335089683533, 0.596435546875, 0.19287109375, -0.707763671875
427, 3865089127, -6.283952713012695, 1.7782186269760132, 7.130645751953125, -0.1720661073923111, -2.0197789669036865, -0.7470455765724182, 0.595703125, 0.191162109375, -0.709716796875
428, 3865105794, -6.2789788246154785, 1.7852340936660767, 7.1387457847595215, -0.10286060720682144, -1.5315370559692383, -0.7550624012947083, 0.5947265625, 0.190673828125, -0.709228515625
429, 3865122461, -6.2573018074035645, 1.790178656578064, 7.184150218963623, 0.35385861992836, -0.7705196142196655, -0.6172532439231873, 0.595458984375, 0.190673828125, -0.708251953125
430, 3865139128, -6.238827705383301, 1.8737908601760864, 7.166191577911377, 0.9950342178344727, 0.8063197135925293, -0.6500247120857239, 0.594482421875, 0.190185546875, -0.707763671875
431, 3865155795, -6.218931198120117, 1.8632007837295532, 7.161348819732666, 2.1953866481781006, 3.9355521202087402, -0.988061249256134, 0.594482421875, 0.189697265625, -0.705810546875
432, 3865172462, -6.1723246574401855, 1.7833621501922607, 7.220596790313721, 4.602443695068359, 9.950634002685547, -1.4292787313461304, 0.596435546875, 0.190185546875, -0.70458984375
433, 3865189129, -6.177081108093262, 1.4091100692749023, 7.387277126312256, 9.182377815246582, 18.38080596923828, 0.020855171605944633, 0.597412109375, 0.188720703125, -0.7041015625
434, 3865205796, -6.229529857635498, 0.295852392911911, 7.723388195037842, 13.895231246948242, 30.493608474731445, 4.849725723266602, 0.603271484375, 0.185302734375, -0.69580078125
435, 3865222463, -6.428621768951416, 0.3707631230354309, 8.324908256530762, 20.649433135986328, 47.41127395629883, 14.889525413513184, 0.609619140625, 0.1796875, -0.68505859375
436, 3865239130, -5.268774509429932, 0.6069766283035278, 10.873241424560547, 9.502900123596191, 63.888614654541016, 45.90236282348633, 0.617431640625, 0.169677734375, -0.669677734375
437, 3865255797, 4.410531997680664, -8.200087547302246, 20.53560447692871, -150.31590270996094, 116.5239028930664, 64.4480972290039, 0.62548828125, 0.167724609375, -0.6474609375
438, 3865272464, -1.7780206203460693, -21.588796615600586, 30.658782958984375, -161.2998046875, 90.96137237548828, 39.94456481933594, 0.642333984375, 0.175048828125, -0.62353515625
439, 3865289131, -1.8512134552001953, -23.83062171936035, 35.586265563964844, -47.29290771484375, -69.40914154052734, -23.749311447143555, 0.6396484375, 0.18017578125, -0.6328125
440, 3865305798, -1.205315351486206, -20.757129669189453, 33.39860153198242, 48.679908752441406, -195.4824676513672, -95.97540283203125, 0.62255859375, 0.191162109375, -0.670654296875
441, 3865322465, -4.836909770965576, -14.688098907470703, 29.653411865234375, 33.24849319458008, -262.0409851074219, -158.09115600585938, 0.588623046875, 0.214111328125, -0.73193359375
442, 3865339132, -8.972259521484375, -12.461614608764648, 25.713003158569336, 5.409285068511963, -288.05804443359375, -177.20407104492188, 0.548095703125, 0.244384765625, -0.79541015625
443, 3865355799, -11.896162033081055, -9.326545715332031, 22.572711944580078, -15.726922035217285, -283.2594909667969, -179.26568603515625, 0.501220703125, 0.2783203125, -0.8583984375
444, 3865372466, -13.993890762329102, -6.887646198272705, 20.25863265991211, -48.26424789428711, -265.8963623046875, -194.6486358642578, 0.449951171875, 0.321533203125, -0.915771484375
445, 3865389133, -15.107087135314941, -4.313546657562256, 19.435501098632812, -60.14634704589844, -248.40005493164062, -212.81895446777344, 0.393798828125, 0.36474609375, -0.96240234375
446, 3865405800, -15.61048698425293, -0.4737214148044586, 18.474443435668945, -59.280372619628906, -242.52081298828125, -216.07212829589844, 0.334228515625, 0.41259765625, -1.004638671875
447, 3865422467, -14.584083557128906, 4.543900489807129, 15.502079010009766, -70.22046661376953, -244.67991638183594, -209.677001953125, 0.26513671875, 0.457763671875, -1.0380859375
448, 3865439134, -13.914384841918945, 6.461395740509033, 13.224026679992676, -71.23601531982422, -231.6947784423828, -185.54908752441406, 0.194091796875, 0.498291015625, -1.0634765625
449, 3865455801, -15.68973159790039, 10.202645301818848, 11.07896900177002, -58.497318267822266, -221.91012573242188, -139.94818115234375, 0.1259765625, 0.529052734375, -1.085205078125
450, 3865472468, -18.393136978149414, 15.839715003967285, 6.166810512542725, -77.69105529785156, -215.7584991455078, -102.77989959716797, 0.05908203125, 0.55615234375, -1.09814453125
451, 3865489135, -25.169626235961914, 20.2054500579834, -3.471541404724121, -129.58424377441406, -197.32339477539062, -83.49896240234375, -0.00390625, 0.588623046875, -1.099853515625
452, 3865505802, -32.71585464477539, 14.4850492477417, -15.630334854125977, -97.16104888916016, -173.51235961914062, -91.94129943847656, -0.05859375, 0.622314453125, -1.094970703125
453, 3865522469, -29.564720153808594, 12.789222717285156, -27.38430404663086, 79.99772644042969, -133.59352111816406, -95.45784759521484, -0.109375, 0.618408203125, -1.1025390625
454, 3865539136, -24.807552337646484, 15.696611404418945, -31.931198120117188, 185.94337463378906, -24.487531661987305, -77.75039672851562, -0.136474609375, 0.5771484375, -1.124267578125
455, 3865555803, -25.06556510925293, 14.770042419433594, -27.37232208251953, 161.96376037597656, 76.71701049804688, -16.13161849975586, -0.126220703125, 0.529541015625, -1.138671875
456, 3865572470, -24.41368865966797, 16.637676239013672, -21.782011032104492, 55.881893157958984, 140.65127563476562, 29.320653915405273, -0.09033203125, 0.50439453125, -1.146484375
457, 3865589137, -23.0997314453125, 14.266380310058594, -15.517034530639648, -39.73830032348633, 203.2066650390625, 67.82208251953125, -0.0341796875, 0.511474609375, -1.1328125
458, 3865605804, -22.901878356933594, 12.532304763793945, -7.447407245635986, -38.1496696472168, 258.2001037597656, 133.0869598388672, 0.039306640625, 0.515380859375, -1.115966796875
459, 3865622471, -22.712844848632812, 11.765356063842773, 1.1554152965545654, -29.420333862304688, 294.5505065917969, 189.46998596191406, 0.1298828125, 0.509033203125, -1.088134765625
460, 3865639138, -22.554351806640625, 9.342363357543945, 8.351344108581543, -35.78350067138672, 308.4476318359375, 217.56222534179688, 0.222900390625, 0.493408203125, -1.047607421875
461, 3865655805, -22.416635513305664, 6.605179309844971, 14.220722198486328, -32.35617446899414, 300.2143249511719, 224.64208984375, 0.31298828125, 0.470703125, -0.99755859375
462, 3865672472, -21.04218101501465, 2.9528777599334717, 17.545368194580078, -10.027811050415039, 280.37066650390625, 226.79319763183594, 0.387451171875, 0.4375, -0.9462890625
463, 3865689139, -16.91779327392578, -1.4070770740509033, 20.1630916595459, 32.93146896362305, 269.48980712890625, 207.02105712890625, 0.455810546875, 0.396484375, -0.894775390625
464, 3865705806, -9.538385391235352, -3.718662738800049, 25.001609802246094, 88.51232147216797, 274.3077087402344, 190.89700317382812, 0.51318359375, 0.34521484375, -0.83740234375
465, 3865722473, -5.171725749969482, -3.07794189453125, 30.68048667907715, 95.59617614746094, 255.17359924316406, 185.19383239746094, 0.555419921875, 0.29052734375, -0.779296875
466, 3865739140, -2.2104549407958984, -5.750205993652344, 34.15433120727539, 77.38324737548828, 204.5591278076172, 194.73236083984375, 0.589111328125, 0.240234375, -0.732177734375
467, 3865755807, -1.3132233619689941, -8.38093376159668, 33.59033203125, 59.52774429321289, 135.8075714111328, 204.9536590576172, 0.606689453125, 0.18896484375, -0.69287109375
468, 3865772474, -2.374154806137085, -12.392413139343262, 29.56454849243164, 47.03617477416992, 58.66370391845703, 186.25247192382812, 0.614501953125, 0.140380859375, -0.676513671875
469, 3865789141, -2.4722113609313965, -16.923294067382812, 22.914186477661133, 69.32990264892578, 5.564732551574707, 128.64024353027344, 0.61572265625, 0.103515625, -0.670166015625
470, 3865805808, -3.6751022338867188, -17.443452835083008, 17.645931243896484, 109.3847427368164, -8.691357612609863, 40.27949142456055, 0.61083984375, 0.080322265625, -0.6669921875
471, 3865822475, -5.822029113769531, -14.23471450805664, 13.605576515197754, 123.63833618164062, -2.398401975631714, -41.52435302734375, 0.613037109375, 0.0712890625, -0.666259765625
472, 3865839142, -6.216912269592285, -10.346988677978516, 9.302933692932129, 89.2144546508789, 29.017335891723633, -102.40495300292969, 0.618408203125, 0.08251953125, -0.65673828125
473, 3865855809, -11.72707748413086, 3.403172731399536, 17.738441467285156, -101.26683044433594, 31.137121200561523, -181.2178497314453, 0.63037109375, 0.126708984375, -0.650390625
474, 3865872476, -6.9403767585754395, -8.586983680725098, 17.977632522583008, -198.5496063232422, -13.723291397094727, -121.78011322021484, 0.631591796875, 0.188232421875, -0.65576171875
475, 3865889143, -2.5403847694396973, -4.870204448699951, 15.436410903930664, -22.758289337158203, -74.55272674560547, -30.216279983520508, 0.62548828125, 0.2060546875, -0.67138671875
476, 3865905810, -6.629016876220703, 3.698119640350342, 7.052948951721191, -21.766441345214844, -20.3258113861084, -21.93703842163086, 0.61962890625, 0.214111328125, -0.67822265625
477, 3865922477, -8.130900382995605, -2.9036431312561035, 6.090989589691162, -10.954361915588379, -14.828657150268555, -2.9044840335845947, 0.618896484375, 0.21826171875, -0.681884765625
478, 3865939144, -6.459521293640137, 1.216008186340332, 7.507085800170898, 3.0671465396881104, -19.671480178833008, 15.129883766174316, 0.616455078125, 0.214599609375, -0.685791015625
479, 3865955811, -6.425925254821777, 2.3559913635253906, 7.089420795440674, 5.178335189819336, -8.585806846618652, 13.270431518554688, 0.614013671875, 0.211669921875, -0.686767578125
480, 3865972478, -6.553491115570068, 2.422048807144165, 6.989299774169922, 4.495075225830078, -2.677309036254883, 7.667888164520264, 0.613525390625, 0.20703125, -0.68994140625
481, 3865989145, -6.588229179382324, 2.3967878818511963, 6.873459815979004, 1.720654845237732, -0.9482590556144714, 2.171412706375122, 0.612548828125, 0.20751953125, -0.68994140625
482, 3866005812, -6.516080856323242, 1.9865633249282837, 6.951373100280762, -0.32583194971084595, -1.5867836475372314, -0.5715218186378479, 0.61083984375, 0.205810546875, -0.69091796875
483, 3866022479, -6.480447769165039, 1.7576429843902588, 7.001336574554443, -1.1424031257629395, -1.8930602073669434, -1.5346745252609253, 0.614501953125, 0.20654296875, -0.69091796875
484, 3866039146, -6.537785053253174, 1.529846429824829, 6.941191673278809, -0.9024378061294556, -3.2115635871887207, -0.7833003401756287, 0.615966796875, 0.204833984375, -0.688720703125
485, 3866055813, -6.462996959686279, 1.563044548034668, 6.984103679656982, -0.002458818955346942, -3.570307731628418, 0.17750239372253418, 0.612060546875, 0.206787109375, -0.69140625
486, 3866072480, -6.446068286895752, 1.645486831665039, 6.958022594451904, 0.4932813346385956, -3.3165371417999268, 0.4333220422267914, 0.611572265625, 0.204833984375, -0.68994140625
487, 3866089147, -6.424074172973633, 1.8580986261367798, 6.950407028198242, 0.7436839938163757, -2.365358591079712, 0.0831836462020874, 0.61083984375, 0.204345703125, -0.693359375
488, 3866105814, -6.466085433959961, 1.7578325271606445, 6.9506144523620605, 0.41643041372299194, -1.814787745475769, -0.4962075352668762, 0.6103515625, 0.203857421875, -0.69189453125
489, 3866122481, -6.4726176261901855, 1.8462235927581787, 6.979721546173096, 0.21549884974956512, -1.9647116661071777, -0.6270756721496582, 0.611083984375, 0.203369140625, -0.69384765625
490, 3866139148, -6.468750476837158, 1.8986672163009644, 6.987639427185059, -0.39764997363090515, -1.773128628730774, -1.4144870042800903, 0.614013671875, 0.20654296875, -0.69384765625
491, 3866155815, -6.483712673187256, 1.82498300075531, 6.95466947555542, -1.0194110870361328, -2.2361297607421875, -1.924423098564148, 0.610595703125, 0.204345703125, -0.6904296875
492, 3866172482, -6.490913391113281, 1.758866548538208, 6.949149131774902, -1.2270275354385376, -3.489384412765503, -1.7384363412857056, 0.612060546875, 0.204345703125, -0.69384765625
493, 3866189149, -6.447492599487305, 1.7508841753005981, 6.9726104736328125, -1.3514798879623413, -4.400403022766113, -1.4178681373596191, 0.611572265625, 0.205322265625, -0.69287109375
494, 3866205816, -6.416206359863281, 1.763426423072815, 7.004883766174316, -1.1011155843734741, -4.010141849517822, -1.1809502840042114, 0.6103515625, 0.204345703125, -0.694580078125
495, 3866222483, -6.4355082511901855, 1.7374006509780884, 6.99802827835083, -1.0733771324157715, -3.6511032581329346, -1.093867301940918, 0.60888671875, 0.206298828125, -0.696533203125
496, 3866239150, -6.388805389404297, 1.7495108842849731, 7.010254383087158, -1.039132833480835, -4.0378289222717285, -0.9726806282997131, 0.6064453125, 0.205322265625, -0.696533203125
497, 3866255817, -6.395377159118652, 1.825100302696228, 6.992827415466309, -1.5875394344329834, -4.040250301361084, -1.511853814125061, 0.61083984375, 0.205810546875, -0.696044921875
498, 3866272484, -6.462108135223389, 1.673065185546875, 6.980884552001953, -1.728165864944458, -4.06705379486084, -1.5338807106018066, 0.607666015625, 0.206298828125, -0.69970703125
499, 3866289151, -6.452542781829834, 1.7451027631759644, 6.982556343078613, -1.676837682723999, -4.43376350402832, -1.4389344453811646, 0.607421875, 0.205810546875, -0.69921875
500, 3866305818, -6.433130264282227, 1.7482349872589111, 6.977012634277344, -1.7078934907913208, -4.497180938720703, -1.754098892211914, 0.6083984375, 0.206298828125, -0.69921875
501, 3866322485, -6.418634414672852, 1.7201672792434692, 7.024219036102295, -1.7334933280944824, -4.100491523742676, -1.8408619165420532, 0.607177734375, 0.206298828125, -0.70068359375
502, 3866339152, -6.397693634033203, 1.6852664947509766, 7.080022811889648, -1.4754962921142578, -3.6377975940704346, -1.8098576068878174, 0.607177734375, 0.207763671875, -0.70166015625
503, 3866355819, -6.387578964233398, 1.6586852073669434, 7.098859786987305, -1.2168978452682495, -2.777531147003174, -1.7541499137878418, 0.604736328125, 0.206787109375, -0.70361328125
504, 3866372486, -6.397028923034668, 1.617344856262207, 7.085813999176025, -0.5890153050422668, -2.450700044631958, -1.3270963430404663, 0.604248046875, 0.206787109375, -0.701171875
505, 3866389153, -6.372452259063721, 1.6951360702514648, 7.077541828155518, -0.03587058186531067, -2.4495344161987305, -0.6999182105064392, 0.604736328125, 0.206787109375, -0.703125
506, 3866405820, -6.35302734375, 1.7784812450408936, 7.06915807723999, -0.28281542658805847, -2.468424081802368, -1.0381724834442139, 0.605224609375, 0.208740234375, -0.703857421875
507, 3866422487, -6.391444206237793, 1.6933008432388306, 7.063047885894775, -0.2926507294178009, -2.5517163276672363, -1.1978291273117065, 0.604736328125, 0.206298828125, -0.7041015625
508, 3866439154, -6.369160175323486, 1.6552127599716187, 7.078117370605469, 0.09493988752365112, -2.6905500888824463, -0.6928876042366028, 0.604736328125, 0.209228515625, -0.705810546875
509, 3866455821, -6.3845367431640625, 1.681810975074768, 7.048449993133545, 0.5647792220115662, -2.518265962600708, -0.09529203921556473, 0.60205078125, 0.207275390625, -0.70263671875
510, 3866472488, -6.392759799957275, 1.6107065677642822, 7.084681510925293, 1.2554512023925781, -2.424574851989746, 0.664732813835144, 0.604736328125, 0.205322265625, -0.7041015625
511, 3866489155, -6.370697975158691, 1.7286639213562012, 7.081634044647217, 1.6645885705947876, -2.627363681793213, 1.2556178569793701, 0.602783203125, 0.2041015625, -0.7041015625
512, 3866505822, -6.366791725158691, 1.7391024827957153, 7.0984601974487305, 1.8192638158798218, -2.6048755645751953, 1.5202226638793945, 0.603271484375, 0.206298828125, -0.703857421875
513, 3866522489, -6.364815711975098, 1.7949261665344238, 7.0772175788879395, 1.5446312427520752, -2.8736934661865234, 1.2202080488204956, 0.602294921875, 0.203125, -0.706298828125
514, 3866539156, -6.376537799835205, 1.772545576095581, 7.062844753265381, 1.040484070777893, -3.633699417114258, 0.8710815906524658, 0.601318359375, 0.2021484375, -0.706787109375
515, 3866555823, -6.3449625968933105, 1.7401947975158691, 7.09149694442749, 1.104349136352539, -4.1618332862854, 1.0473865270614624, 0.603759765625, 0.20263671875, -0.705810546875
516, 3866572490, -6.335225582122803, 1.7698726654052734, 7.101740837097168, 1.6015299558639526, -3.6082911491394043, 1.318945050239563, 0.599609375, 0.20166015625, -0.706787109375
517, 3866589157, -6.312117099761963, 1.7502481937408447, 7.123666286468506, 2.5179271697998047, -2.471702814102173, 1.561830759048462, 0.600341796875, 0.199951171875, -0.709228515625
518, 3866605824, -6.292840480804443, 1.7046808004379272, 7.138543128967285, 4.6667680740356445, 0.2778145670890808, 2.873469591140747, 0.600830078125, 0.198486328125, -0.708740234375
519, 3866622491, -6.314945697784424, 1.7889342308044434, 7.134139060974121, 5.9837751388549805, 2.5245485305786133, 3.6987247467041016, 0.601806640625, 0.196533203125, -0.708251953125
520, 3866639158, -6.34257173538208, 1.8275985717773438, 7.0860748291015625, 5.995760917663574, 2.6782243251800537, 3.8311030864715576, 0.60302734375, 0.194580078125, -0.70458984375
521, 3866655825, -6.353890895843506, 1.8492164611816406, 7.082815170288086, 5.85276460647583, 2.1762406826019287, 3.8706107139587402, 0.603515625, 0.194580078125, -0.70458984375
522, 3866672492, -6.34041690826416, 1.969343662261963, 7.065242290496826, 5.339409351348877, 1.5270997285842896, 3.636420965194702, 0.60302734375, 0.18896484375, -0.7060546875
523, 3866689159, -6.347556114196777, 1.9749643802642822, 7.045101165771484, 4.423409938812256, 0.7373833060264587, 2.9447882175445557, 0.60302734375, 0.188720703125, -0.70654296875
524, 3866705826, -6.338179111480713, 1.9651811122894287, 7.061519622802734, 3.6681928634643555, 0.4097967743873596, 2.407254219055176, 0.6015625, 0.187255859375, -0.70556640625
525, 3866722493, -6.3336358070373535, 2.0347397327423096, 7.057716369628906, 2.8209187984466553, 0.10437175631523132, 1.5383883714675903, 0.605712890625, 0.185791015625, -0.703125
526, 3866739160, -6.330196857452393, 2.009753704071045, 7.046051025390625, 1.686513066291809, -0.13633640110492706, 0.3587122857570648, 0.603515625, 0.186279296875, -0.70361328125
527, 3866755827, -6.323901176452637, 2.0200681686401367, 7.031737327575684, 0.5142582058906555, -0.7546654939651489, -0.5104867219924927, 0.6015625, 0.185791015625, -0.7041015625
528, 3866772494, -6.337728977203369, 1.9516363143920898, 7.048947334289551, -0.0961884930729866, -1.1022299528121948, -1.1602809429168701, 0.604248046875, 0.184326171875, -0.70361328125
529, 3866789161, -6.349094390869141, 1.9532983303070068, 7.047047138214111, -0.5074899792671204, -1.3887461423873901, -1.4293551445007324, 0.60498046875, 0.186279296875, -0.705078125
530, 3866805828, -6.332268714904785, 1.9306572675704956, 7.054568290710449, -0.281598836183548, -1.2043474912643433, -1.2754226922988892, 0.603515625, 0.183837890625, -0.70361328125
531, 3866822495, -6.331775188446045, 1.9436476230621338, 7.052987575531006, 0.16811537742614746, -0.598133385181427, -0.8262913823127747, 0.603515625, 0.184326171875, -0.703125
532, 3866839162, -6.339613437652588, 1.9569350481033325, 7.055640697479248, 0.21305285394191742, -0.6165233254432678, -0.8293648958206177, 0.603759765625, 0.183837890625, -0.702392578125
533, 3866855829, -6.3335442543029785, 1.9737298488616943, 7.028698444366455, 0.1435655951499939, -0.8303765058517456, -0.9645999670028687, 0.60302734375, 0.18310546875, -0.7041015625
534, 3866872496, -6.322539329528809, 1.9640485048294067, 7.048452377319336, -0.058217670768499374, -1.0634905099868774, -1.0456639528274536, 0.60302734375, 0.183837890625, -0.705078125
535, 3866889163, -6.323479175567627, 1.9742146730422974, 7.02508020401001, -0.1768556833267212, -1.0508121252059937, -1.1802587509155273, 0.603515625, 0.183837890625, -0.705078125
536, 3866905830, -6.34060001373291, 1.9442648887634277, 7.039333820343018, -0.1871776133775711, -1.2733865976333618, -1.274756908416748, 0.605712890625, 0.185791015625, -0.7060546875
537, 3866922497, -6.330111503601074, 1.9327951669692993, 7.033195495605469, -0.06249498948454857, -1.4699128866195679, -1.0662952661514282, 0.603515625, 0.185791015625, -0.705078125
538, 3866939164, -6.32611608505249, 1.9377171993255615, 7.057237148284912, 0.4517247676849365, -1.2270019054412842, -0.7524755001068115, 0.603515625, 0.18212890625, -0.7060546875
539, 3866955831, -6.350388050079346, 1.9652537107467651, 7.044649600982666, 0.7390992641448975, -1.111335039138794, -0.5627622604370117, 0.6025390625, 0.185302734375, -0.703125
540, 3866972498, -6.346502780914307, 1.9705606698989868, 7.029177665710449, 0.8543563485145569, -1.1950243711471558, -0.41506657004356384, 0.6025390625, 0.1826171875, -0.70361328125
541, 3866989165, -6.337530136108398, 1.9571107625961304, 7.053264141082764, 1.1094205379486084, -1.260862112045288, -0.23701997101306915, 0.6015625, 0.18310546875, -0.70458984375
542, 3867005832, -6.329527378082275, 1.972967505455017, 7.059739589691162, 1.7953028678894043, -1.0619664192199707, -0.05821766331791878, 0.6005859375, 0.18212890625, -0.7060546875
543, 3867022499, -6.367035388946533, 1.9767694473266602, 7.105437278747559, 4.102187156677246, 0.07167073339223862, 0.3862459361553192, 0.60205078125, 0.1806640625, -0.70703125
544, 3867039166, -6.403463363647461, 1.8691809177398682, 7.071925640106201, 7.89355993270874, 0.99237060546875, 1.639116883277893, 0.601806640625, 0.1796875, -0.70458984375
545, 3867055833, -6.308004379272461, 1.9474997520446777, 7.081963062286377, 8.757975578308105, 0.4428756535053253, 2.9975507259368896, 0.603759765625, 0.176025390625, -0.70361328125
546, 3867072500, -6.3029937744140625, 2.0658700466156006, 7.047295093536377, 7.983679294586182, 0.6696250438690186, 3.302598714828491, 0.603271484375, 0.175537109375, -0.701904296875
547, 3867089167, -6.368367671966553, 1.9459824562072754, 7.047028541564941, 7.685163974761963, 0.9896302819252014, 3.8640801906585693, 0.60498046875, 0.172607421875, -0.703369140625
548, 3867105834, -6.333406925201416, 2.113710641860962, 7.0042290687561035, 5.929642200469971, -0.017583120614290237, 3.8713793754577637, 0.601806640625, 0.169921875, -0.704345703125
549, 3867122501, -6.319618225097656, 2.2218856811523438, 6.964644908905029, 5.75559139251709, -0.4584546387195587, 3.944939374923706, 0.6044921875, 0.17041015625, -0.703369140625
550, 3867139168, -6.289739608764648, 2.252826690673828, 6.976073741912842, 4.435370922088623, -1.3869662284851074, 3.1713197231292725, 0.6025390625, 0.167236328125, -0.703857421875
551, 3867155835, -6.280107498168945, 2.220999002456665, 6.972707271575928, 3.039247989654541, -1.4810161590576172, 2.0938448905944824, 0.603515625, 0.167724609375, -0.701416015625
552, 3867172502, -6.252140998840332, 2.2630767822265625, 6.973438262939453, 1.7539128065109253, -1.7279607057571411, 0.9562180638313293, 0.60009765625, 0.164794921875, -0.701904296875
553, 3867189169, -6.241532802581787, 2.257420063018799, 6.953073978424072, 0.16574618220329285, -1.5470070838928223, -0.5198993682861328, 0.60302734375, 0.164794921875, -0.703369140625
554, 3867205836, -6.306027412414551, 2.1945791244506836, 6.967588424682617, -0.16265346109867096, -1.2252219915390015, -1.09770929813385, 0.60400390625, 0.164794921875, -0.704345703125
555, 3867222503, -6.310361862182617, 2.180224895477295, 7.010071754455566, -0.02937776781618595, -1.2184089422225952, -1.1615103483200073, 0.603515625, 0.163330078125, -0.701904296875
556, 3867239170, -6.286923885345459, 2.2389731407165527, 6.977327823638916, -0.24298766255378723, -1.2406662702560425, -1.42889404296875, 0.60302734375, 0.164794921875, -0.704833984375
557, 3867255837, -6.2727203369140625, 2.2306017875671387, 6.998307704925537, -1.1125900745391846, -1.4793000221252441, -2.067713499069214, 0.6015625, 0.165771484375, -0.703369140625
558, 3867272504, -6.303892135620117, 2.171473979949951, 7.013153553009033, -1.3589714765548706, -1.4024746417999268, -2.3304738998413086, 0.60107421875, 0.165771484375, -0.704833984375
559, 3867289171, -6.308213233947754, 2.131709337234497, 7.006161689758301, -1.2615406513214111, -1.3310920000076294, -2.27746844291687, 0.60107421875, 0.165771484375, -0.702392578125
560, 3867305838, -6.286404132843018, 2.2098476886749268, 6.990312099456787, -1.541794776916504, -1.460717797279358, -2.4650557041168213, 0.60107421875, 0.164794921875, -0.704833984375
561, 3867322505, -6.279807090759277, 2.239520311355591, 6.973352432250977, -2.314735174179077, -1.504528522491455, -2.995124101638794, 0.6015625, 0.165771484375, -0.70556640625
562, 3867339172, -6.295202255249023, 2.19124174118042, 6.999348163604736, -3.0868685245513916, -1.8111510276794434, -3.585240602493286, 0.600830078125, 0.167236328125, -0.70556640625
563, 3867355839, -6.313290596008301, 2.163900852203369, 7.035912036895752, -3.5845999717712402, -2.1579339504241943, -3.9867703914642334, 0.602783203125, 0.168212890625, -0.7060546875
564, 3867372506, -6.303374767303467, 2.1557090282440186, 7.0183329582214355, -3.831045389175415, -2.457141637802124, -4.112183094024658, 0.603271484375, 0.169921875, -0.704345703125
565, 3867389173, -6.306087970733643, 2.124241828918457, 7.039587497711182, -3.7434751987457275, -2.496290445327759, -4.102732181549072, 0.602294921875, 0.1689453125, -0.70751953125
566, 3867405840, -6.283214092254639, 2.039537191390991, 7.050101280212402, -3.289566993713379, -2.472022533416748, -3.6161420345306396, 0.599853515625, 0.1708984375, -0.70703125
567, 3867422507, -6.298464298248291, 2.0520498752593994, 7.075785160064697, -2.946164846420288, -2.1170947551727295, -3.299697160720825, 0.601806640625, 0.1728515625, -0.7060546875
568, 3867439174, -6.296186923980713, 2.0660769939422607, 7.046863555908203, -2.7824230194091797, -1.8541547060012817, -3.0325820446014404, 0.599853515625, 0.173828125, -0.70654296875
569, 3867455841, -6.291544437408447, 2.0384581089019775, 7.087952136993408, -2.2449662685394287, -1.485383152961731, -2.6924073696136475, 0.599609375, 0.175537109375, -0.70849609375
570, 3867472508, -6.31859016418457, 2.0276808738708496, 7.051773548126221, -1.2964379787445068, -1.125050663948059, -2.0518078804016113, 0.6005859375, 0.174560546875, -0.710205078125
571, 3867489175, -6.282511234283447, 2.0531647205352783, 7.045319080352783, -0.8778624534606934, -0.9823238849639893, -1.7471191883087158, 0.601806640625, 0.174560546875, -0.7080078125
572, 3867505842, -6.313783645629883, 2.0305700302124023, 7.061873912811279, -0.6033838987350464, -1.0173492431640625, -1.473024606704712, 0.599609375, 0.174560546875, -0.70654296875
573, 3867522509, -6.295706272125244, 2.0769245624542236, 7.0855488777160645, -0.008464997634291649, -0.7847219109535217, -1.1561317443847656, 0.602294921875, 0.175537109375, -0.7060546875
574, 3867539176, -6.279536247253418, 2.086301803588867, 7.040394306182861, -0.10855942219495773, -0.8021641969680786, -1.2663688659667969, 0.6005859375, 0.176025390625, -0.7080078125
575, 3867555843, -6.295177936553955, 2.053351402282715, 7.043848037719727, -0.17351321876049042, -0.8424785137176514, -1.2930442094802856, 0.602294921875, 0.173583984375, -0.70458984375
576, 3867572510, -6.284359931945801, 2.0836870670318604, 7.064174652099609, -0.3384206295013428, -1.0019432306289673, -1.3188618421554565, 0.601806640625, 0.173828125, -0.70947265625
577, 3867589177, -6.301671981811523, 2.0694923400878906, 7.0517473220825195, -0.42396700382232666, -1.0286827087402344, -1.425858736038208, 0.600830078125, 0.17333984375, -0.70849609375
578, 3867605844, -6.282944202423096, 2.0806126594543457, 7.026687145233154, -0.37418878078460693, -1.0337285995483398, -1.4379738569259644, 0.599609375, 0.175048828125, -0.7080078125
579, 3867622511, -6.281091213226318, 2.061342239379883, 7.043270587921143, -0.4537801742553711, -1.0056569576263428, -1.4583101272583008, 0.59912109375, 0.174560546875, -0.70849609375
580, 3867639178, -6.280797004699707, 2.05450439453125, 7.065131664276123, -0.34370967745780945, -0.9153722524642944, -1.3688323497772217, 0.60009765625, 0.176025390625, -0.70751953125
581, 3867655845, -6.284664630889893, 2.0481159687042236, 7.038616180419922, -0.2358161211013794, -0.9195727109909058, -1.2300242185592651, 0.601806640625, 0.177978515625, -0.7080078125
582, 3867672512, -6.2981038093566895, 2.0800983905792236, 7.06673002243042, -0.09065616130828857, -0.8695256114006042, -1.1668378114700317, 0.599609375, 0.176025390625, -0.70703125
583, 3867689179, -6.275275230407715, 2.057100772857666, 7.07328462600708, -0.027379978448152542, -1.0546413660049438, -1.0781025886535645, 0.599609375, 0.174560546875, -0.70703125
584, 3867705846, -6.286827087402344, 2.045201301574707, 7.0705366134643555, -0.0018185016233474016, -1.0617361068725586, -1.082943320274353, 0.6005859375, 0.175048828125, -0.710205078125
585, 3867722513, -6.292663097381592, 2.0730109214782715, 7.061335563659668, -0.024882735684514046, -1.2041043043136597, -0.9821574091911316, 0.599853515625, 0.17333984375, -0.7060546875
586, 3867739180, -6.2789483070373535, 2.0781219005584717, 7.049883842468262, -0.06560692936182022, -1.2580190896987915, -1.0404006242752075, 0.601318359375, 0.17333984375, -0.7080078125
587, 3867755847, -6.284750938415527, 2.043318510055542, 7.058627605438232, -0.011717809364199638, -1.229204535484314, -0.9339926242828369, 0.600830078125, 0.174560546875, -0.7080078125
588, 3867772514, -6.285955905914307, 2.0858874320983887, 7.073855876922607, 0.02568313479423523, -1.1022682189941406, -0.9248618483543396, 0.599853515625, 0.17431640625, -0.70654296875
589, 3867789181, -6.279421806335449, 2.0751776695251465, 7.063039302825928, 0.011532118543982506, -0.8810639977455139, -1.0024040937423706, 0.601806640625, 0.174560546875, -0.708984375
590, 3867805848, -6.287586212158203, 2.0753095149993896, 7.056081295013428, -0.017301378771662712, -0.97394859790802, -1.134412169456482, 0.601806640625, 0.174072265625, -0.709228515625
591, 3867822515, -6.27118444442749, 2.0694892406463623, 7.055732250213623, -0.025087637826800346, -0.9427266120910645, -1.0923560857772827, 0.601318359375, 0.174072265625, -0.709228515625
592, 3867839182, -6.267080307006836, 2.079162120819092, 7.0612473487854, 0.00947029609233141, -0.7912788391113281, -1.0373656749725342, 0.599853515625, 0.17431640625, -0.70751953125
593, 3867855849, -6.264035701751709, 2.0882620811462402, 7.037524223327637, -0.04639739915728569, -0.746610164642334, -0.9897898435592651, 0.6005859375, 0.177001953125, -0.708740234375
594, 3867872516, -6.2710347175598145, 2.098616123199463, 7.055519104003906, -0.1301381140947342, -0.6554418206214905, -1.1691429615020752, 0.600830078125, 0.1728515625, -0.709716796875
595, 3867889183, -6.272012233734131, 2.1015777587890625, 7.055471420288086, -0.49354392290115356, -0.8483951091766357, -1.4477450847625732, 0.602294921875, 0.171875, -0.708984375
596, 3867905850, -6.262832164764404, 2.083462715148926, 7.05361795425415, -0.7734267711639404, -0.8991082906723022, -1.7914162874221802, 0.602294921875, 0.175048828125, -0.70751953125
597, 3867922517, -6.258301258087158, 2.0827510356903076, 7.050259590148926, -1.0272613763809204, -0.9469270706176758, -1.8555760383605957, 0.602783203125, 0.1728515625, -0.70849609375
598, 3867939184, -6.26637601852417, 2.084550619125366, 7.050675868988037, -1.319028377532959, -0.9910961985588074, -2.061988592147827, 0.598876953125, 0.1728515625, -0.7060546875
599, 3867955851, -6.267209529876709, 2.0948386192321777, 7.060357570648193, -1.3959306478500366, -0.8683858513832092, -2.1036221981048584, 0.599853515625, 0.175048828125, -0.70654296875
600, 3867972518, -6.272739410400391, 2.0435945987701416, 7.064986705780029, -1.6561554670333862, -0.8364081978797913, -2.180933952331543, 0.6005859375, 0.177978515625, -0.709228515625
601, 3867989185, -6.2791008949279785, 2.0437424182891846, 7.052175998687744, -1.6004607677459717, -0.8293776512145996, -2.225141763687134, 0.601318359375, 0.175537109375, -0.708984375
602, 3868005852, -6.2757568359375, 2.07831072807312, 7.058139324188232, -1.7190220355987549, -0.9630376100540161, -2.2324414253234863, 0.601318359375, 0.175048828125, -0.708984375
603, 3868022519, -6.278618335723877, 2.0476415157318115, 7.079488277435303, -1.94369637966156, -1.2175378799438477, -2.37144136428833, 0.6005859375, 0.175048828125, -0.70849609375
604, 3868039186, -6.292455196380615, 2.0620365142822266, 7.057570457458496, -2.004654884338379, -1.2218025922775269, -2.4843297004699707, 0.59912109375, 0.177490234375, -0.709716796875
605, 3868055853, -6.279825210571289, 2.042430877685547, 7.092064380645752, -2.0615787506103516, -1.264012336730957, -2.551396131515503, 0.59912109375, 0.177490234375, -0.7060546875
606, 3868072520, -6.275517463684082, 2.0275514125823975, 7.063289642333984, -2.278762102127075, -1.3505191802978516, -2.607167959213257, 0.60009765625, 0.177978515625, -0.709716796875
607, 3868089187, -6.294260025024414, 2.0164010524749756, 7.081150531768799, -2.265148878097534, -1.1479099988937378, -2.583463668823242, 0.60009765625, 0.178466796875, -0.708740234375
608, 3868105854, -6.277501106262207, 2.0143725872039795, 7.06300163269043, -2.1007919311523438, -1.2068190574645996, -2.4554636478424072, 0.6005859375, 0.177978515625, -0.710205078125
609, 3868122521, -6.286467552185059, 1.9839305877685547, 7.091402530670166, -1.6643133163452148, -0.9085464477539062, -2.2516250610351562, 0.59912109375, 0.1806640625, -0.708251953125
610, 3868139188, -6.290083885192871, 1.9838557243347168, 7.07724142074585, -1.2363123893737793, -0.7795097827911377, -2.1067087650299072, 0.60009765625, 0.179443359375, -0.709228515625
611, 3868155855, -6.299535274505615, 1.98507821559906, 7.057967662811279, -0.9642542004585266, -0.6605772376060486, -1.9131919145584106, 0.599609375, 0.181640625, -0.708740234375
612, 3868172522, -6.2899627685546875, 1.9940675497055054, 7.073217391967773, -0.6774686574935913, -0.6956920623779297, -1.7618461847305298, 0.603515625, 0.18017578125, -0.709228515625
613, 3868189189, -6.295248031616211, 1.9787111282348633, 7.078522205352783, -0.388711154460907, -0.6759704351425171, -1.6278536319732666, 0.6015625, 0.18017578125, -0.708740234375
614, 3868205856, -6.2721052169799805, 1.9943656921386719, 7.0817437171936035, -0.344016969203949, -0.707704484462738, -1.5341495275497437, 0.6005859375, 0.1806640625, -0.710205078125
615, 3868222523, -6.294863224029541, 2.0043909549713135, 7.068045616149902, -0.3556067645549774, -0.8197985291481018, -1.4280105829238892, 0.6005859375, 0.18115234375, -0.710205078125
616, 3868239190, -6.2789530754089355, 1.9912525415420532, 7.0728302001953125, -0.41363227367401123, -0.8978531360626221, -1.4515612125396729, 0.60009765625, 0.18115234375, -0.708251953125
617, 3868255857, -6.2936692237854, 1.987761378288269, 7.090406894683838, -0.41837063431739807, -1.0005216598510742, -1.5477752685546875, 0.599609375, 0.1826171875, -0.709228515625
618, 3868272524, -6.271722793579102, 1.9725226163864136, 7.079988956451416, -0.49282675981521606, -1.0667688846588135, -1.5191402435302734, 0.6005859375, 0.181640625, -0.709716796875
619, 3868289191, -6.287646770477295, 1.9839457273483276, 7.111369609832764, -0.44188305735588074, -1.0817779302597046, -1.4083014726638794, 0.6005859375, 0.18017578125, -0.708251953125
620, 3868305858, -6.287956237792969, 1.9922829866409302, 7.081791877746582, -0.35287901759147644, -1.0532455444335938, -1.3402997255325317, 0.5986328125, 0.18212890625, -0.711181640625
621, 3868322525, -6.272884845733643, 2.027322769165039, 7.077541351318359, -0.5023290514945984, -1.1252938508987427, -1.5385291576385498, 0.60009765625, 0.1806640625, -0.710205078125
622, 3868339192, -6.261772155761719, 1.9829057455062866, 7.06394100189209, -0.5881444215774536, -1.089986801147461, -1.663557529449463, 0.59912109375, 0.1806640625, -0.709228515625
623, 3868355859, -6.275826454162598, 1.9841063022613525, 7.093041896820068, -0.5846611261367798, -0.9519216418266296, -1.5186153650283813, 0.599609375, 0.18212890625, -0.709228515625
624, 3868372526, -6.269259452819824, 1.9925227165222168, 7.098684310913086, -0.5222301483154297, -0.9655987024307251, -1.6494065523147583, 0.59814453125, 0.181640625, -0.709228515625
625, 3868389193, -6.279299736022949, 1.9888886213302612, 7.0744805335998535, -0.5390703678131104, -1.0004960298538208, -1.5546778440475464, 0.599609375, 0.18212890625, -0.710693359375
626, 3868405860, -6.268067359924316, 1.992026448249817, 7.079120635986328, -0.5095518231391907, -0.8636474013328552, -1.5401043891906738, 0.59912109375, 0.181640625, -0.710205078125
627, 3868422527, -6.272284507751465, 1.975610613822937, 7.095032691955566, -0.3886343240737915, -0.7866813540458679, -1.5619521141052246, 0.59814453125, 0.181640625, -0.710205078125
628, 3868439194, -6.271640777587891, 1.9875422716140747, 7.093321800231934, -0.39193838834762573, -0.7464821934700012, -1.47831392288208, 0.6005859375, 0.1826171875, -0.710205078125
629, 3868455861, -6.274844646453857, 1.9919180870056152, 7.076300144195557, -0.3946276903152466, -0.6327745318412781, -1.489775538444519, 0.5986328125, 0.18212890625, -0.710693359375
630, 3868472528, -6.279600620269775, 1.9830387830734253, 7.111151218414307, -0.40104368329048157, -0.8685010671615601, -1.4396259784698486, 0.60107421875, 0.181640625, -0.708740234375
631, 3868489195, -6.274277687072754, 1.9614133834838867, 7.068960666656494, -0.38845503330230713, -0.7791255116462708, -1.482335090637207, 0.599609375, 0.1826171875, -0.707763671875
632, 3868505862, -6.274996757507324, 1.995863676071167, 7.080754280090332, -0.4205605387687683, -0.8055450320243835, -1.466442346572876, 0.60107421875, 0.18212890625, -0.708740234375
633, 3868522529, -6.2695417404174805, 1.9893357753753662, 7.073948383331299, -0.4490162134170532, -0.8706396222114563, -1.5778447389602661, 0.60009765625, 0.18212890625, -0.710693359375
634, 3868539196, -6.27646541595459, 2.001664400100708, 7.08640193939209, -0.5542715787887573, -0.8214632272720337, -1.7638568878173828, 0.6005859375, 0.1806640625, -0.710205078125
635, 3868555863, -6.275833606719971, 1.9809472560882568, 7.106666088104248, -0.7040867209434509, -0.7558883428573608, -1.788246512413025, 0.599609375, 0.18359375, -0.710693359375
636, 3868572530, -6.275134086608887, 1.984476089477539, 7.081540584564209, -0.7897035479545593, -0.7927770614624023, -1.8810479640960693, 0.597412109375, 0.1826171875, -0.707763671875
637, 3868589197, -6.289572238922119, 1.96975576877594, 7.063023090362549, -0.6142308712005615, -0.610235333442688, -1.861466646194458, 0.599609375, 0.18310546875, -0.709228515625
638, 3868605864, -6.2803192138671875, 1.973716378211975, 7.046572208404541, -0.44467484951019287, -0.6547630429267883, -1.7812223434448242, 0.60107421875, 0.184326171875, -0.709228515625
639, 3868622531, -6.274578094482422, 1.9556044340133667, 7.085834503173828, -0.47771522402763367, -0.7253003716468811, -1.6886067390441895, 0.60107421875, 0.18310546875, -0.711669921875
640, 3868639198, -6.2925591468811035, 1.944664478302002, 7.091131210327148, -0.3519057333469391, -0.7581743597984314, -1.545649766921997, 0.6005859375, 0.18310546875, -0.709228515625
641, 3868655865, -6.2890825271606445, 1.9621747732162476, 7.1001129150390625, -0.33573126792907715, -0.7650770545005798, -1.5459827184677124, 0.597412109375, 0.1826171875, -0.711181640625
642, 3868672532, -6.276313781738281, 1.9429807662963867, 7.05793571472168, -0.30941417813301086, -0.7513229250907898, -1.5103551149368286, 0.59912109375, 0.18408203125, -0.710693359375
643, 3868689199, -6.285983085632324, 1.946252465248108, 7.08066987991333, -0.047396302223205566, -0.7028253078460693, -1.456696629524231, 0.598876953125, 0.18359375, -0.711669921875
644, 3868705866, -6.292173862457275, 1.955283284187317, 7.074599742889404, 0.12791623175144196, -0.6308663487434387, -1.2566101551055908, 0.599853515625, 0.18408203125, -0.712646484375
645, 3868722533, -6.2903151512146, 1.9597785472869873, 7.0779500007629395, 0.10067713260650635, -0.5156733393669128, -1.199737310409546, 0.599853515625, 0.185302734375, -0.710205078125
646, 3868739200, -6.284418106079102, 1.9505010843276978, 7.075575351715088, 0.034276194870471954, -0.5622755885124207, -1.1464756727218628, 0.6005859375, 0.184814453125, -0.708740234375
647, 3868755867, -6.301159381866455, 1.9655264616012573, 7.080559253692627, 0.29028791189193726, -0.5168258547782898, -1.0088073015213013, 0.60009765625, 0.18408203125, -0.710205078125
648, 3868772534, -6.28081750869751, 1.9741334915161133, 7.107664108276367, 0.5462612509727478, -0.4673420786857605, -0.8868268728256226, 0.59912109375, 0.181640625, -0.710693359375
649, 3868789201, -6.2868733406066895, 1.980958104133606, 7.072174549102783, 0.5570698380470276, -0.4103282690048218, -0.8353198170661926, 0.6015625, 0.1826171875, -0.710693359375
650, 3868805868, -6.277875900268555, 1.963659644126892, 7.070507526397705, 0.7127950191497803, -0.46207869052886963, -0.7528725266456604, 0.598388671875, 0.18408203125, -0.710693359375
651, 3868822535, -6.275017738342285, 1.9860568046569824, 7.093290328979492, 0.7928346991539001, -0.38317883014678955, -0.658387303352356, 0.6005859375, 0.1845703125, -0.710205078125
652, 3868839202, -6.281680583953857, 1.9967904090881348, 7.114894390106201, 1.1760519742965698, -0.09627814590930939, -0.5558980703353882, 0.60205078125, 0.18115234375, -0.709228515625
653, 3868855869, -6.275435924530029, 1.9752839803695679, 7.0668463706970215, 1.1676957607269287, -0.19249224662780762, -0.7017623782157898, 0.6005859375, 0.18212890625, -0.707763671875
