sep=,
DeviceTag:,A,,,,,,,,,,,,,,,,,
FirmwareVersion:,2.2.1,,,,,,,,,,,,,,,,,
AppVersion:,2023.6.1,,,,,,,,,,,,,,,,,
SyncStatus:,Synced,,,,,,,,,,,,,,,,,
OutputRate:,60Hz,,,,,,,,,,,,,,,,,
FilterProfile:,General,,,,,,,,,,,,,,,,,
Measurement Mode:,Inertial Mode - Rate quantities (with mag),,,,,,,,,,,,,,,,,
StartTime:,2023-12-05 15:09:30.287 +0200,,,,,,,,,,,,,,,,,
 2023,,,,,,,,,,,,,,,,,,,

PacketCounter,SampleTimeFine,Acc_X,Acc_Y,Acc_Z,Gyr_X,Gyr_Y,Gyr_Z,Mag_X,Mag_Y,Mag_Z
1, 3528061994, -6.7044806480407715, 1.857010006904602, 7.043148040771484, -2.44416880607605, -1.5098174810409546, -2.2603209018707275, 1.10400390625, -0.58056640625, 0.080810546875
2, 3528078661, -6.713052272796631, 1.8503837585449219, 7.010101318359375, -2.4369843006134033, -1.4780704975128174, -2.301429033279419, 1.10400390625, -0.58154296875, 0.08203125
3, 3528095328, -6.708463191986084, 1.8522595167160034, 7.026259422302246, -2.3249669075012207, -1.388208270072937, -2.1987221240997314, 1.10693359375, -0.58056640625, 0.0810546875
4, 3528111995, -6.715304374694824, 1.863600730895996, 7.039263725280762, -2.3106367588043213, -1.3534774780273438, -2.2020773887634277, 1.10595703125, -0.58056640625, 0.079833984375
5, 3528128662, -6.719547748565674, 1.8677656650543213, 7.024195194244385, -2.4317338466644287, -1.5087546110153198, -2.2095820903778076, 1.1064453125, -0.58056640625, 0.08203125
6, 3528145329, -6.7193827629089355, 1.8637937307357788, 7.025001525878906, -2.5123116970062256, -1.5770893096923828, -2.269644021987915, 1.10546875, -0.582275390625, 0.080810546875
7, 3528161996, -6.71708345413208, 1.8661038875579834, 7.020598411560059, -2.515256881713867, -1.6579484939575195, -2.2891478538513184, 1.1064453125, -0.58154296875, 0.080322265625
8, 3528178663, -6.713825702667236, 1.8504276275634766, 7.040756702423096, -2.5008883476257324, -1.7448910474777222, -2.302133798599243, 1.10595703125, -0.5810546875, 0.080810546875
9, 3528195330, -6.711030960083008, 1.8613659143447876, 7.041940212249756, -2.412396192550659, -1.6666697263717651, -2.2553648948669434, 1.107666015625, -0.58154296875, 0.079833984375
10, 3528211997, -6.701822757720947, 1.8568061590194702, 7.043275833129883, -2.3852596282958984, -1.6349482536315918, -2.1518383026123047, 1.107177734375, -0.5810546875, 0.0810546875
11, 3528228664, -6.696335315704346, 1.8629010915756226, 7.036035060882568, -2.36409068107605, -1.5354814529418945, -2.1886439323425293, 1.1064453125, -0.5810546875, 0.08056640625
12, 3528245331, -6.708685874938965, 1.857512354850769, 7.02304744720459, -2.363539934158325, -1.4852802753448486, -2.1554877758026123, 1.10595703125, -0.5791015625, 0.079345703125
13, 3528261998, -6.711068153381348, 1.8740205764770508, 7.045933246612549, -2.3147730827331543, -1.540783166885376, -2.060771942138672, 1.10595703125, -0.58056640625, 0.080322265625
14, 3528278665, -6.712284088134766, 1.858020305633545, 7.028932094573975, -2.3282837867736816, -1.49602472782135, -2.0680460929870605, 1.1044921875, -0.5810546875, 0.080810546875
15, 3528295332, -6.703652381896973, 1.868548035621643, 7.057676792144775, -2.312877893447876, -1.5897290706634521, -2.1517868041992188, 1.10546875, -0.57958984375, 0.08203125
16, 3528311999, -6.709172248840332, 1.8483220338821411, 7.033340930938721, -2.2827060222625732, -1.6690386533737183, -1.989889144897461, 1.106689453125, -0.581787109375, 0.08154296875
17, 3528328666, -6.698962211608887, 1.8649846315383911, 7.027176856994629, -2.2047154903411865, -1.6036367416381836, -1.9025496244430542, 1.107666015625, -0.580078125, 0.08251953125
18, 3528345333, -6.699472427368164, 1.873904824256897, 7.051126003265381, -2.2482314109802246, -1.6197984218597412, -2.0556368827819824, 1.107177734375, -0.580078125, 0.080322265625
19, 3528362000, -6.70817232131958, 1.8714287281036377, 7.034880638122559, -2.3350203037261963, -1.6219242811203003, -2.087742328643799, 1.10400390625, -0.578125, 0.08203125
20, 3528378667, -6.70114278793335, 1.8704906702041626, 7.001584053039551, -2.356048345565796, -1.689926028251648, -2.153989553451538, 1.10595703125, -0.57958984375, 0.079833984375
21, 3528395334, -6.712392807006836, 1.8809568881988525, 7.032199382781982, -2.459869384765625, -1.6441560983657837, -2.2223756313323975, 1.10693359375, -0.5791015625, 0.080322265625
22, 3528412001, -6.716745376586914, 1.8650085926055908, 7.033461093902588, -2.4980194568634033, -1.7306244373321533, -2.2296109199523926, 1.1044921875, -0.5791015625, 0.08251953125
23, 3528428668, -6.708382606506348, 1.8681280612945557, 7.024860382080078, -2.4596004486083984, -1.6305173635482788, -2.2360527515411377, 1.1044921875, -0.582275390625, 0.0830078125
24, 3528445335, -6.709158897399902, 1.869875192642212, 7.046195983886719, -2.542407274246216, -1.6679141521453857, -2.176820755004883, 1.1064453125, -0.5810546875, 0.078369140625
25, 3528462002, -6.705450534820557, 1.863356113433838, 7.023563385009766, -2.3964014053344727, -1.6353709697723389, -2.238652467727661, 1.1064453125, -0.5810546875, 0.079833984375
26, 3528478669, -6.7050862312316895, 1.867578387260437, 7.046201705932617, -2.502655506134033, -1.6073508262634277, -2.2305588722229004, 1.10400390625, -0.58154296875, 0.08154296875
27, 3528495336, -6.709052562713623, 1.8721542358398438, 7.030192852020264, -2.5352344512939453, -1.550644040107727, -2.2510104179382324, 1.10693359375, -0.5810546875, 0.079833984375
28, 3528512003, -6.703510761260986, 1.875260829925537, 7.0274553298950195, -2.522876739501953, -1.590651273727417, -2.264329433441162, 1.1044921875, -0.58154296875, 0.079345703125
29, 3528528670, -6.708628177642822, 1.8756167888641357, 7.008262634277344, -2.533172845840454, -1.6146631240844727, -2.405813694000244, 1.10595703125, -0.58056640625, 0.078857421875
30, 3528545337, -6.708098411560059, 1.863873839378357, 7.029047966003418, -2.5289082527160645, -1.6096174716949463, -2.3542299270629883, 1.10498046875, -0.5810546875, 0.079833984375
31, 3528562004, -6.703973293304443, 1.880272388458252, 7.029698371887207, -2.4797706604003906, -1.5943267345428467, -2.3054630756378174, 1.1044921875, -0.58056640625, 0.080322265625
32, 3528578671, -6.7029218673706055, 1.8761897087097168, 7.046098709106445, -2.562218189239502, -1.6349868774414062, -2.3133394718170166, 1.10498046875, -0.5791015625, 0.080810546875
33, 3528595338, -6.707313060760498, 1.8568693399429321, 6.9909820556640625, -2.6022634506225586, -1.622154951095581, -2.386963367462158, 1.10546875, -0.58154296875, 0.078857421875
34, 3528612005, -6.708003520965576, 1.8696480989456177, 7.0502777099609375, -2.5420353412628174, -1.646691918373108, -2.331947088241577, 1.10693359375, -0.5810546875, 0.079833984375
35, 3528628672, -6.70119047164917, 1.853002667427063, 7.02227258682251, -2.4101552963256836, -1.6428883075714111, -2.259040355682373, 1.108154296875, -0.581787109375, 0.08154296875
36, 3528645339, -6.706100940704346, 1.848374366760254, 7.033789157867432, -2.4734952449798584, -1.7039743661880493, -2.1299777030944824, 1.10546875, -0.58154296875, 0.08154296875
37, 3528662006, -6.705489635467529, 1.8674851655960083, 7.031540870666504, -2.460458517074585, -1.7170755863189697, -2.1979923248291016, 1.10546875, -0.580078125, 0.077880859375
38, 3528678673, -6.710295677185059, 1.8610440492630005, 7.018735408782959, -2.4551055431365967, -1.6912707090377808, -2.2745485305786133, 1.10498046875, -0.58154296875, 0.08154296875
39, 3528695340, -6.691939353942871, 1.8495463132858276, 7.020850658416748, -2.4898107051849365, -1.7288315296173096, -2.2080321311950684, 1.10546875, -0.581787109375, 0.08154296875
40, 3528712007, -6.71436071395874, 1.8562029600143433, 7.041086196899414, -2.461099147796631, -1.7168450355529785, -2.155897855758667, 1.10693359375, -0.5791015625, 0.080322265625
41, 3528728674, -6.710012912750244, 1.8629087209701538, 7.031562805175781, -2.4772987365722656, -1.794925332069397, -2.237410306930542, 1.1044921875, -0.58056640625, 0.080810546875
42, 3528745341, -6.68243408203125, 1.8535833358764648, 7.0299482345581055, -2.449970006942749, -1.6961115598678589, -2.3043620586395264, 1.107421875, -0.578125, 0.083984375
43, 3528762008, -6.694428443908691, 1.857936143875122, 7.023816108703613, -2.5233373641967773, -1.5788179636001587, -2.34269118309021, 1.10595703125, -0.582275390625, 0.0810546875
44, 3528778675, -6.684966564178467, 1.8550792932510376, 7.046304225921631, -2.5142838954925537, -1.4360272884368896, -2.3772428035736084, 1.1044921875, -0.580078125, 0.079345703125
45, 3528795342, -6.701662540435791, 1.8590052127838135, 7.0378098487854, -2.556877613067627, -1.3954824209213257, -2.334303379058838, 1.10595703125, -0.5810546875, 0.080322265625
46, 3528812009, -6.720612049102783, 1.863615870475769, 7.048171043395996, -2.495650291442871, -1.562118649482727, -2.3264782428741455, 1.10400390625, -0.58056640625, 0.08154296875
47, 3528828676, -6.713465690612793, 1.84860360622406, 7.031322479248047, -2.477362632751465, -1.5885765552520752, -2.2267680168151855, 1.1064453125, -0.5791015625, 0.079833984375
48, 3528845343, -6.708467483520508, 1.8598803281784058, 7.015884876251221, -2.6129181385040283, -1.6272388696670532, -2.199861764907837, 1.1044921875, -0.5810546875, 0.080810546875
49, 3528862010, -6.713047504425049, 1.8392094373703003, 7.032003402709961, -2.4440791606903076, -1.6828312873840332, -2.1470487117767334, 1.10302734375, -0.580078125, 0.081787109375
50, 3528878677, -6.691256523132324, 1.8532525300979614, 7.008600234985352, -2.4252283573150635, -1.695074200630188, -2.2650718688964844, 1.10546875, -0.580078125, 0.080810546875
51, 3528895344, -6.707143306732178, 1.8606802225112915, 7.040974140167236, -2.5299203395843506, -1.6762744188308716, -2.2505621910095215, 1.10595703125, -0.5791015625, 0.080322265625
52, 3528912011, -6.705722808837891, 1.863358974456787, 7.025956153869629, -2.5830540657043457, -1.6243833303451538, -2.3181803226470947, 1.1064453125, -0.57861328125, 0.078369140625
53, 3528928678, -6.695413589477539, 1.8573681116104126, 7.034774303436279, -2.6235220432281494, -1.6506235599517822, -2.3395538330078125, 1.10595703125, -0.5791015625, 0.080810546875
54, 3528945345, -6.692103385925293, 1.8644969463348389, 7.0316667556762695, -2.5202133655548096, -1.6228466033935547, -2.3591861724853516, 1.10546875, -0.58056640625, 0.080322265625
55, 3528962012, -6.705719470977783, 1.8675686120986938, 7.041374683380127, -2.581861734390259, -1.6518563032150269, -2.34769868850708, 1.10546875, -0.57861328125, 0.080322265625
56, 3528978679, -6.700883865356445, 1.855500340461731, 7.041399955749512, -2.560335397720337, -1.604149341583252, -2.347583532333374, 1.10546875, -0.57958984375, 0.080322265625
57, 3528995346, -6.681985378265381, 1.8524630069732666, 7.045678615570068, -2.5298049449920654, -1.5043108463287354, -2.273780345916748, 1.10693359375, -0.57958984375, 0.080810546875
58, 3529012013, -6.716209411621094, 1.853621244430542, 7.041774272918701, -2.5345818996429443, -1.5443817377090454, -2.33799147605896, 1.1044921875, -0.58154296875, 0.08203125
59, 3529028680, -6.707219123840332, 1.858817458152771, 7.026169776916504, -2.5250284671783447, -1.5994365215301514, -2.399231433868408, 1.10498046875, -0.580078125, 0.079345703125
60, 3529045347, -6.700239658355713, 1.8497040271759033, 7.041934967041016, -2.5735771656036377, -1.5340601205825806, -2.4304277896881104, 1.1044921875, -0.58056640625, 0.080322265625
61, 3529062014, -6.705832481384277, 1.8555048704147339, 7.0505547523498535, -2.707467555999756, -1.4829498529434204, -2.526859760284424, 1.10498046875, -0.580078125, 0.08154296875
62, 3529078681, -6.719601154327393, 1.859992504119873, 7.037304401397705, -3.0261406898498535, -1.812098503112793, -2.683199405670166, 1.10400390625, -0.580078125, 0.080322265625
63, 3529095348, -6.709465980529785, 1.8546465635299683, 7.03192138671875, -3.3010551929473877, -1.9311467409133911, -2.888293504714966, 1.10498046875, -0.57763671875, 0.08251953125
64, 3529112015, -6.6898579597473145, 1.8371341228485107, 7.057669162750244, -3.2276101112365723, -1.9568233489990234, -2.8679182529449463, 1.10400390625, -0.57666015625, 0.077880859375
65, 3529128682, -6.685854434967041, 1.8352820873260498, 7.04642915725708, -2.871286153793335, -1.8286700248718262, -2.6802921295166016, 1.10595703125, -0.5791015625, 0.079345703125
66, 3529145349, -6.695588111877441, 1.8265599012374878, 7.0456862449646, -2.5078165531158447, -1.5016087293624878, -2.3383500576019287, 1.107421875, -0.578125, 0.078857421875
67, 3529162016, -6.713697910308838, 1.836584210395813, 7.048491477966309, -2.431464910507202, -1.5375816822052002, -2.1466259956359863, 1.10400390625, -0.5791015625, 0.081298828125
68, 3529178683, -6.703786849975586, 1.864974021911621, 7.034387111663818, -2.4504823684692383, -1.4661606550216675, -2.302722692489624, 1.10498046875, -0.578125, 0.078369140625
69, 3529195350, -6.702881336212158, 1.8535531759262085, 7.042352199554443, -2.5738847255706787, -1.687659502029419, -2.3386831283569336, 1.10498046875, -0.57666015625, 0.079833984375
70, 3529212017, -6.689109802246094, 1.822229266166687, 7.0392680168151855, -2.554034948348999, -1.7020537853240967, -2.329155206680298, 1.108154296875, -0.57958984375, 0.079833984375
71, 3529228684, -6.707853317260742, 1.8310805559158325, 7.061644077301025, -2.4203875064849854, -1.7016823291778564, -2.191396951675415, 1.10498046875, -0.57763671875, 0.077880859375
72, 3529245351, -6.694062232971191, 1.8490890264511108, 7.035035133361816, -2.3897287845611572, -1.6358320713043213, -2.163159132003784, 1.10400390625, -0.57861328125, 0.080810546875
73, 3529262018, -6.695737838745117, 1.8595410585403442, 7.03302526473999, -2.4058523178100586, -1.6691412925720215, -2.1734042167663574, 1.1044921875, -0.57861328125, 0.080810546875
74, 3529278685, -6.7162675857543945, 1.8383733034133911, 7.050919532775879, -2.4275972843170166, -1.5301154851913452, -2.1966731548309326, 1.10595703125, -0.578125, 0.080810546875
75, 3529295352, -6.69165563583374, 1.8481483459472656, 7.033176422119141, -2.4632246494293213, -1.5702507495880127, -2.190577745437622, 1.1064453125, -0.5791015625, 0.079345703125
76, 3529312019, -6.705743789672852, 1.8538440465927124, 7.052199840545654, -2.45107102394104, -1.5551261901855469, -2.2308146953582764, 1.10595703125, -0.580078125, 0.079345703125
77, 3529328686, -6.707998275756836, 1.8457645177841187, 7.046072483062744, -2.5213911533355713, -1.6378298997879028, -2.3843507766723633, 1.10546875, -0.57763671875, 0.080322265625
78, 3529345353, -6.69348669052124, 1.842577576637268, 7.059849739074707, -2.524580240249634, -1.6914886236190796, -2.3041701316833496, 1.10546875, -0.57763671875, 0.080322265625
79, 3529362020, -6.710146427154541, 1.8566741943359375, 7.039097309112549, -2.515256881713867, -1.60052490234375, -2.2578749656677246, 1.10546875, -0.57958984375, 0.078857421875
80, 3529378687, -6.706461429595947, 1.830788493156433, 7.058679580688477, -2.494459390640259, -1.5298466682434082, -2.282411813735962, 1.10546875, -0.57763671875, 0.078857421875
81, 3529395354, -6.687332630157471, 1.8260915279388428, 7.041329383850098, -2.49579119682312, -1.434055209159851, -2.3789334297180176, 1.103515625, -0.57763671875, 0.079833984375
82, 3529412021, -6.7115654945373535, 1.844765067100525, 7.036406517028809, -2.576125144958496, -1.4212740659713745, -2.28165602684021, 1.1064453125, -0.57666015625, 0.081298828125
83, 3529428688, -6.699823379516602, 1.8363494873046875, 7.0319600105285645, -2.5543036460876465, -1.365579605102539, -2.390446186065674, 1.1064453125, -0.57763671875, 0.080322265625
84, 3529445355, -6.709944725036621, 1.8280949592590332, 7.045961856842041, -2.6655139923095703, -1.4979846477508545, -2.4307608604431152, 1.1064453125, -0.57666015625, 0.08251953125
85, 3529462022, -6.713645935058594, 1.813721776008606, 7.029660701751709, -2.7766213417053223, -1.7608730792999268, -2.54608154296875, 1.10302734375, -0.57861328125, 0.080322265625
86, 3529478689, -6.706502437591553, 1.8406089544296265, 7.0451788902282715, -2.7946527004241943, -1.8642075061798096, -2.5327627658843994, 1.107421875, -0.578125, 0.080322265625
87, 3529495356, -6.698582649230957, 1.822335958480835, 7.050900936126709, -2.782025098800659, -1.8133726119995117, -2.536695718765259, 1.1044921875, -0.578125, 0.079345703125
88, 3529512023, -6.711154937744141, 1.8220627307891846, 7.040142059326172, -2.515167236328125, -1.6765944957733154, -2.4019460678100586, 1.10595703125, -0.5771484375, 0.080810546875
89, 3529528690, -6.697437763214111, 1.832475185394287, 7.019170761108398, -2.469461441040039, -1.5203571319580078, -2.335737466812134, 1.10400390625, -0.57861328125, 0.08251953125
90, 3529545357, -6.702175617218018, 1.835036277770996, 7.048347473144531, -2.509596347808838, -1.6022151708602905, -2.326542377471924, 1.10498046875, -0.57861328125, 0.079345703125
91, 3529562024, -6.701251983642578, 1.8266074657440186, 7.0162739753723145, -2.5231199264526367, -1.4696439504623413, -2.3324973583221436, 1.10595703125, -0.575439453125, 0.078857421875
92, 3529578691, -6.702893257141113, 1.8324229717254639, 7.050066947937012, -2.48535418510437, -1.5218425989151, -2.33343243598938, 1.1044921875, -0.57763671875, 0.079345703125
93, 3529595358, -6.705081939697266, 1.8451592922210693, 7.060142517089844, -2.541689395904541, -1.6560276746749878, -2.3214457035064697, 1.1044921875, -0.57763671875, 0.078857421875
94, 3529612025, -6.704272747039795, 1.8243038654327393, 7.032308578491211, -2.5253608226776123, -1.60691499710083, -2.2525086402893066, 1.10546875, -0.576416015625, 0.08251953125
95, 3529628692, -6.714294910430908, 1.8161895275115967, 7.04624605178833, -2.406799793243408, -1.6426960229873657, -2.3147218227386475, 1.10595703125, -0.57666015625, 0.078857421875
96, 3529645359, -6.700060844421387, 1.8127883672714233, 7.017201900482178, -2.4176087379455566, -1.5236996412277222, -2.269221305847168, 1.10791015625, -0.57666015625, 0.080322265625
97, 3529662026, -6.702869892120361, 1.8183082342147827, 7.043846130371094, -2.4835994243621826, -1.5770124197006226, -2.2405989170074463, 1.10302734375, -0.5771484375, 0.078857421875
98, 3529678693, -6.698385238647461, 1.8302942514419556, 7.03639030456543, -2.4341542720794678, -1.6557073593139648, -2.276111125946045, 1.10498046875, -0.57763671875, 0.079345703125
99, 3529695360, -6.709936618804932, 1.8369567394256592, 7.042348861694336, -2.449381113052368, -1.6987624168395996, -2.1778223514556885, 1.1044921875, -0.5771484375, 0.077880859375
100, 3529712027, -6.691437244415283, 1.825370192527771, 7.045571804046631, -2.4859557151794434, -1.7125293016433716, -2.250293254852295, 1.10546875, -0.57861328125, 0.078857421875
101, 3529728694, -6.705014228820801, 1.835184931755066, 7.033625602722168, -2.421194314956665, -1.6893113851547241, -2.182419776916504, 1.10498046875, -0.57958984375, 0.079833984375
102, 3529745361, -6.702260971069336, 1.824691891670227, 7.035289764404297, -2.4360368251800537, -1.7501286268234253, -2.214935064315796, 1.10546875, -0.57666015625, 0.077880859375
103, 3529762028, -6.697759628295898, 1.8252538442611694, 7.0328898429870605, -2.4684109687805176, -1.7341333627700806, -2.179269313812256, 1.10498046875, -0.57666015625, 0.079833984375
104, 3529778695, -6.694056034088135, 1.816221833229065, 7.051115989685059, -2.388845443725586, -1.5996156930923462, -2.179487466812134, 1.103271484375, -0.575927734375, 0.079833984375
105, 3529795362, -6.6876139640808105, 1.815285325050354, 7.051807880401611, -2.365166425704956, -1.722723126411438, -2.099754810333252, 1.10498046875, -0.5791015625, 0.077880859375
106, 3529812029, -6.697128772735596, 1.8386640548706055, 7.04578971862793, -2.310905694961548, -1.6458078622817993, -2.0367345809936523, 1.10693359375, -0.576416015625, 0.077392578125
107, 3529828696, -6.711259365081787, 1.839443325996399, 7.025417804718018, -2.2143330574035645, -1.543485164642334, -2.053152322769165, 1.1044921875, -0.576416015625, 0.081787109375
108, 3529845363, -6.6932830810546875, 1.8402856588363647, 7.048882961273193, -2.363590955734253, -1.5671640634536743, -2.1600594520568848, 1.10546875, -0.5771484375, 0.078369140625
109, 3529862030, -6.696133136749268, 1.8395607471466064, 7.040151596069336, -2.489157199859619, -1.6579099893569946, -2.1675002574920654, 1.10498046875, -0.57763671875, 0.080810546875
110, 3529878697, -6.695145130157471, 1.814780354499817, 7.0545172691345215, -2.446140766143799, -1.559237003326416, -2.229111433029175, 1.10400390625, -0.5771484375, 0.077880859375
111, 3529895364, -6.6890459060668945, 1.8377492427825928, 7.039414405822754, -2.3925974369049072, -1.558353304862976, -2.277916669845581, 1.1044921875, -0.57763671875, 0.080322265625
112, 3529912031, -6.692162036895752, 1.8342187404632568, 7.0228047370910645, -2.419785499572754, -1.537222981452942, -2.329551935195923, 1.107421875, -0.57763671875, 0.077880859375
113, 3529928698, -6.703352451324463, 1.8321800231933594, 7.061718463897705, -2.408900260925293, -1.5658067464828491, -2.33011531829834, 1.10546875, -0.5771484375, 0.079345703125
114, 3529945365, -6.699039459228516, 1.8397940397262573, 7.0467729568481445, -2.469679355621338, -1.4376410245895386, -2.3202035427093506, 1.10546875, -0.5791015625, 0.079833984375
115, 3529962032, -6.711281776428223, 1.839898943901062, 7.05509614944458, -2.4521727561950684, -1.5608124732971191, -2.3243911266326904, 1.1044921875, -0.575439453125, 0.080810546875
116, 3529978699, -6.699145793914795, 1.8331466913223267, 7.045352458953857, -2.313096046447754, -1.5441257953643799, -2.2566072940826416, 1.102294921875, -0.5771484375, 0.078125
117, 3529995366, -6.700354099273682, 1.8204277753829956, 7.041791915893555, -2.4077858924865723, -1.4908126592636108, -2.238959789276123, 1.10400390625, -0.578125, 0.079345703125
118, 3530012033, -6.700760841369629, 1.8379008769989014, 7.049776077270508, -2.3619635105133057, -1.5511399507522583, -2.1415154933929443, 1.10693359375, -0.5771484375, 0.078857421875
119, 3530028700, -6.706316947937012, 1.8372758626937866, 7.045327186584473, -2.3749632835388184, -1.551374077796936, -2.1346261501312256, 1.10498046875, -0.57666015625, 0.078857421875
120, 3530045367, -6.68747091293335, 1.8306466341018677, 7.058661460876465, -2.333163261413574, -1.601369857788086, -2.152811288833618, 1.10498046875, -0.5791015625, 0.079833984375
121, 3530062034, -6.695178031921387, 1.8331016302108765, 7.050906181335449, -2.4101169109344482, -1.6988648176193237, -2.1826374530792236, 1.1044921875, -0.575927734375, 0.081298828125
122, 3530078701, -6.697122573852539, 1.8431591987609863, 7.044425010681152, -2.4100654125213623, -1.7307268381118774, -2.0434579849243164, 1.10400390625, -0.5791015625, 0.080810546875
123, 3530095368, -6.697906494140625, 1.8409359455108643, 7.048030376434326, -2.3552160263061523, -1.7208787202835083, -2.03149676322937, 1.1025390625, -0.57958984375, 0.080810546875
124, 3530112035, -6.689019203186035, 1.8308510780334473, 7.031056880950928, -2.3990137577056885, -1.656399130821228, -2.159189224243164, 1.107421875, -0.5771484375, 0.079345703125
125, 3530128702, -6.695928573608398, 1.8408868312835693, 7.064630508422852, -2.425049066543579, -1.61728835105896, -2.2105298042297363, 1.10498046875, -0.578125, 0.077880859375
126, 3530145369, -6.702750205993652, 1.8307770490646362, 7.027746200561523, -2.3657939434051514, -1.6204900741577148, -2.1865434646606445, 1.10498046875, -0.5791015625, 0.076904296875
127, 3530162036, -6.686276912689209, 1.8215878009796143, 7.062851428985596, -2.2671210765838623, -1.5347514152526855, -2.1446022987365723, 1.10498046875, -0.576416015625, 0.078857421875
128, 3530178703, -6.690021991729736, 1.8246870040893555, 7.038576126098633, -2.1266865730285645, -1.2844513654708862, -1.834842562675476, 1.10205078125, -0.57958984375, 0.081787109375
129, 3530195370, -6.683892726898193, 1.8456107378005981, 7.051690101623535, -2.0719263553619385, -1.456696629524231, -1.808410406112671, 1.10498046875, -0.5791015625, 0.079833984375
130, 3530212037, -6.702958106994629, 1.8519432544708252, 7.0269999504089355, -2.167910099029541, -1.4486031532287598, -2.005077362060547, 1.1064453125, -0.5771484375, 0.078857421875
131, 3530228704, -6.688261032104492, 1.8572429418563843, 7.034639835357666, -2.2398178577423096, -1.6226284503936768, -2.0776894092559814, 1.1064453125, -0.5771484375, 0.077880859375
132, 3530245371, -6.688564777374268, 1.8485772609710693, 7.039809226989746, -2.2041008472442627, -1.488917350769043, -1.9728820323944092, 1.10400390625, -0.5771484375, 0.078857421875
133, 3530262038, -6.698907375335693, 1.8472265005111694, 7.070268630981445, -2.1981585025787354, -1.496460199356079, -2.0650110244750977, 1.1064453125, -0.57763671875, 0.079345703125
134, 3530278705, -6.703177452087402, 1.8458739519119263, 7.022846698760986, -2.2105038166046143, -1.540347695350647, -2.0199711322784424, 1.1025390625, -0.57763671875, 0.077880859375
135, 3530295372, -6.689950942993164, 1.8475435972213745, 7.06087589263916, -2.2720255851745605, -1.5917011499404907, -2.158663511276245, 1.10400390625, -0.57763671875, 0.077392578125
136, 3530312039, -6.6980791091918945, 1.84462308883667, 7.062295436859131, -2.3483898639678955, -1.4926952123641968, -2.1750943660736084, 1.10693359375, -0.57763671875, 0.079833984375
137, 3530328706, -6.691788673400879, 1.844170331954956, 7.037477016448975, -2.393289089202881, -1.5631431341171265, -2.2781217098236084, 1.1064453125, -0.5791015625, 0.078857421875
138, 3530345373, -6.716062068939209, 1.8527250289916992, 7.047004699707031, -2.563434362411499, -1.6329504251480103, -2.2764053344726562, 1.103515625, -0.57861328125, 0.079833984375
139, 3530362040, -6.695793628692627, 1.8415815830230713, 7.038786888122559, -2.4474599361419678, -1.6620594263076782, -2.2502806186676025, 1.1044921875, -0.578125, 0.079345703125
140, 3530378707, -6.690794944763184, 1.8417398929595947, 7.027312278747559, -2.4403269290924072, -1.5772428512573242, -2.262420892715454, 1.10546875, -0.578125, 0.078857421875
141, 3530395374, -6.697287082672119, 1.8350117206573486, 7.039552211761475, -2.4709599018096924, -1.6584609746932983, -2.243122100830078, 1.10498046875, -0.578125, 0.079833984375
142, 3530412041, -6.696079730987549, 1.837101936340332, 7.051699161529541, -2.3967466354370117, -1.6350762844085693, -2.2027177810668945, 1.10693359375, -0.57958984375, 0.076904296875
143, 3530428708, -6.679914474487305, 1.835439920425415, 7.033105850219727, -2.4479336738586426, -1.5348409414291382, -2.2065341472625732, 1.10546875, -0.57763671875, 0.081298828125
144, 3530445375, -6.696933269500732, 1.857435941696167, 7.059206008911133, -2.4844448566436768, -1.5654226541519165, -2.29768967628479, 1.10498046875, -0.57958984375, 0.078857421875
145, 3530462042, -6.683671474456787, 1.8425931930541992, 7.0480427742004395, -2.5115556716918945, -1.508242130279541, -2.274907112121582, 1.10595703125, -0.578125, 0.08154296875
146, 3530478709, -6.680346488952637, 1.841715931892395, 7.05385160446167, -2.478605031967163, -1.5297313928604126, -2.348850965499878, 1.1064453125, -0.57666015625, 0.079833984375
147, 3530495376, -6.6966328620910645, 1.8301165103912354, 7.038974285125732, -2.5112481117248535, -1.5449963808059692, -2.277404308319092, 1.103515625, -0.5791015625, 0.077880859375
148, 3530512043, -6.684320449829102, 1.833608865737915, 7.047482967376709, -2.3758468627929688, -1.6647485494613647, -2.282360553741455, 1.10693359375, -0.5791015625, 0.077392578125
149, 3530528710, -6.697005748748779, 1.838935375213623, 7.058610439300537, -2.4732394218444824, -1.6560916900634766, -2.2457728385925293, 1.10546875, -0.57861328125, 0.079345703125
150, 3530545377, -6.702630996704102, 1.8422718048095703, 7.053529739379883, -2.4466729164123535, -1.6585021018981934, -2.2709290981292725, 1.103515625, -0.57861328125, 0.081298828125
151, 3530562044, -6.692596912384033, 1.8307923078536987, 7.070178031921387, -2.512746810913086, -1.6145092248916626, -2.321714401245117, 1.10498046875, -0.57861328125, 0.079345703125
152, 3530578711, -6.69207239151001, 1.8399831056594849, 7.054450035095215, -2.520930051803589, -1.550823450088501, -2.3101887702941895, 1.10546875, -0.57763671875, 0.077880859375
153, 3530595378, -6.710208892822266, 1.8319376707077026, 7.069876194000244, -2.549231767654419, -1.5312294960021973, -2.236321449279785, 1.10400390625, -0.57763671875, 0.078857421875
154, 3530612045, -6.695761680603027, 1.8354476690292358, 7.039138317108154, -2.594604969024658, -1.5408985614776611, -2.251919984817505, 1.1064453125, -0.57763671875, 0.078369140625
155, 3530628712, -6.688636302947998, 1.8410454988479614, 7.057694435119629, -2.450841188430786, -1.5559715032577515, -2.2419309616088867, 1.10595703125, -0.5791015625, 0.078369140625
156, 3530645379, -6.680299758911133, 1.8269282579421997, 7.048436641693115, -2.488888740539551, -1.4848194122314453, -2.28100323677063, 1.10546875, -0.576416015625, 0.079833984375
157, 3530662046, -6.684250354766846, 1.8285905122756958, 7.059699535369873, -2.530445098876953, -1.4558897018432617, -2.380021333694458, 1.10498046875, -0.5771484375, 0.078857421875
158, 3530678713, -6.69467830657959, 1.8331639766693115, 7.02488374710083, -2.581350326538086, -1.5360064506530762, -2.343959093093872, 1.10546875, -0.5771484375, 0.078857421875
159, 3530695380, -6.69955587387085, 1.8263752460479736, 7.042275428771973, -2.495112419128418, -1.4829368591308594, -2.3080241680145264, 1.10400390625, -0.57666015625, 0.078369140625
160, 3530712047, -6.703044891357422, 1.8307511806488037, 7.055538177490234, -2.43371844291687, -1.5304354429244995, -2.2927207946777344, 1.1044921875, -0.57763671875, 0.077392578125
161, 3530728714, -6.69713830947876, 1.8332850933074951, 7.0510573387146, -2.5114023685455322, -1.5357248783111572, -2.3133134841918945, 1.10498046875, -0.57763671875, 0.079833984375
162, 3530745381, -6.70350980758667, 1.847296118736267, 7.078609466552734, -2.5508711338043213, -1.6123836040496826, -2.2541868686676025, 1.10595703125, -0.57958984375, 0.079833984375
163, 3530762048, -6.694271564483643, 1.852056860923767, 7.059464931488037, -2.5225179195404053, -1.653504729270935, -2.301621437072754, 1.10400390625, -0.576416015625, 0.080810546875
164, 3530778715, -6.692529201507568, 1.8309597969055176, 7.0421881675720215, -2.5170881748199463, -1.5164639949798584, -2.3183977603912354, 1.1044921875, -0.576416015625, 0.078857421875
165, 3530795382, -6.698737144470215, 1.8426357507705688, 7.035749435424805, -2.44416880607605, -1.4863307476043701, -2.2945265769958496, 1.1044921875, -0.5771484375, 0.081298828125
166, 3530812049, -6.702657699584961, 1.8209013938903809, 7.032066345214844, -2.3978354930877686, -1.5104578733444214, -2.273613929748535, 1.10546875, -0.57666015625, 0.080810546875
167, 3530828716, -6.70859956741333, 1.8307338953018188, 7.039467811584473, -2.506535768508911, -1.5920727252960205, -2.2674412727355957, 1.10595703125, -0.578125, 0.079345703125
168, 3530845383, -6.702763557434082, 1.8464421033859253, 7.051971912384033, -2.4943184852600098, -1.5449323654174805, -2.262651205062866, 1.10498046875, -0.578125, 0.081298828125
169, 3530862050, -6.708970546722412, 1.8254703283309937, 7.047585487365723, -2.3834025859832764, -1.540360450744629, -2.228804349899292, 1.10546875, -0.576416015625, 0.076904296875
170, 3530878717, -6.704404354095459, 1.8375658988952637, 7.044929504394531, -2.422346591949463, -1.611128568649292, -2.2832443714141846, 1.1064453125, -0.5791015625, 0.079833984375
171, 3530895384, -6.689135551452637, 1.8342301845550537, 7.0583930015563965, -2.442824125289917, -1.5151193141937256, -2.2913763523101807, 1.1064453125, -0.57958984375, 0.078857421875
172, 3530912051, -6.698464870452881, 1.8403998613357544, 7.02907657623291, -2.463775157928467, -1.5811232328414917, -2.2531747817993164, 1.10498046875, -0.57763671875, 0.077880859375
173, 3530928718, -6.69435453414917, 1.8309910297393799, 7.035806179046631, -2.4088361263275146, -1.5529109239578247, -2.1906158924102783, 1.1044921875, -0.5791015625, 0.078857421875
174, 3530945385, -6.698014736175537, 1.8300453424453735, 7.049825191497803, -2.4654269218444824, -1.5222523212432861, -2.2747278213500977, 1.1044921875, -0.578125, 0.079833984375
175, 3530962052, -6.700129985809326, 1.8264926671981812, 7.048212051391602, -2.3926103115081787, -1.5688291788101196, -2.2164719104766846, 1.1044921875, -0.5771484375, 0.079833984375
176, 3530978719, -6.704493045806885, 1.8386399745941162, 7.047268867492676, -2.425804615020752, -1.5419358015060425, -2.157946825027466, 1.10302734375, -0.578125, 0.078369140625
177, 3530995386, -6.6994194984436035, 1.8387502431869507, 7.0383758544921875, -2.492551326751709, -1.5282329320907593, -2.209005832672119, 1.1064453125, -0.578125, 0.078369140625
178, 3531012053, -6.692710876464844, 1.8484805822372437, 7.0404582023620605, -2.500567674636841, -1.5137618780136108, -2.2572216987609863, 1.10546875, -0.57763671875, 0.077392578125
179, 3531028720, -6.692345142364502, 1.842468023300171, 7.051745414733887, -2.4252541065216064, -1.5889095067977905, -2.247565746307373, 1.1064453125, -0.57861328125, 0.079345703125
180, 3531045387, -6.707099437713623, 1.8429205417633057, 7.035843849182129, -2.425471544265747, -1.4473224878311157, -2.3565094470977783, 1.10546875, -0.57666015625, 0.079345703125
181, 3531062054, -6.687432289123535, 1.8404492139816284, 7.0621657371521, -2.407705545425415, -1.5279364585876465, -2.247354030609131, 1.10400390625, -0.578125, 0.079833984375
182, 3531078721, -6.70133113861084, 1.827399730682373, 7.0610270500183105, -2.491488218307495, -1.469567060470581, -2.399256944656372, 1.102783203125, -0.576171875, 0.077880859375
183, 3531095388, -6.6904754638671875, 1.8385839462280273, 7.018013000488281, -2.4855332374572754, -1.4697847366333008, -2.320472240447998, 1.10498046875, -0.57763671875, 0.078369140625
184, 3531112055, -6.695736885070801, 1.8231861591339111, 7.038800239562988, -2.4767098426818848, -1.5822629928588867, -2.2917861938476562, 1.108642578125, -0.57666015625, 0.078369140625
185, 3531128722, -6.6991801261901855, 1.8361955881118774, 7.04517126083374, -2.3713390827178955, -1.5924313068389893, -2.2452094554901123, 1.10693359375, -0.575927734375, 0.076904296875
186, 3531145389, -6.71242618560791, 1.8300362825393677, 7.046721935272217, -2.4829463958740234, -1.5082423686981201, -2.2363476753234863, 1.10498046875, -0.57763671875, 0.077392578125
187, 3531162056, -6.696285247802734, 1.8289741277694702, 7.0363898277282715, -2.395517349243164, -1.6144835948944092, -2.2820916175842285, 1.103515625, -0.5791015625, 0.080810546875
188, 3531178723, -6.6957292556762695, 1.837646722793579, 7.056076526641846, -2.4064667224884033, -1.7002990245819092, -2.258502244949341, 1.10546875, -0.578125, 0.077392578125
189, 3531195390, -6.707785129547119, 1.842457890510559, 7.045872688293457, -2.3846449851989746, -1.5981940031051636, -2.1460368633270264, 1.10498046875, -0.575927734375, 0.07666015625
190, 3531212057, -6.701387882232666, 1.8442811965942383, 7.036314964294434, -2.4162378311157227, -1.6757876873016357, -2.182227611541748, 1.1064453125, -0.57861328125, 0.078369140625
191, 3531228724, -6.700263977050781, 1.8402327299118042, 7.040727138519287, -2.323366641998291, -1.6333091259002686, -2.1753506660461426, 1.10400390625, -0.57763671875, 0.079833984375
192, 3531245391, -6.68614387512207, 1.8188437223434448, 7.050349712371826, -2.352372646331787, -1.6208356618881226, -2.1990549564361572, 1.10400390625, -0.57763671875, 0.079345703125
193, 3531262058, -6.689355373382568, 1.842210292816162, 7.047433853149414, -2.2566709518432617, -1.4410600662231445, -2.0949904918670654, 1.10498046875, -0.5771484375, 0.077392578125
194, 3531278725, -6.701143264770508, 1.8383187055587769, 7.03825044631958, -2.3982067108154297, -1.4622929096221924, -2.1661810874938965, 1.103515625, -0.578125, 0.078369140625
195, 3531295392, -6.71506404876709, 1.82487952709198, 7.040854454040527, -2.4142019748687744, -1.508267879486084, -2.212885856628418, 1.10302734375, -0.57861328125, 0.080810546875
196, 3531312059, -6.707610607147217, 1.8265035152435303, 7.026144504547119, -2.4289419651031494, -1.5689572095870972, -2.1902315616607666, 1.107666015625, -0.580078125, 0.079833984375
197, 3531328726, -6.705198287963867, 1.826940655708313, 7.040942668914795, -2.4121015071868896, -1.6351020336151123, -2.2018086910247803, 1.10693359375, -0.576416015625, 0.079345703125
198, 3531345393, -6.695693016052246, 1.837557315826416, 7.05958890914917, -2.4379448890686035, -1.6858280897140503, -2.1350362300872803, 1.10400390625, -0.57861328125, 0.079833984375
199, 3531362060, -6.685436248779297, 1.8297934532165527, 7.0669732093811035, -2.389434337615967, -1.6813713312149048, -2.1678717136383057, 1.10400390625, -0.5771484375, 0.081298828125
200, 3531378727, -6.698090553283691, 1.8386614322662354, 7.052428722381592, -2.4186971187591553, -1.5998718738555908, -2.1495330333709717, 1.10693359375, -0.57958984375, 0.08203125
201, 3531395394, -6.698311805725098, 1.8496577739715576, 7.037631988525391, -2.4473319053649902, -1.5632200241088867, -2.2328639030456543, 1.10400390625, -0.576171875, 0.077392578125
202, 3531412061, -6.70298433303833, 1.8374052047729492, 7.03687858581543, -2.468475103378296, -1.4630485773086548, -2.1789236068725586, 1.10546875, -0.5791015625, 0.078857421875
203, 3531428728, -6.689759254455566, 1.8449740409851074, 7.041595935821533, -2.4930636882781982, -1.5353277921676636, -2.167205810546875, 1.1044921875, -0.578125, 0.078857421875
204, 3531445395, -6.700182914733887, 1.8371907472610474, 7.05397367477417, -2.3963496685028076, -1.6045715808868408, -2.1945345401763916, 1.1044921875, -0.57763671875, 0.078857421875
205, 3531462062, -6.7086286544799805, 1.8244585990905762, 7.066252708435059, -2.425023317337036, -1.6491121053695679, -2.2023978233337402, 1.10498046875, -0.578125, 0.077880859375
206, 3531478729, -6.695261478424072, 1.8244779109954834, 7.036753177642822, -2.3978354930877686, -1.6326559782028198, -2.2366933822631836, 1.10302734375, -0.57861328125, 0.077392578125
207, 3531495396, -6.70314884185791, 1.8372547626495361, 7.033149719238281, -2.36857271194458, -1.6719459295272827, -2.2173044681549072, 1.10595703125, -0.5791015625, 0.078369140625
208, 3531512063, -6.694471836090088, 1.8351205587387085, 7.045506000518799, -2.384158134460449, -1.6775422096252441, -2.170318126678467, 1.10595703125, -0.57666015625, 0.079345703125
209, 3531528730, -6.6930060386657715, 1.8323849439620972, 7.031125068664551, -2.4479336738586426, -1.6708186864852905, -2.181074857711792, 1.1064453125, -0.57861328125, 0.078857421875
210, 3531545397, -6.700650215148926, 1.846221685409546, 7.022201061248779, -2.434781789779663, -1.7196239233016968, -2.195521116256714, 1.1044921875, -0.57763671875, 0.079833984375
211, 3531562064, -6.691450119018555, 1.834366798400879, 7.04097318649292, -2.42968487739563, -1.626009464263916, -2.2455549240112305, 1.1064453125, -0.5771484375, 0.078857421875
212, 3531578731, -6.700299263000488, 1.8372125625610352, 7.044070243835449, -2.3650896549224854, -1.555548906326294, -2.2590274810791016, 1.10302734375, -0.578125, 0.080810546875
213, 3531595398, -6.7017974853515625, 1.8255795240402222, 7.03666877746582, -2.4242630004882812, -1.45198655128479, -2.283440113067627, 1.10302734375, -0.57666015625, 0.078857421875
214, 3531612065, -6.697702407836914, 1.8203279972076416, 7.062124729156494, -2.311354160308838, -1.4670953750610352, -2.265110492706299, 1.103515625, -0.57861328125, 0.0771484375
215, 3531628732, -6.698502063751221, 1.8387110233306885, 7.043350696563721, -2.4561426639556885, -1.517859935760498, -2.211106300354004, 1.10400390625, -0.576416015625, 0.079345703125
216, 3531645399, -6.703791618347168, 1.8443759679794312, 7.042548656463623, -2.4162893295288086, -1.553999423980713, -2.2136034965515137, 1.1044921875, -0.57861328125, 0.078857421875
217, 3531662066, -6.700479984283447, 1.84386146068573, 7.065600872039795, -2.4254841804504395, -1.577332615852356, -2.279402256011963, 1.1044921875, -0.57861328125, 0.077880859375
218, 3531678733, -6.703506946563721, 1.8181025981903076, 7.050372123718262, -2.422295570373535, -1.5388495922088623, -2.265289783477783, 1.10302734375, -0.57666015625, 0.0771484375
219, 3531695400, -6.6950602531433105, 1.8268814086914062, 7.044051647186279, -2.428737163543701, -1.5729016065597534, -2.224104404449463, 1.1044921875, -0.576416015625, 0.077392578125
220, 3531712067, -6.701168537139893, 1.820801854133606, 7.045835494995117, -2.394646644592285, -1.5896395444869995, -2.2228877544403076, 1.10546875, -0.57763671875, 0.077392578125
221, 3531728734, -6.6932806968688965, 1.8327068090438843, 7.040969371795654, -2.4272263050079346, -1.5749762058258057, -2.1659510135650635, 1.1044921875, -0.578125, 0.080810546875
222, 3531745401, -6.716420650482178, 1.8388277292251587, 7.053212642669678, -2.4424142837524414, -1.646794319152832, -2.269925594329834, 1.10546875, -0.578125, 0.077880859375
223, 3531762068, -6.7004523277282715, 1.8387244939804077, 7.0362396240234375, -2.4008705615997314, -1.606428623199463, -2.2722818851470947, 1.10546875, -0.57861328125, 0.077880859375
224, 3531778735, -6.695822715759277, 1.8485491275787354, 7.058170318603516, -2.4072225093841553, -1.6083368062973022, -2.188835859298706, 1.10595703125, -0.57763671875, 0.078857421875
225, 3531795402, -6.701808452606201, 1.8342760801315308, 7.048150062561035, -2.4324891567230225, -1.5303971767425537, -2.2453372478485107, 1.10498046875, -0.57666015625, 0.079833984375
226, 3531812069, -6.691398620605469, 1.843371868133545, 7.0473952293396, -2.503641366958618, -1.570980429649353, -2.286688804626465, 1.1044921875, -0.5771484375, 0.079833984375
227, 3531828736, -6.692980766296387, 1.8343775272369385, 7.0697340965271, -2.5180227756500244, -1.649073600769043, -2.2204670906066895, 1.10546875, -0.57666015625, 0.079833984375
228, 3531845403, -6.6832780838012695, 1.8431293964385986, 7.055102825164795, -2.3677661418914795, -1.6016517877578735, -2.182368516921997, 1.103515625, -0.578125, 0.079833984375
229, 3531862070, -6.691774368286133, 1.8286552429199219, 7.0693745613098145, -2.4394946098327637, -1.5401942729949951, -2.2472071647644043, 1.10302734375, -0.57958984375, 0.078369140625
230, 3531878737, -6.698198318481445, 1.845111608505249, 7.049698352813721, -2.448061466217041, -1.4736137390136719, -2.1712779998779297, 1.10400390625, -0.5771484375, 0.080322265625
231, 3531895404, -6.6843791007995605, 1.8423566818237305, 7.043136119842529, -2.5102367401123047, -1.5699944496154785, -2.2687602043151855, 1.10595703125, -0.580078125, 0.080322265625
232, 3531912071, -6.688157558441162, 1.8297948837280273, 7.05487060546875, -2.4735209941864014, -1.6224365234375, -2.3221499919891357, 1.1025390625, -0.57763671875, 0.080322265625
233, 3531928738, -6.685267925262451, 1.8229178190231323, 7.052650451660156, -2.3614652156829834, -1.57985520362854, -2.1251368522644043, 1.1044921875, -0.578125, 0.079833984375
234, 3531945405, -6.6871256828308105, 1.82136070728302, 7.039870738983154, -2.384516716003418, -1.7463505268096924, -2.1713550090789795, 1.1044921875, -0.5791015625, 0.078369140625
235, 3531962072, -6.687417030334473, 1.8315314054489136, 7.043951988220215, -2.3784468173980713, -1.6938704252243042, -2.1374053955078125, 1.10400390625, -0.578125, 0.079345703125
236, 3531978739, -6.696913719177246, 1.844036340713501, 7.058276176452637, -2.399308204650879, -1.6098735332489014, -2.2163569927215576, 1.1044921875, -0.5771484375, 0.079345703125
237, 3531995406, -6.6838579177856445, 1.8404487371444702, 7.033149719238281, -2.4306840896606445, -1.5357887744903564, -2.1485729217529297, 1.10546875, -0.57666015625, 0.079833984375
238, 3532012073, -6.699742317199707, 1.8295406103134155, 7.038755416870117, -2.45505428314209, -1.4579261541366577, -2.2335045337677, 1.10498046875, -0.578125, 0.080810546875
239, 3532028740, -6.692168712615967, 1.8303959369659424, 7.041903972625732, -2.273357391357422, -1.601498007774353, -2.214294672012329, 1.1044921875, -0.57763671875, 0.081787109375
240, 3532045407, -6.696073055267334, 1.8315938711166382, 7.0515456199646, -2.3613245487213135, -1.507858157157898, -2.1654129028320312, 1.10595703125, -0.578125, 0.077392578125
241, 3532062074, -6.699610233306885, 1.8425248861312866, 7.03689432144165, -2.396926164627075, -1.550656795501709, -2.1883487701416016, 1.10400390625, -0.58154296875, 0.078857421875
242, 3532078741, -6.695572853088379, 1.8455605506896973, 7.039078235626221, -2.335775852203369, -1.6110260486602783, -2.0965018272399902, 1.101806640625, -0.5771484375, 0.078125
243, 3532095408, -6.7024617195129395, 1.8315191268920898, 7.049753189086914, -2.319882869720459, -1.5776270627975464, -2.0979106426239014, 1.1044921875, -0.57861328125, 0.077880859375
244, 3532112075, -6.693481922149658, 1.8431601524353027, 7.064336776733398, -2.2594168186187744, -1.5452367067337036, -2.0866949558258057, 1.10546875, -0.578125, 0.079345703125
245, 3532128742, -6.704965114593506, 1.81992506980896, 7.043221950531006, -2.2537379264831543, -1.5972589254379272, -2.129990339279175, 1.10498046875, -0.578125, 0.078857421875
246, 3532145409, -6.690823078155518, 1.8162120580673218, 7.036680698394775, -2.3196909427642822, -1.6333345174789429, -2.043931484222412, 1.103515625, -0.57763671875, 0.079345703125
247, 3532162076, -6.69886589050293, 1.8393648862838745, 7.050436019897461, -2.2866506576538086, -1.5105985403060913, -2.0032973289489746, 1.10498046875, -0.57861328125, 0.078857421875
248, 3532178743, -6.69093656539917, 1.842211365699768, 7.055025577545166, -2.2793381214141846, -1.555408000946045, -2.047248601913452, 1.10400390625, -0.57958984375, 0.080810546875
249, 3532195410, -6.690634250640869, 1.8332046270370483, 7.035675048828125, -2.232351779937744, -1.538081169128418, -1.9445031881332397, 1.1044921875, -0.580078125, 0.080322265625
250, 3532212077, -6.689797878265381, 1.8378236293792725, 7.050209045410156, -2.2715389728546143, -1.5477626323699951, -1.984932780265808, 1.10693359375, -0.580078125, 0.080322265625
251, 3532228744, -6.683116912841797, 1.8426378965377808, 7.042314052581787, -2.224271059036255, -1.598065972328186, -2.0445592403411865, 1.1064453125, -0.57861328125, 0.080810546875
252, 3532245411, -6.688804626464844, 1.8420138359069824, 7.038237571716309, -2.2488722801208496, -1.4898780584335327, -2.0181143283843994, 1.10498046875, -0.5791015625, 0.079345703125
253, 3532262078, -6.704949855804443, 1.8397140502929688, 7.050764560699463, -2.2745227813720703, -1.5277719497680664, -2.1213204860687256, 1.10595703125, -0.57861328125, 0.078857421875
254, 3532278745, -6.685715675354004, 1.8449828624725342, 7.047599792480469, -2.2305843830108643, -1.4627667665481567, -2.1445255279541016, 1.10546875, -0.57958984375, 0.076416015625
255, 3532295412, -6.684473514556885, 1.8403548002243042, 7.031960487365723, -2.407529830932617, -1.622449278831482, -2.1872990131378174, 1.10400390625, -0.5791015625, 0.077392578125
256, 3532312079, -6.690152168273926, 1.8321294784545898, 7.0610222816467285, -2.451404571533203, -1.5982069969177246, -2.2285993099212646, 1.10546875, -0.57861328125, 0.080810546875
257, 3532328746, -6.687436103820801, 1.8347489833831787, 7.040106296539307, -2.4229230880737305, -1.6509051322937012, -2.138660430908203, 1.10595703125, -0.57763671875, 0.076904296875
258, 3532345413, -6.694397449493408, 1.8193495273590088, 7.048332214355469, -2.3073196411132812, -1.5999484062194824, -2.124573230743408, 1.10205078125, -0.57958984375, 0.07763671875
259, 3532362080, -6.696953773498535, 1.841694712638855, 7.055443286895752, -2.3048229217529297, -1.545828938484192, -2.078291416168213, 1.1025390625, -0.57958984375, 0.078857421875
260, 3532378747, -6.684749603271484, 1.8487224578857422, 7.031191349029541, -2.321009874343872, -1.5601974725723267, -2.0954902172088623, 1.10205078125, -0.57958984375, 0.078369140625
261, 3532395414, -6.693042278289795, 1.8536244630813599, 7.0452117919921875, -2.3218421936035156, -1.4904797077178955, -2.1339216232299805, 1.10595703125, -0.57861328125, 0.076904296875
262, 3532412081, -6.688544273376465, 1.8557448387145996, 7.047413349151611, -2.381852865219116, -1.5157467126846313, -2.1206932067871094, 1.10546875, -0.58056640625, 0.078857421875
263, 3532428748, -6.679450511932373, 1.8560374975204468, 7.0758161544799805, -2.305002212524414, -1.6171345710754395, -2.182227849960327, 1.1044921875, -0.57958984375, 0.080322265625
264, 3532445415, -6.69510555267334, 1.8337392807006836, 7.060910701751709, -2.316143751144409, -1.5049382448196411, -2.0506937503814697, 1.10498046875, -0.57958984375, 0.078369140625
265, 3532462082, -6.683387756347656, 1.8533679246902466, 7.053190231323242, -2.3222014904022217, -1.5156059265136719, -2.180908679962158, 1.10498046875, -0.58056640625, 0.079833984375
266, 3532478749, -6.691196918487549, 1.8498729467391968, 7.04026985168457, -2.3892934322357178, -1.5257997512817383, -2.189680814743042, 1.103515625, -0.57666015625, 0.077880859375
267, 3532495416, -6.694147109985352, 1.8597739934921265, 7.059357166290283, -2.399820327758789, -1.4995596408843994, -2.1689090728759766, 1.10498046875, -0.580078125, 0.079833984375
268, 3532512083, -6.694526195526123, 1.8571257591247559, 7.026658535003662, -2.4580893516540527, -1.5578413009643555, -2.1941888332366943, 1.10546875, -0.58056640625, 0.0810546875
269, 3532528750, -6.698715686798096, 1.843933343887329, 7.042023181915283, -2.44071102142334, -1.5918934345245361, -2.201462745666504, 1.107421875, -0.5791015625, 0.079833984375
270, 3532545417, -6.6904826164245605, 1.849863052368164, 7.046823978424072, -2.4640953540802, -1.5812256336212158, -2.295102834701538, 1.10595703125, -0.58056640625, 0.079345703125
271, 3532562084, -6.707037925720215, 1.844150185585022, 7.069189548492432, -2.468424081802368, -1.678016185760498, -2.2002463340759277, 1.1064453125, -0.57861328125, 0.076904296875
272, 3532578751, -6.700501441955566, 1.853150725364685, 7.048432350158691, -2.479809045791626, -1.6000511646270752, -2.238562822341919, 1.10302734375, -0.5791015625, 0.079345703125
273, 3532595418, -6.687478065490723, 1.8408745527267456, 7.0639777183532715, -2.4690258502960205, -1.5640908479690552, -2.233440399169922, 1.103515625, -0.57958984375, 0.079345703125
274, 3532612085, -6.704716205596924, 1.8463771343231201, 7.040337562561035, -2.443835973739624, -1.618556261062622, -2.2480783462524414, 1.1064453125, -0.580078125, 0.080810546875
275, 3532628752, -6.686504364013672, 1.8593459129333496, 7.029093265533447, -2.4970970153808594, -1.5189225673675537, -2.3063080310821533, 1.107666015625, -0.57861328125, 0.080322265625
276, 3532645419, -6.700136661529541, 1.848169207572937, 7.019803047180176, -2.421241283416748, -1.5583752393722534, -2.22613525390625, 1.10595703125, -0.57763671875, 0.077392578125
277, 3532662086, -6.695982456207275, 1.8434226512908936, 7.049769401550293, -2.5089304447174072, -1.5323309898376465, -2.278582811355591, 1.10498046875, -0.58154296875, 0.078369140625
278, 3532678753, -6.690908908843994, 1.833588719367981, 7.049099922180176, -2.4588449001312256, -1.5105730295181274, -2.257746696472168, 1.1044921875, -0.578125, 0.078857421875
279, 3532695420, -6.696383476257324, 1.826485514640808, 7.042169570922852, -2.4128313064575195, -1.5102399587631226, -2.262843370437622, 1.10498046875, -0.57958984375, 0.077392578125
280, 3532712087, -6.703110694885254, 1.854249119758606, 7.049081802368164, -2.4577434062957764, -1.491081714630127, -2.2551472187042236, 1.10693359375, -0.58154296875, 0.077392578125
281, 3532728754, -6.691361427307129, 1.8383806943893433, 7.038630962371826, -2.4366002082824707, -1.4546349048614502, -2.321010112762451, 1.10498046875, -0.580078125, 0.079833984375
282, 3532745421, -6.708226203918457, 1.8440321683883667, 7.027065753936768, -2.3766026496887207, -1.517270803451538, -2.2256031036376953, 1.1044921875, -0.57861328125, 0.080322265625
283, 3532762088, -6.686440944671631, 1.8524748086929321, 7.032578468322754, -2.4503672122955322, -1.4868171215057373, -2.263125419616699, 1.10546875, -0.5791015625, 0.079833984375
284, 3532778755, -6.696030616760254, 1.8383928537368774, 7.040055274963379, -2.4065182209014893, -1.4941809177398682, -2.263740062713623, 1.1025390625, -0.5791015625, 0.079345703125
285, 3532795422, -6.70775032043457, 1.8491891622543335, 7.0494771003723145, -2.3828134536743164, -1.5205490589141846, -2.2373080253601074, 1.1044921875, -0.57763671875, 0.077880859375
286, 3532812089, -6.690147399902344, 1.8565373420715332, 7.043649196624756, -2.456603765487671, -1.5042850971221924, -2.279517650604248, 1.10498046875, -0.57861328125, 0.079833984375
287, 3532828756, -6.689840316772461, 1.8414607048034668, 7.047448635101318, -2.4660677909851074, -1.659830927848816, -2.2807469367980957, 1.1064453125, -0.5791015625, 0.077880859375
288, 3532845423, -6.699306011199951, 1.8484128713607788, 7.045817852020264, -2.5397040843963623, -1.572158932685852, -2.2031660079956055, 1.103515625, -0.57861328125, 0.078857421875
289, 3532862090, -6.698763847351074, 1.8392212390899658, 7.042673110961914, -2.472381114959717, -1.5840176343917847, -2.296114444732666, 1.10400390625, -0.580078125, 0.080810546875
290, 3532878757, -6.687258720397949, 1.8417744636535645, 7.062558650970459, -2.3702375888824463, -1.5525907278060913, -2.272115468978882, 1.10400390625, -0.57861328125, 0.078857421875
291, 3532895424, -6.6963934898376465, 1.8467987775802612, 7.058199405670166, -2.478374481201172, -1.521151065826416, -2.3200368881225586, 1.10302734375, -0.5791015625, 0.078369140625
292, 3532912091, -6.693333625793457, 1.8505171537399292, 7.041520595550537, -2.4742510318756104, -1.5713520050048828, -2.316528081893921, 1.10595703125, -0.57861328125, 0.079833984375
293, 3532928758, -6.6972975730896, 1.8311817646026611, 7.056672096252441, -2.4656190872192383, -1.507986068725586, -2.3012499809265137, 1.10498046875, -0.57958984375, 0.080322265625
294, 3532945425, -6.696808815002441, 1.8552381992340088, 7.063358783721924, -2.4110772609710693, -1.5728119611740112, -2.2952821254730225, 1.1044921875, -0.5791015625, 0.079345703125
295, 3532962092, -6.688050270080566, 1.8449769020080566, 7.04039192199707, -2.518035888671875, -1.5995774269104004, -2.4025228023529053, 1.10546875, -0.57861328125, 0.079833984375
296, 3532978759, -6.689043045043945, 1.8415859937667847, 7.0476508140563965, -2.437458038330078, -1.5015060901641846, -2.240675926208496, 1.10595703125, -0.57958984375, 0.080322265625
297, 3532995426, -6.692824840545654, 1.8554556369781494, 7.035490036010742, -2.489285469055176, -1.571134328842163, -2.278749465942383, 1.10400390625, -0.578125, 0.080810546875
298, 3533012093, -6.704209804534912, 1.827651023864746, 7.027774810791016, -2.4687440395355225, -1.5578795671463013, -2.2870473861694336, 1.1044921875, -0.5771484375, 0.078369140625
299, 3533028760, -6.695441722869873, 1.8305193185806274, 7.066728115081787, -2.429582118988037, -1.5567398071289062, -2.282270908355713, 1.10400390625, -0.578125, 0.076171875
300, 3533045427, -6.685139179229736, 1.834052324295044, 7.0610551834106445, -2.438188314437866, -1.4885717630386353, -2.251702070236206, 1.1064453125, -0.578125, 0.080322265625
301, 3533062094, -6.693151473999023, 1.8381556272506714, 7.067323207855225, -2.428391218185425, -1.4424047470092773, -2.283512830734253, 1.10302734375, -0.5771484375, 0.081787109375
302, 3533078761, -6.694417953491211, 1.8389923572540283, 7.059159278869629, -2.5326480865478516, -1.4848322868347168, -2.352590799331665, 1.1025390625, -0.57763671875, 0.077880859375
303, 3533095428, -6.693205833435059, 1.8415138721466064, 7.05590295791626, -2.513925075531006, -1.5170657634735107, -2.302248954772949, 1.1064453125, -0.57958984375, 0.078369140625
304, 3533112095, -6.702409744262695, 1.8222723007202148, 7.042480945587158, -2.557748556137085, -1.457682728767395, -2.3261709213256836, 1.1044921875, -0.57763671875, 0.079345703125
305, 3533128762, -6.696876049041748, 1.8420592546463013, 7.0454535484313965, -2.482203722000122, -1.4218251705169678, -2.3000717163085938, 1.10498046875, -0.578125, 0.080322265625
306, 3533145429, -6.692070960998535, 1.8520900011062622, 7.063315391540527, -2.482280731201172, -1.504682183265686, -2.4264447689056396, 1.1044921875, -0.57861328125, 0.080810546875
307, 3533162096, -6.703756809234619, 1.8429208993911743, 7.042171478271484, -2.555443286895752, -1.5183322429656982, -2.3722853660583496, 1.103515625, -0.57666015625, 0.079833984375
308, 3533178763, -6.694650173187256, 1.8467941284179688, 7.056779861450195, -2.5927610397338867, -1.4906977415084839, -2.3726582527160645, 1.10302734375, -0.57763671875, 0.079833984375
309, 3533195430, -6.697880744934082, 1.841958999633789, 7.061959743499756, -2.4450266361236572, -1.3803452253341675, -2.392315626144409, 1.10498046875, -0.58056640625, 0.08203125
310, 3533212097, -6.69640588760376, 1.8161336183547974, 7.048637866973877, -2.4767093658447266, -1.310012698173523, -2.3435747623443604, 1.10546875, -0.580078125, 0.079345703125
311, 3533228764, -6.70631742477417, 1.8419774770736694, 7.029345512390137, -2.4051477909088135, -1.4991496801376343, -2.3307044506073, 1.1064453125, -0.57763671875, 0.078857421875
312, 3533245431, -6.70069694519043, 1.8373485803604126, 7.058111667633057, -2.449547290802002, -1.5347769260406494, -2.3711211681365967, 1.1025390625, -0.57763671875, 0.080810546875
313, 3533262098, -6.706216335296631, 1.8280565738677979, 7.040567874908447, -2.4545419216156006, -1.5132625102996826, -2.323225736618042, 1.10595703125, -0.58154296875, 0.079345703125
314, 3533278765, -6.714587211608887, 1.8250842094421387, 7.046609401702881, -2.456974983215332, -1.5677919387817383, -2.3632071018218994, 1.1044921875, -0.57763671875, 0.079345703125
315, 3533295432, -6.696755886077881, 1.8345606327056885, 7.029764652252197, -2.4405064582824707, -1.5073843002319336, -2.329129457473755, 1.10546875, -0.57763671875, 0.079833984375
316, 3533312099, -6.693263053894043, 1.840052604675293, 7.025303363800049, -2.4888503551483154, -1.5288094282150269, -2.3346362113952637, 1.1044921875, -0.5771484375, 0.078857421875
317, 3533328766, -6.705046653747559, 1.8310742378234863, 7.055960178375244, -2.4957783222198486, -1.5574185848236084, -2.412139892578125, 1.1044921875, -0.57958984375, 0.080322265625
318, 3533345433, -6.70514440536499, 1.835231900215149, 7.057511806488037, -2.4528260231018066, -1.633629560470581, -2.4234225749969482, 1.10400390625, -0.57861328125, 0.08203125
319, 3533362100, -6.699522495269775, 1.8359096050262451, 7.041006565093994, -2.4707932472229004, -1.5386446714401245, -2.3138513565063477, 1.10498046875, -0.578125, 0.080322265625
320, 3533378767, -6.7122321128845215, 1.8434829711914062, 7.022314071655273, -2.4895927906036377, -1.5203442573547363, -2.295909881591797, 1.1025390625, -0.57861328125, 0.080322265625
321, 3533395434, -6.701524257659912, 1.8380602598190308, 7.059062957763672, -2.44681978225708, -1.4886486530303955, -2.3112006187438965, 1.10400390625, -0.576171875, 0.078857421875
322, 3533412101, -6.692887783050537, 1.836801528930664, 7.037292957305908, -2.5065996646881104, -1.5153881311416626, -2.2529313564300537, 1.1064453125, -0.57763671875, 0.080322265625
323, 3533428768, -6.6985650062561035, 1.8387491703033447, 7.0364155769348145, -2.496854066848755, -1.5205107927322388, -2.2784674167633057, 1.10693359375, -0.578125, 0.078857421875
324, 3533445435, -6.687326431274414, 1.8178187608718872, 7.044886112213135, -2.519418954849243, -1.5709037780761719, -2.293220281600952, 1.10400390625, -0.57763671875, 0.077392578125
325, 3533462102, -6.701923370361328, 1.8177251815795898, 7.035310745239258, -2.474417209625244, -1.5411931276321411, -2.327387571334839, 1.10498046875, -0.57666015625, 0.078857421875
326, 3533478769, -6.7043890953063965, 1.8173125982284546, 7.046699047088623, -2.4225900173187256, -1.5431139469146729, -2.291158676147461, 1.10498046875, -0.5791015625, 0.078857421875
327, 3533495436, -6.712937831878662, 1.840384840965271, 7.060647010803223, -2.381648063659668, -1.520037055015564, -2.213334321975708, 1.10498046875, -0.57763671875, 0.079833984375
328, 3533512103, -6.714485168457031, 1.8423748016357422, 7.027934551239014, -2.404968500137329, -1.5836716890335083, -2.260871410369873, 1.1064453125, -0.5771484375, 0.080322265625
329, 3533528770, -6.706667900085449, 1.8449738025665283, 7.045964241027832, -2.440263032913208, -1.7080854177474976, -2.160085678100586, 1.10791015625, -0.57763671875, 0.079833984375
330, 3533545437, -6.706131458282471, 1.84541916847229, 7.041429042816162, -2.410334348678589, -1.617147445678711, -2.2426862716674805, 1.10595703125, -0.57861328125, 0.078369140625
331, 3533562104, -6.697922229766846, 1.8286226987838745, 7.057661056518555, -2.433013916015625, -1.5359166860580444, -2.2448248863220215, 1.10595703125, -0.57861328125, 0.079345703125
332, 3533578771, -6.703508377075195, 1.8423963785171509, 7.049984455108643, -2.36556339263916, -1.589652419090271, -2.2352590560913086, 1.10400390625, -0.57958984375, 0.081298828125
333, 3533595438, -6.702709197998047, 1.832427978515625, 7.052875995635986, -2.426598310470581, -1.5294238328933716, -2.299687623977661, 1.10546875, -0.57861328125, 0.08203125
334, 3533612105, -6.703132629394531, 1.8285620212554932, 7.0455780029296875, -2.436164617538452, -1.5547292232513428, -2.24187970161438, 1.1064453125, -0.5791015625, 0.079345703125
335, 3533628772, -6.707697868347168, 1.8567534685134888, 7.04509162902832, -2.3903439044952393, -1.6282378435134888, -2.1871583461761475, 1.107421875, -0.5771484375, 0.079833984375
336, 3533645439, -6.705597400665283, 1.8369890451431274, 7.022822856903076, -2.469486951828003, -1.583082675933838, -2.238652467727661, 1.10400390625, -0.57763671875, 0.078857421875
337, 3533662106, -6.691618919372559, 1.8305201530456543, 7.0407586097717285, -2.4621872901916504, -1.5956199169158936, -2.196148157119751, 1.103515625, -0.578125, 0.079345703125
338, 3533678773, -6.696018695831299, 1.8397727012634277, 7.051331043243408, -2.4524929523468018, -1.4597702026367188, -2.280900716781616, 1.107421875, -0.5771484375, 0.080322265625
339, 3533695440, -6.706058025360107, 1.8455582857131958, 7.031094551086426, -2.435685396194458, -1.559873342514038, -2.2624261379241943, 1.10693359375, -0.57861328125, 0.078369140625
340, 3533712107, -6.706052780151367, 1.838357925415039, 7.050342082977295, -2.4166224002838135, -1.5589426755905151, -2.1722517013549805, 1.10546875, -0.57861328125, 0.080322265625
341, 3533728774, -6.711941242218018, 1.815777063369751, 7.04835319519043, -2.4539527893066406, -1.687198281288147, -2.228125810623169, 1.10693359375, -0.578125, 0.076904296875
342, 3533745441, -6.693976879119873, 1.8087918758392334, 7.055851936340332, -2.4517247676849365, -1.6790279150009155, -2.1471896171569824, 1.10546875, -0.5791015625, 0.078369140625
343, 3533762108, -6.704954624176025, 1.8347066640853882, 7.05096435546875, -2.4344871044158936, -1.758644700050354, -2.0119543075561523, 1.1044921875, -0.5771484375, 0.079833984375
344, 3533778775, -6.693927764892578, 1.854848027229309, 7.051640033721924, -2.4736876487731934, -1.7306758165359497, -2.1361887454986572, 1.10400390625, -0.5791015625, 0.078857421875
345, 3533795442, -6.7017083168029785, 1.8289272785186768, 7.043275833129883, -2.4211044311523438, -1.7390896081924438, -2.1613664627075195, 1.102294921875, -0.578125, 0.078857421875
346, 3533812109, -6.696405410766602, 1.8442870378494263, 7.036510944366455, -2.3501570224761963, -1.6502388715744019, -2.161980628967285, 1.10595703125, -0.5791015625, 0.077880859375
347, 3533828776, -6.696895122528076, 1.8352975845336914, 7.0382890701293945, -2.39335298538208, -1.6796166896820068, -2.0653183460235596, 1.1044921875, -0.57763671875, 0.079345703125
348, 3533845443, -6.696396827697754, 1.8481544256210327, 7.046421527862549, -2.3550753593444824, -1.68317711353302, -2.119361400604248, 1.10400390625, -0.5791015625, 0.080810546875
349, 3533862110, -6.697975158691406, 1.8108543157577515, 7.036062717437744, -2.332458972930908, -1.6822550296783447, -2.0630645751953125, 1.10400390625, -0.57763671875, 0.080322265625
350, 3533878777, -6.709258079528809, 1.8376410007476807, 7.067259788513184, -2.3380038738250732, -1.7096091508865356, -2.0090343952178955, 1.10400390625, -0.5771484375, 0.078857421875
351, 3533895444, -6.7106032371521, 1.8483601808547974, 7.079916954040527, -2.427213191986084, -1.7560707330703735, -2.151082754135132, 1.1044921875, -0.5771484375, 0.079345703125
352, 3533912111, -6.6920247077941895, 1.8388954401016235, 7.041038990020752, -2.3075246810913086, -1.6904125213623047, -2.233055830001831, 1.10546875, -0.57763671875, 0.076904296875
353, 3533928778, -6.68289852142334, 1.8468657732009888, 7.035198211669922, -2.4316186904907227, -1.6249465942382812, -2.255352020263672, 1.10498046875, -0.57763671875, 0.078369140625
354, 3533945445, -6.707289695739746, 1.821161150932312, 7.045535564422607, -2.551165819168091, -1.6789253950119019, -2.2444026470184326, 1.10546875, -0.5791015625, 0.079833984375
355, 3533962112, -6.69271183013916, 1.834973692893982, 7.043872833251953, -2.491257905960083, -1.648510217666626, -2.292375326156616, 1.10400390625, -0.580078125, 0.080810546875
356, 3533978779, -6.706583023071289, 1.8304591178894043, 7.0738844871521, -2.5026297569274902, -1.6531846523284912, -2.2109782695770264, 1.1044921875, -0.57958984375, 0.079833984375
357, 3533995446, -6.687650203704834, 1.835078239440918, 7.078927040100098, -2.441505193710327, -1.6792583465576172, -2.187452554702759, 1.10595703125, -0.5791015625, 0.078369140625
358, 3534012113, -6.689326286315918, 1.84601891040802, 7.055537700653076, -2.436971664428711, -1.6111925840377808, -2.184648275375366, 1.10693359375, -0.57666015625, 0.077880859375
359, 3534028780, -6.687084197998047, 1.8447239398956299, 7.030537128448486, -2.457167148590088, -1.6501623392105103, -2.2057788372039795, 1.103515625, -0.57861328125, 0.079345703125
360, 3534045447, -6.710957050323486, 1.8440912961959839, 7.03623628616333, -2.393186569213867, -1.675467610359192, -2.1927030086517334, 1.10400390625, -0.57861328125, 0.07666015625
361, 3534062114, -6.689850330352783, 1.8527120351791382, 7.037883758544922, -2.499812364578247, -1.6533511877059937, -2.188784599304199, 1.103515625, -0.576171875, 0.07763671875
362, 3534078781, -6.696623802185059, 1.8282610177993774, 7.051379680633545, -2.461892604827881, -1.7486941814422607, -2.165374279022217, 1.10400390625, -0.5771484375, 0.077880859375
363, 3534095448, -6.7015814781188965, 1.8305697441101074, 7.036152362823486, -2.373490571975708, -1.623268961906433, -2.1763367652893066, 1.1044921875, -0.576171875, 0.0771484375
364, 3534112115, -6.69394063949585, 1.8359671831130981, 7.044859409332275, -2.3877952098846436, -1.6673481464385986, -2.1651949882507324, 1.10693359375, -0.57861328125, 0.079345703125
365, 3534128782, -6.68156099319458, 1.8345001935958862, 7.045952320098877, -2.544391393661499, -1.6225903034210205, -2.341782331466675, 1.1064453125, -0.5771484375, 0.077880859375
366, 3534145449, -6.694863319396973, 1.8397573232650757, 7.0872273445129395, -2.5774314403533936, -1.5591986179351807, -2.3208563327789307, 1.10595703125, -0.576416015625, 0.076904296875
367, 3534162116, -6.697170734405518, 1.8354393243789673, 7.045562267303467, -2.577611207962036, -1.561683177947998, -2.307729959487915, 1.108154296875, -0.57861328125, 0.078857421875
368, 3534178783, -6.700419902801514, 1.8412573337554932, 7.075390338897705, -2.501439094543457, -1.5688163042068481, -2.3369922637939453, 1.1025390625, -0.578125, 0.081298828125
369, 3534195450, -6.683073997497559, 1.8382551670074463, 7.065152168273926, -2.454759359359741, -1.5535639524459839, -2.3376708030700684, 1.10302734375, -0.5810546875, 0.079345703125
370, 3534212117, -6.690059185028076, 1.8459711074829102, 7.069149971008301, -2.4457380771636963, -1.5114171504974365, -2.295656681060791, 1.1044921875, -0.57861328125, 0.077880859375
371, 3534228784, -6.697689056396484, 1.8305044174194336, 7.068403244018555, -2.4754416942596436, -1.4860105514526367, -2.3253259658813477, 1.10546875, -0.57861328125, 0.077880859375
372, 3534245451, -6.690161228179932, 1.8268029689788818, 7.051023483276367, -2.5461456775665283, -1.5423967838287354, -2.3415515422821045, 1.10302734375, -0.57666015625, 0.079833984375
373, 3534262118, -6.695027828216553, 1.8424512147903442, 7.059833526611328, -2.5867161750793457, -1.5166431665420532, -2.390202760696411, 1.1044921875, -0.57861328125, 0.079345703125
374, 3534278785, -6.700828552246094, 1.8382524251937866, 7.068930149078369, -2.5525872707366943, -1.4914660453796387, -2.3849010467529297, 1.1025390625, -0.578125, 0.0771484375
375, 3534295452, -6.682583808898926, 1.8211569786071777, 7.04978084564209, -2.5547902584075928, -1.543818473815918, -2.3723254203796387, 1.10400390625, -0.57666015625, 0.078857421875
376, 3534312119, -6.699337959289551, 1.8322439193725586, 7.054718017578125, -2.4374966621398926, -1.5536664724349976, -2.3641932010650635, 1.10546875, -0.578125, 0.080322265625
377, 3534328786, -6.683585166931152, 1.8246711492538452, 7.050990581512451, -2.5687239170074463, -1.5004048347473145, -2.385977029800415, 1.1064453125, -0.57666015625, 0.076904296875
378, 3534345453, -6.683168411254883, 1.8347223997116089, 7.0498504638671875, -2.486109495162964, -1.5595957040786743, -2.3024024963378906, 1.10400390625, -0.576171875, 0.078369140625
379, 3534362120, -6.7086334228515625, 1.8343132734298706, 7.039400577545166, -2.5315847396850586, -1.5931099653244019, -2.334085464477539, 1.1044921875, -0.575927734375, 0.078857421875
380, 3534378787, -6.697819709777832, 1.832287311553955, 7.06483793258667, -2.4911043643951416, -1.613254427909851, -2.3070127964019775, 1.103515625, -0.578125, 0.079833984375
381, 3534395454, -6.699345588684082, 1.844116449356079, 7.065160751342773, -2.5287675857543945, -1.5749634504318237, -2.241521120071411, 1.10498046875, -0.5771484375, 0.079345703125
382, 3534412121, -6.690779209136963, 1.839473009109497, 7.042065143585205, -2.5200719833374023, -1.6229360103607178, -2.319204568862915, 1.10595703125, -0.578125, 0.077880859375
383, 3534428788, -6.694793701171875, 1.84266197681427, 7.059231281280518, -2.630706548690796, -1.549555778503418, -2.3366212844848633, 1.10400390625, -0.57763671875, 0.078857421875
384, 3534445455, -6.686755180358887, 1.827366828918457, 7.06203031539917, -2.643986701965332, -1.5567659139633179, -2.3261971473693848, 1.103515625, -0.57861328125, 0.078857421875
385, 3534462122, -6.694514274597168, 1.8268564939498901, 7.027012348175049, -2.604811906814575, -1.6027661561965942, -2.3853752613067627, 1.10400390625, -0.575439453125, 0.07763671875
386, 3534478789, -6.689090251922607, 1.8147001266479492, 7.072772979736328, -2.5600922107696533, -1.692910075187683, -2.430619955062866, 1.10595703125, -0.57666015625, 0.078857421875
387, 3534495456, -6.6802873611450195, 1.8250693082809448, 7.073665618896484, -2.5896620750427246, -1.589806079864502, -2.4075045585632324, 1.10498046875, -0.578125, 0.079833984375
388, 3534512123, -6.695651531219482, 1.8183701038360596, 7.0567402839660645, -2.6775898933410645, -1.5179238319396973, -2.4536709785461426, 1.10498046875, -0.576416015625, 0.079345703125
389, 3534528790, -6.708563327789307, 1.8281760215759277, 7.050509452819824, -2.677654504776001, -1.417202115058899, -2.5325841903686523, 1.10546875, -0.57666015625, 0.081298828125
390, 3534545457, -6.682154178619385, 1.821152687072754, 7.054910182952881, -2.6843008995056152, -1.3570122718811035, -2.4743406772613525, 1.10498046875, -0.57666015625, 0.080322265625
391, 3534562124, -6.690282344818115, 1.8227568864822388, 7.018024921417236, -2.754300355911255, -1.413552165031433, -2.5893805027008057, 1.102783203125, -0.576171875, 0.079833984375
392, 3534578791, -6.711946964263916, 1.8080341815948486, 7.0425705909729, -2.700744390487671, -1.4182651042938232, -2.5279738903045654, 1.103515625, -0.575439453125, 0.077880859375
393, 3534595458, -6.697818756103516, 1.8198087215423584, 7.042936325073242, -2.6974403858184814, -1.4491796493530273, -2.526270627975464, 1.1044921875, -0.5771484375, 0.079345703125
394, 3534612125, -6.71743106842041, 1.8120452165603638, 7.036749839782715, -2.6688692569732666, -1.4757273197174072, -2.4542477130889893, 1.1044921875, -0.57763671875, 0.080322265625
395, 3534628792, -6.701809406280518, 1.825863003730774, 7.048810958862305, -2.5956809520721436, -1.5017112493515015, -2.3981175422668457, 1.10498046875, -0.578125, 0.077392578125
396, 3534645459, -6.695102214813232, 1.8222661018371582, 7.035168170928955, -2.574435234069824, -1.601779818534851, -2.352782726287842, 1.10400390625, -0.574951171875, 0.080322265625
397, 3534662126, -6.699549674987793, 1.8148057460784912, 7.051988124847412, -2.5053703784942627, -1.5978995561599731, -2.3400914669036865, 1.103271484375, -0.575439453125, 0.081298828125
398, 3534678793, -6.708047389984131, 1.806797981262207, 7.057042598724365, -2.5285239219665527, -1.5436515808105469, -2.298022508621216, 1.10546875, -0.57666015625, 0.079833984375
399, 3534695460, -6.696052074432373, 1.82075035572052, 7.053431510925293, -2.514014720916748, -1.4916707277297974, -2.283257007598877, 1.10498046875, -0.575439453125, 0.077392578125
400, 3534712127, -6.686326026916504, 1.8254567384719849, 7.04657506942749, -2.4259192943573, -1.522559642791748, -2.3672406673431396, 1.1044921875, -0.5771484375, 0.078857421875
401, 3534728794, -6.698383331298828, 1.82307767868042, 7.052684783935547, -2.4722073078155518, -1.494936466217041, -2.310946464538574, 1.1044921875, -0.57666015625, 0.077880859375
402, 3534745461, -6.700775146484375, 1.8054420948028564, 7.059528350830078, -2.411064386367798, -1.5482876300811768, -2.245094060897827, 1.103271484375, -0.575439453125, 0.077880859375
403, 3534762128, -6.71151876449585, 1.8138295412063599, 7.057258129119873, -2.4716897010803223, -1.4971520900726318, -2.31946063041687, 1.102294921875, -0.576171875, 0.081298828125
404, 3534778795, -6.704895973205566, 1.8318463563919067, 7.054811477661133, -2.620640754699707, -1.588231086730957, -2.371800422668457, 1.10546875, -0.574462890625, 0.078369140625
405, 3534795462, -6.6952223777771, 1.823133111000061, 7.035344123840332, -2.649275302886963, -1.5841071605682373, -2.398808717727661, 1.103515625, -0.57763671875, 0.080322265625
406, 3534812129, -6.696335315704346, 1.8196696043014526, 7.0563178062438965, -2.616785764694214, -1.638367772102356, -2.469013214111328, 1.10791015625, -0.575927734375, 0.079345703125
407, 3534828796, -6.70196533203125, 1.8062665462493896, 7.044877052307129, -2.54580020904541, -1.486189842224121, -2.4632887840270996, 1.10400390625, -0.576416015625, 0.079345703125
408, 3534845463, -6.687100410461426, 1.8166155815124512, 7.050413131713867, -2.522480010986328, -1.5060269832611084, -2.457500696182251, 1.10400390625, -0.57666015625, 0.079833984375
409, 3534862130, -6.707462310791016, 1.8090554475784302, 7.042125701904297, -2.6017894744873047, -1.356307864189148, -2.4574618339538574, 1.10498046875, -0.57763671875, 0.080810546875
410, 3534878797, -6.682462692260742, 1.7999751567840576, 7.065634250640869, -2.532097339630127, -1.4268836975097656, -2.2603976726531982, 1.103759765625, -0.573974609375, 0.078125
411, 3534895464, -6.7078423500061035, 1.8364688158035278, 7.038794040679932, -2.6127007007598877, -1.591829538345337, -2.497584342956543, 1.1044921875, -0.57666015625, 0.079833984375
412, 3534912131, -6.704103946685791, 1.8024120330810547, 7.061125755310059, -2.5597589015960693, -1.6520835161209106, -2.4642367362976074, 1.10595703125, -0.575927734375, 0.078857421875
413, 3534928798, -6.6960768699646, 1.819471001625061, 7.04985237121582, -2.538986921310425, -1.6402374505996704, -2.3609275817871094, 1.10546875, -0.57666015625, 0.079345703125
414, 3534945465, -6.70798397064209, 1.7956465482711792, 7.051392555236816, -2.5534963607788086, -1.677900791168213, -2.2653536796569824, 1.10498046875, -0.57666015625, 0.078857421875
415, 3534962132, -6.705390930175781, 1.817198634147644, 7.053454875946045, -2.6073219776153564, -1.689093828201294, -2.331383466720581, 1.102783203125, -0.574462890625, 0.07763671875
416, 3534978799, -6.695192337036133, 1.8163352012634277, 7.044620513916016, -2.6743505001068115, -1.8886935710906982, -2.355395555496216, 1.10546875, -0.574951171875, 0.080322265625
417, 3534995466, -6.71826696395874, 1.804577112197876, 7.05853796005249, -2.7041499614715576, -1.9519948959350586, -2.348914861679077, 1.10546875, -0.574462890625, 0.077880859375
418, 3535012133, -6.697850227355957, 1.8052226305007935, 7.053342819213867, -2.6294643878936768, -2.030984878540039, -2.294987678527832, 1.10498046875, -0.575927734375, 0.076171875
419, 3535028800, -6.70107364654541, 1.8167057037353516, 7.042100429534912, -2.7199532985687256, -2.246156930923462, -2.3372867107391357, 1.10498046875, -0.573974609375, 0.077880859375
420, 3535045467, -6.701418399810791, 1.7969911098480225, 7.07222843170166, -2.583411931991577, -2.278172731399536, -2.1994903087615967, 1.10546875, -0.574462890625, 0.0771484375
421, 3535062134, -6.695259094238281, 1.7659372091293335, 7.072545051574707, -2.4942805767059326, -2.286804676055908, -2.0581984519958496, 1.1064453125, -0.576416015625, 0.077880859375
422, 3535078801, -6.682007312774658, 1.8146638870239258, 7.050631046295166, -2.4092459678649902, -2.208109140396118, -1.77068293094635, 1.10400390625, -0.574462890625, 0.07763671875
423, 3535095468, -6.668941020965576, 1.7991878986358643, 7.074760437011719, -2.430478811264038, -2.2824885845184326, -1.7867933511734009, 1.103271484375, -0.576171875, 0.0771484375
424, 3535112135, -6.68789005279541, 1.7882779836654663, 7.026404857635498, -2.3998842239379883, -2.373656988143921, -1.6908866167068481, 1.1064453125, -0.574462890625, 0.077392578125
425, 3535128802, -6.714052677154541, 1.7688515186309814, 7.052525997161865, -2.321087121963501, -2.7500360012054443, -1.416011095046997, 1.10595703125, -0.57666015625, 0.077392578125
426, 3535145469, -6.680737495422363, 1.8426048755645752, 7.066452980041504, -2.1997854709625244, -2.785445213317871, -1.4314556121826172, 1.103515625, -0.576171875, 0.07568359375
427, 3535162136, -6.654748916625977, 1.8146209716796875, 7.087909698486328, -1.8793060779571533, -2.59167218208313, -1.543497920036316, 1.103271484375, -0.575439453125, 0.0751953125
428, 3535178803, -6.700501918792725, 1.7309300899505615, 7.0918049812316895, -1.0557554960250854, -2.3398101329803467, -1.0060796737670898, 1.102783203125, -0.576171875, 0.076171875
429, 3535195470, -6.663007736206055, 1.8308345079421997, 7.08578634262085, -1.016503930091858, -2.4241905212402344, -0.6268323659896851, 1.101806640625, -0.5791015625, 0.0771484375
430, 3535212137, -6.682984828948975, 1.7613033056259155, 7.074886798858643, -1.0698553323745728, -2.480372190475464, -0.348050981760025, 1.10498046875, -0.57763671875, 0.0751953125
431, 3535228804, -6.709139347076416, 1.8293606042861938, 7.036417007446289, -1.4314552545547485, -2.4967257976531982, -0.4144006669521332, 1.10498046875, -0.57861328125, 0.07470703125
432, 3535245471, -6.6663947105407715, 1.9275211095809937, 7.092432022094727, -1.6220906972885132, -2.785752296447754, -0.577873706817627, 1.100830078125, -0.57958984375, 0.076171875
433, 3535262138, -6.6443190574646, 1.9395464658737183, 7.0755391120910645, -2.293428659439087, -2.845733404159546, -1.423980951309204, 1.101806640625, -0.57958984375, 0.0751953125
434, 3535278805, -6.642796993255615, 1.876216173171997, 7.077807903289795, -2.368317127227783, -2.6092944145202637, -1.897632360458374, 1.102294921875, -0.5771484375, 0.07421875
435, 3535295472, -6.665098190307617, 1.8614546060562134, 7.0868072509765625, -1.9116930961608887, -1.840451717376709, -1.956477165222168, 1.101318359375, -0.5791015625, 0.0751953125
436, 3535312139, -6.651259899139404, 1.8830868005752563, 7.090599536895752, -2.0667145252227783, -2.002208948135376, -2.124112367630005, 1.103515625, -0.57861328125, 0.0732421875
437, 3535328806, -6.655300140380859, 1.827730417251587, 7.1084675788879395, -2.334303379058838, -1.8396835327148438, -2.1600215435028076, 1.103515625, -0.580078125, 0.07568359375
438, 3535345473, -6.6700239181518555, 1.8788745403289795, 7.080846309661865, -2.4898107051849365, -1.8521441221237183, -2.1754915714263916, 1.10546875, -0.5791015625, 0.07666015625
439, 3535362140, -6.652380466461182, 1.8645111322402954, 7.0842108726501465, -2.627133369445801, -1.7511405944824219, -2.3474299907684326, 1.10302734375, -0.582275390625, 0.072021484375
440, 3535378807, -6.637796401977539, 1.8745310306549072, 7.096739768981934, -2.4833433628082275, -1.2781122922897339, -2.5335826873779297, 1.101806640625, -0.57861328125, 0.0751953125
441, 3535395474, -6.624775409698486, 1.8719922304153442, 7.106259822845459, -2.4413514137268066, 4.2901269625872374E-4, -2.7779150009155273, 1.10400390625, -0.57958984375, 0.07470703125
442, 3535412141, -6.625865459442139, 1.8854584693908691, 7.133354187011719, -2.401279926300049, 2.461514711380005, -3.494839906692505, 1.10400390625, -0.578125, 0.07470703125
443, 3535428808, -6.622654438018799, 1.8258748054504395, 7.158252239227295, -2.4606893062591553, 6.163280963897705, -3.8798506259918213, 1.1044921875, -0.57861328125, 0.076171875
444, 3535445475, -6.591697692871094, 1.9343913793563843, 6.953680515289307, -1.776497483253479, 9.915902137756348, -4.502701282501221, 1.1044921875, -0.5771484375, 0.079833984375
445, 3535462142, -6.568583011627197, 1.2726651430130005, 7.167497158050537, 1.1970553398132324, 15.801979064941406, -4.458957195281982, 1.10546875, -0.575927734375, 0.08349609375
446, 3535478809, -6.453989505767822, 1.5400947332382202, 7.472169399261475, 6.713562488555908, 27.359737396240234, -3.466778516769409, 1.110107421875, -0.578125, 0.08984375
447, 3535495476, -6.006557464599609, 0.34998923540115356, 8.164730072021484, 9.929452896118164, 47.06515884399414, -3.676194906234741, 1.11376953125, -0.580078125, 0.1005859375
448, 3535512143, -2.865388870239258, 0.5942432284355164, 12.03012752532959, 8.259126663208008, 76.37310791015625, 13.000009536743164, 1.12548828125, -0.584228515625, 0.115966796875
449, 3535528810, 4.192596435546875, -10.38764762878418, 25.27330207824707, -124.0073471069336, 103.7729263305664, 46.01070785522461, 1.136962890625, -0.583984375, 0.143310546875
450, 3535545477, 4.6960835456848145, -20.915456771850586, 29.65564727783203, -118.4791259765625, 66.93994903564453, 60.67808151245117, 1.14306640625, -0.586181640625, 0.160888671875
451, 3535562144, -3.1933445930480957, -22.07065200805664, 33.31684494018555, -70.28292083740234, -12.278966903686523, -20.60967254638672, 1.14404296875, -0.580322265625, 0.1640625
452, 3535578811, -7.13379430770874, -19.60092544555664, 32.098812103271484, -20.71175193786621, -139.9801788330078, -107.65531921386719, 1.132568359375, -0.565673828125, 0.138916015625
453, 3535595478, -6.446097373962402, -14.43655014038086, 26.928287506103516, 30.975543975830078, -218.62892150878906, -157.7615966796875, 1.111328125, -0.537109375, 0.085693359375
454, 3535612145, -8.658796310424805, -8.438008308410645, 23.26232147216797, 42.8885612487793, -241.67788696289062, -172.56402587890625, 1.079345703125, -0.51318359375, 0.03076171875
455, 3535628812, -11.115811347961426, -4.442529201507568, 20.452138900756836, 14.663787841796875, -237.16696166992188, -164.4098358154297, 1.048095703125, -0.484619140625, -0.027587890625
456, 3535645479, -12.632369041442871, -2.8295063972473145, 18.310029983520508, -20.313161849975586, -212.24984741210938, -154.1929473876953, 1.009521484375, -0.453125, -0.07861328125
457, 3535662146, -14.968221664428711, -2.0108401775360107, 17.664098739624023, -29.339385986328125, -184.67953491210938, -149.61288452148438, 0.976806640625, -0.422607421875, -0.11865234375
458, 3535678813, -19.771520614624023, -0.05077642574906349, 18.119945526123047, -10.251056671142578, -193.96397399902344, -137.44931030273438, 0.935302734375, -0.3935546875, -0.1572265625
459, 3535695480, -20.213197708129883, 2.763123035430908, 16.343427658081055, -12.862444877624512, -241.30039978027344, -123.0713882446289, 0.885986328125, -0.36962890625, -0.203857421875
460, 3535712147, -16.00359535217285, 4.964101314544678, 12.021858215332031, -46.25218200683594, -270.7579040527344, -122.17768859863281, 0.820556640625, -0.344482421875, -0.24951171875
461, 3535728814, -13.833084106445312, 4.833277225494385, 8.773259162902832, -65.26052856445312, -258.93341064453125, -128.6722412109375, 0.751953125, -0.3134765625, -0.283203125
462, 3535745481, -14.905864715576172, 5.140359401702881, 7.221944332122803, -37.016807556152344, -234.90708923339844, -119.3395767211914, 0.68505859375, -0.2880859375, -0.3125
463, 3535762148, -16.394092559814453, 8.142267227172852, 5.113924980163574, -7.778864860534668, -223.99807739257812, -116.05491638183594, 0.617919921875, -0.2724609375, -0.33544921875
464, 3535778815, -20.54471778869629, 10.574934959411621, 0.9046740531921387, 16.49898910522461, -234.08041381835938, -128.70310974121094, 0.54931640625, -0.2685546875, -0.35498046875
465, 3535795482, -23.022998809814453, 8.739187240600586, -7.252041816711426, 77.59988403320312, -249.40850830078125, -138.5821075439453, 0.471923828125, -0.2744140625, -0.371826171875
466, 3535812149, -22.980072021484375, 9.46608829498291, -18.263187408447266, 161.69569396972656, -231.16619873046875, -128.80909729003906, 0.39990234375, -0.3095703125, -0.393798828125
467, 3535828816, -21.51296615600586, 10.689570426940918, -28.761568069458008, 157.70089721679688, -154.03292846679688, -107.76384735107422, 0.34033203125, -0.353759765625, -0.408447265625
468, 3535845483, -19.167316436767578, 11.528624534606934, -30.32729721069336, 64.94638061523438, -15.684255599975586, -72.42481231689453, 0.32177734375, -0.381103515625, -0.412841796875
469, 3535862150, -19.736635208129883, 11.067721366882324, -21.979835510253906, -22.091283798217773, 93.72058868408203, -15.605534553527832, 0.336181640625, -0.37744140625, -0.412109375
470, 3535878817, -19.133014678955078, 10.614831924438477, -13.86120319366455, -65.69119262695312, 146.1949462890625, 55.30660629272461, 0.376220703125, -0.364501953125, -0.40625
471, 3535895484, -18.26616096496582, 8.588448524475098, -8.674914360046387, -99.07221984863281, 184.53350830078125, 104.6034164428711, 0.43212890625, -0.34375, -0.396728515625
472, 3535912151, -17.7794132232666, 5.580899238586426, -4.569177627563477, -101.64933013916016, 218.92835998535156, 131.50856018066406, 0.4970703125, -0.322021484375, -0.380126953125
473, 3535928818, -17.92963218688965, 4.09751033782959, 0.058806777000427246, -73.99034881591797, 244.3966064453125, 136.0062255859375, 0.572021484375, -0.31103515625, -0.356201171875
474, 3535945485, -18.200950622558594, 3.624521017074585, 4.55721378326416, -36.572566986083984, 251.31295776367188, 124.41529846191406, 0.645751953125, -0.310791015625, -0.328857421875
475, 3535962152, -18.117250442504883, 3.2553110122680664, 8.142725944519043, 2.338573694229126, 248.79180908203125, 108.96479797363281, 0.718017578125, -0.32373046875, -0.297607421875
476, 3535978819, -18.17814826965332, 4.079996585845947, 11.673768997192383, 39.11822509765625, 242.92567443847656, 87.86631774902344, 0.78369140625, -0.343994140625, -0.26171875
477, 3535995486, -17.70242691040039, 4.303153038024902, 14.676669120788574, 66.25514221191406, 232.6712188720703, 71.62370300292969, 0.84130859375, -0.369384765625, -0.227783203125
478, 3536012153, -15.80750846862793, 3.202249526977539, 16.39482879638672, 93.45238494873047, 237.7439422607422, 71.15327453613281, 0.8935546875, -0.39990234375, -0.1884765625
479, 3536028820, -14.914820671081543, 3.491594076156616, 19.036808013916016, 99.36474609375, 250.28834533691406, 80.6839370727539, 0.9443359375, -0.433837890625, -0.140869140625
480, 3536045487, -11.1678466796875, 2.260143995285034, 21.78616714477539, 76.70320892333984, 259.852294921875, 102.96041107177734, 0.992919921875, -0.465576171875, -0.090576171875
481, 3536062154, -7.326306343078613, -1.0275325775146484, 26.895742416381836, 45.71339797973633, 267.9065246582031, 127.41239929199219, 1.035888671875, -0.49658203125, -0.032958984375
482, 3536078821, -4.309298515319824, -4.952998638153076, 31.602603912353516, 17.739288330078125, 235.46099853515625, 146.02842712402344, 1.07177734375, -0.529052734375, 0.0263671875
483, 3536095488, -2.537853240966797, -9.204730033874512, 32.27497100830078, -5.650492191314697, 161.2394561767578, 148.6958770751953, 1.097900390625, -0.5576171875, 0.067138671875
484, 3536112155, -2.0549793243408203, -12.491158485412598, 28.434900283813477, -10.212028503417969, 86.0797119140625, 126.68525695800781, 1.110595703125, -0.584716796875, 0.0908203125
485, 3536128822, -2.2421653270721436, -12.14571475982666, 23.703916549682617, 3.781859874725342, 43.69395446777344, 86.7437515258789, 1.11376953125, -0.606689453125, 0.10400390625
486, 3536145489, -1.9456790685653687, -7.921057224273682, 18.78768539428711, 10.136468887329102, 17.153791427612305, 43.76353073120117, 1.116455078125, -0.616455078125, 0.108154296875
487, 3536162156, -0.2836962342262268, -5.99905252456665, 14.16213607788086, 25.62042999267578, 20.946544647216797, 24.9211483001709, 1.12060546875, -0.62353515625, 0.113525390625
488, 3536178823, -0.28930243849754333, -3.3513002395629883, 11.62706184387207, 23.25439453125, 48.968318939208984, 26.006296157836914, 1.123779296875, -0.629638671875, 0.122802734375
489, 3536195490, -5.65131139755249, 0.7275352478027344, 18.63673973083496, -129.75392150878906, 41.077571868896484, -25.219018936157227, 1.13330078125, -0.617431640625, 0.13330078125
490, 3536212157, -7.221803665161133, -14.70533561706543, 20.690637588500977, -177.46571350097656, -4.90443754196167, -35.455360412597656, 1.13427734375, -0.584716796875, 0.133544921875
491, 3536228824, -2.4094204902648926, -1.1781309843063354, 11.83665943145752, -31.305465698242188, -51.48065948486328, -21.35790252685547, 1.12646484375, -0.573974609375, 0.1162109375
492, 3536245491, -9.122135162353516, 4.094144344329834, 4.561389923095703, -22.61518669128418, -31.503110885620117, -3.724452257156372, 1.12646484375, -0.57080078125, 0.11328125
493, 3536262158, -7.277090549468994, 2.2096972465515137, 7.313530921936035, -18.016517639160156, -48.93350601196289, 0.11774911731481552, 1.11962890625, -0.568359375, 0.1015625
494, 3536278825, -6.495674133300781, 2.3446671962738037, 7.336421966552734, -16.257232666015625, -40.13064193725586, -4.268909454345703, 1.113525390625, -0.566162109375, 0.089111328125
495, 3536295492, -6.587954998016357, 1.7671592235565186, 7.150171756744385, -13.0734224319458, -28.992755889892578, -6.064507484436035, 1.109375, -0.565185546875, 0.08447265625
496, 3536312159, -6.619365692138672, 1.3651058673858643, 7.24772834777832, -9.560227394104004, -19.781723022460938, -4.661264896392822, 1.107177734375, -0.561279296875, 0.079345703125
497, 3536328826, -6.599100589752197, 1.1837714910507202, 7.335334777832031, -4.685806751251221, -10.945822715759277, -1.5980026721954346, 1.104248046875, -0.562744140625, 0.074951171875
498, 3536345493, -6.639611721038818, 1.2316135168075562, 7.262636661529541, 1.7152376174926758, -1.7270642518997192, 2.476485252380371, 1.105224609375, -0.561767578125, 0.07568359375
499, 3536362160, -6.770981311798096, 1.5548802614212036, 7.105654716491699, 5.056095123291016, 1.2292497158050537, 5.526574611663818, 1.104248046875, -0.562744140625, 0.074951171875
500, 3536378827, -6.760500431060791, 1.8319125175476074, 7.050477981567383, 5.34813117980957, 0.6445245146751404, 6.135914325714111, 1.102783203125, -0.56787109375, 0.074462890625
501, 3536395494, -6.725688934326172, 1.927238941192627, 7.133746147155762, 5.441951274871826, 1.2942805290222168, 4.883235454559326, 1.103759765625, -0.571044921875, 0.07666015625
502, 3536412161, -6.797261714935303, 1.9135178327560425, 7.050589084625244, 6.387763977050781, 3.0080392360687256, 3.253857135772705, 1.10693359375, -0.573974609375, 0.078369140625
503, 3536428828, -6.8018269538879395, 1.8962905406951904, 7.019676208496094, 5.862703323364258, 1.4155950546264648, 2.234471321105957, 1.1044921875, -0.575439453125, 0.080322265625
504, 3536445495, -6.858518123626709, 1.616129755973816, 7.084900379180908, 7.478519439697266, 0.9337174892425537, 2.5866847038269043, 1.10791015625, -0.57763671875, 0.0810546875
505, 3536462162, -6.801812648773193, 1.7545583248138428, 7.037550449371338, 9.648954391479492, 0.735757052898407, 4.752137660980225, 1.107177734375, -0.58056640625, 0.0810546875
506, 3536478829, -6.708505630493164, 2.02860689163208, 6.9897050857543945, 8.709659576416016, 0.0748339369893074, 5.19373893737793, 1.106201171875, -0.586669921875, 0.07958984375
507, 3536495496, -6.7622294425964355, 2.04998517036438, 6.863940238952637, 8.6792573928833, -1.2713764905929565, 5.6604156494140625, 1.108642578125, -0.587158203125, 0.08251953125
508, 3536512163, -6.6896514892578125, 2.115755796432495, 6.968222141265869, 8.06611442565918, -2.8097269535064697, 5.655714988708496, 1.107666015625, -0.5908203125, 0.08251953125
509, 3536528830, -6.655688762664795, 2.1443116664886475, 6.9063401222229, 7.508821487426758, -3.774327516555786, 5.450532913208008, 1.105712890625, -0.594970703125, 0.08251953125
510, 3536545497, -6.623126029968262, 2.1726417541503906, 6.893560409545898, 4.694174289703369, -4.1945414543151855, 4.150160789489746, 1.106689453125, -0.595947265625, 0.08203125
511, 3536562164, -6.67668342590332, 2.175244092941284, 7.009918212890625, 3.3252527713775635, -3.8772640228271484, 3.056203842163086, 1.10595703125, -0.5986328125, 0.080078125
512, 3536578831, -6.837732791900635, 1.9716362953186035, 7.0651397705078125, 7.304544925689697, -4.187382698059082, 4.4629435539245605, 1.104248046875, -0.6015625, 0.0810546875
513, 3536595498, -6.537653923034668, 2.336195230484009, 6.934868812561035, 6.581254959106445, -4.5003437995910645, 4.178437232971191, 1.1064453125, -0.603271484375, 0.0791015625
514, 3536612165, -6.573455810546875, 2.3167264461517334, 6.905211925506592, 3.6120636463165283, -3.6854634284973145, 2.1596438884735107, 1.10400390625, -0.606201171875, 0.0791015625
515, 3536628832, -6.502292633056641, 2.3970162868499756, 6.902265548706055, 0.30711546540260315, -3.243950843811035, 0.3017880320549011, 1.10546875, -0.606201171875, 0.0791015625
516, 3536645499, -6.502103328704834, 2.3385608196258545, 6.943560600280762, -2.5485663414001465, -1.9711920022964478, -1.9634181261062622, 1.1025390625, -0.6083984375, 0.07958984375
517, 3536662166, -6.595580577850342, 2.3194780349731445, 6.926474571228027, -4.3088884353637695, -1.1091835498809814, -3.646057367324829, 1.103515625, -0.605712890625, 0.080078125
518, 3536678833, -6.704931735992432, 2.1466147899627686, 7.016234874725342, -4.2984137535095215, -1.0456513166427612, -3.5453484058380127, 1.10302734375, -0.60888671875, 0.078125
519, 3536695500, -6.709190845489502, 2.129462957382202, 7.01770544052124, -3.212101697921753, -1.4795175790786743, -2.6611595153808594, 1.1044921875, -0.605712890625, 0.08056640625
520, 3536712167, -6.647767066955566, 2.2373569011688232, 6.985596656799316, -2.9257383346557617, -1.6711516380310059, -2.3855152130126953, 1.10498046875, -0.607177734375, 0.07861328125
521, 3536728834, -6.638343334197998, 2.1609034538269043, 7.013698577880859, -2.9286391735076904, -1.7158395051956177, -2.511613130569458, 1.107421875, -0.608154296875, 0.07861328125
522, 3536745501, -6.674023151397705, 2.1725852489471436, 6.984090328216553, -2.1568453311920166, -1.457541823387146, -1.991003394126892, 1.103515625, -0.607177734375, 0.078125
523, 3536762168, -6.602055072784424, 2.2384066581726074, 6.96347188949585, -2.762765407562256, -1.6221294403076172, -2.3806238174438477, 1.10498046875, -0.606689453125, 0.07958984375
524, 3536778835, -6.580164432525635, 2.326666831970215, 6.950408458709717, -4.542053699493408, -1.4455807209014893, -3.837909460067749, 1.103515625, -0.605224609375, 0.08056640625
525, 3536795502, -6.56452751159668, 2.287175178527832, 6.914811611175537, -6.746129989624023, -1.7507435083389282, -5.620106220245361, 1.103271484375, -0.604736328125, 0.07861328125
526, 3536812169, -6.63352632522583, 2.233639717102051, 6.997465133666992, -8.603719711303711, -1.7305740118026733, -6.954273223876953, 1.104736328125, -0.60205078125, 0.080078125
527, 3536828836, -6.652520656585693, 2.1556336879730225, 6.99915075302124, -9.652058601379395, -2.142861843109131, -7.610246181488037, 1.1064453125, -0.60009765625, 0.078125
528, 3536845503, -6.69252347946167, 2.09014630317688, 7.017445087432861, -9.124299049377441, -2.6972107887268066, -7.124316692352295, 1.104736328125, -0.599609375, 0.07958984375
529, 3536862170, -6.676194667816162, 2.0948243141174316, 6.978166103363037, -8.640511512756348, -3.148186206817627, -6.288061141967773, 1.104248046875, -0.596435546875, 0.077392578125
530, 3536878837, -6.688673496246338, 2.067802906036377, 6.998672962188721, -8.412149429321289, -3.4015212059020996, -6.019959449768066, 1.104736328125, -0.594482421875, 0.076904296875
531, 3536895504, -6.706818580627441, 2.0137805938720703, 7.004979133605957, -7.855968475341797, -3.579542636871338, -5.564590930938721, 1.1025390625, -0.593505859375, 0.077392578125
532, 3536912171, -6.687693119049072, 2.007582664489746, 7.018065929412842, -7.118488311767578, -3.5870978832244873, -4.879297733306885, 1.104736328125, -0.591796875, 0.075439453125
533, 3536928838, -6.664112567901611, 2.0658483505249023, 7.019339561462402, -7.493536472320557, -3.9292969703674316, -4.889363765716553, 1.102783203125, -0.592529296875, 0.075927734375
534, 3536945505, -6.637361526489258, 2.08994722366333, 7.025237560272217, -8.680890083312988, -4.205440044403076, -5.732879638671875, 1.1015625, -0.58984375, 0.076171875
535, 3536962172, -6.679803371429443, 1.9629625082015991, 7.096052646636963, -8.244821548461914, -3.5881361961364746, -5.9037556648254395, 1.1025390625, -0.58837890625, 0.072265625
536, 3536978839, -6.670008182525635, 1.8867805004119873, 7.110680103302002, -7.5056633949279785, -3.165282726287842, -5.435362815856934, 1.1005859375, -0.5869140625, 0.072265625
537, 3536995506, -6.660885810852051, 1.8798670768737793, 7.103339195251465, -6.615018844604492, -2.7031266689300537, -4.74062967300415, 1.10205078125, -0.585205078125, 0.07275390625
538, 3537012173, -6.672682285308838, 1.8615731000900269, 7.115042686462402, -5.571094989776611, -2.305399179458618, -3.9671895503997803, 1.10302734375, -0.582275390625, 0.07373046875
539, 3537028840, -6.6701884269714355, 1.909964680671692, 7.091607093811035, -4.528120517730713, -1.8892055749893188, -3.2758517265319824, 1.1015625, -0.583740234375, 0.071533203125
540, 3537045507, -6.631705284118652, 1.9580153226852417, 7.100462913513184, -4.426297187805176, -1.7558786869049072, -3.2648255825042725, 1.1025390625, -0.583740234375, 0.072021484375
541, 3537062174, -6.65183687210083, 1.9289064407348633, 7.096700668334961, -4.365851879119873, -1.6944466829299927, -3.408550977706909, 1.10205078125, -0.5810546875, 0.072021484375
542, 3537078841, -6.649701118469238, 1.9019309282302856, 7.075490951538086, -4.3329644203186035, -1.716217279434204, -3.4158377647399902, 1.10107421875, -0.582763671875, 0.072509765625
543, 3537095508, -6.6308159828186035, 1.8995897769927979, 7.07528018951416, -4.413235187530518, -1.8983495235443115, -3.3648815155029297, 1.099365234375, -0.581298828125, 0.072021484375
544, 3537112175, -6.6441802978515625, 1.9053373336791992, 7.067282199859619, -4.254244327545166, -1.8049142360687256, -3.300644874572754, 1.103515625, -0.5810546875, 0.072265625
545, 3537128842, -6.648221969604492, 1.9000697135925293, 7.082371711730957, -4.266256332397461, -1.7998299598693848, -3.5294041633605957, 1.1025390625, -0.5791015625, 0.071533203125
546, 3537145509, -6.638314247131348, 1.8484314680099487, 7.074479103088379, -3.93733811378479, -1.6709725856781006, -3.2706782817840576, 1.102294921875, -0.57958984375, 0.072021484375
547, 3537162176, -6.659882068634033, 1.83245849609375, 7.08199405670166, -3.388432741165161, -1.7716178894042969, -2.8920841217041016, 1.1015625, -0.581298828125, 0.072021484375
548, 3537178843, -6.667812347412109, 1.876732587814331, 7.101267337799072, -2.8305232524871826, -1.4736649990081787, -2.60476016998291, 1.101318359375, -0.57958984375, 0.0732421875
549, 3537195510, -6.647699356079102, 1.8744350671768188, 7.088129997253418, -2.509942054748535, -1.3814338445663452, -2.368034839630127, 1.101806640625, -0.5791015625, 0.072021484375
550, 3537212177, -6.655699253082275, 1.857595682144165, 7.0642170906066895, -2.389920949935913, -1.2743728160858154, -2.0824661254882812, 1.10302734375, -0.578125, 0.071044921875
551, 3537228844, -6.660839557647705, 1.8697624206542969, 7.090163707733154, -2.229675054550171, -1.3842896223068237, -1.8883345127105713, 1.100830078125, -0.580078125, 0.072998046875
552, 3537245511, -6.6628241539001465, 1.8590847253799438, 7.097624778747559, -2.0001468658447266, -1.4918501377105713, -1.6580381393432617, 1.101806640625, -0.58056640625, 0.072998046875
553, 3537262178, -6.63918924331665, 1.8903173208236694, 7.089951038360596, -2.0661001205444336, -1.6238198280334473, -1.694344401359558, 1.102294921875, -0.57861328125, 0.072509765625
554, 3537278845, -6.646603107452393, 1.904152512550354, 7.083865165710449, -2.280836582183838, -1.799023151397705, -1.7601686716079712, 1.099853515625, -0.5791015625, 0.070068359375
555, 3537295512, -6.640725612640381, 1.8527113199234009, 7.073456764221191, -2.341628074645996, -2.082683801651001, -1.6605608463287354, 1.101806640625, -0.580078125, 0.069091796875
556, 3537312179, -6.633309841156006, 1.9256457090377808, 7.078373432159424, -2.2629075050354004, -2.037874221801758, -1.6325790882110596, 1.1025390625, -0.581787109375, 0.07275390625
557, 3537328846, -6.628255844116211, 1.900394320487976, 7.093179225921631, -2.368342399597168, -1.920657992362976, -1.8816883563995361, 1.100830078125, -0.58056640625, 0.072509765625
558, 3537345513, -6.640417098999023, 1.9086692333221436, 7.080769062042236, -2.3682398796081543, -1.766405463218689, -1.9860087633132935, 1.1025390625, -0.5810546875, 0.072021484375
559, 3537362180, -6.632045745849609, 1.9257208108901978, 7.096380710601807, -2.4180140495300293, -1.6563252210617065, -2.0666158199310303, 1.099853515625, -0.57958984375, 0.072998046875
560, 3537378847, -6.625450134277344, 1.9275181293487549, 7.084915637969971, -2.6330885887145996, -1.6684755086898804, -2.36373233795166, 1.099365234375, -0.5810546875, 0.069580078125
561, 3537395514, -6.619319915771484, 1.8880470991134644, 7.093031406402588, -2.7304935455322266, -1.461588978767395, -2.508136749267578, 1.10205078125, -0.581787109375, 0.070068359375
562, 3537412181, -6.645965576171875, 1.8750457763671875, 7.085173606872559, -2.6977860927581787, -1.5842353105545044, -2.4441819190979004, 1.101806640625, -0.57861328125, 0.071533203125
563, 3537428848, -6.648769855499268, 1.8967299461364746, 7.077487468719482, -2.792296886444092, -1.6215914487838745, -2.4523138999938965, 1.100341796875, -0.5810546875, 0.072021484375
564, 3537445515, -6.628022193908691, 1.8801403045654297, 7.094661712646484, -2.7495367527008057, -1.5995646715164185, -2.5058701038360596, 1.101318359375, -0.5810546875, 0.072021484375
565, 3537462182, -6.6366658210754395, 1.8750560283660889, 7.08794641494751, -2.6885271072387695, -1.5448685884475708, -2.4900031089782715, 1.100341796875, -0.581298828125, 0.070068359375
566, 3537478849, -6.639102458953857, 1.8858639001846313, 7.077080726623535, -2.8242738246917725, -1.4690675735473633, -2.5491292476654053, 1.101318359375, -0.5791015625, 0.071533203125
567, 3537495516, -6.6296868324279785, 1.9061800241470337, 7.076685428619385, -2.8865511417388916, -1.4186618328094482, -2.6412198543548584, 1.100830078125, -0.580078125, 0.072509765625
568, 3537512183, -6.645023345947266, 1.891662359237671, 7.093226432800293, -2.997684955596924, -1.626905918121338, -2.8398208618164062, 1.102294921875, -0.5791015625, 0.070556640625
569, 3537528850, -6.638133525848389, 1.8389827013015747, 7.118015766143799, -3.1576876640319824, -1.7027579545974731, -2.837784767150879, 1.100341796875, -0.57861328125, 0.072021484375
570, 3537545517, -6.646783828735352, 1.8687206506729126, 7.100123405456543, -3.0195581912994385, -1.6550029516220093, -2.713550567626953, 1.102294921875, -0.57958984375, 0.071533203125
571, 3537562184, -6.65315580368042, 1.8581916093826294, 7.090027809143066, -2.9264941215515137, -1.5563299655914307, -2.57314133644104, 1.097900390625, -0.57861328125, 0.071044921875
572, 3537578851, -6.64396858215332, 1.8613640069961548, 7.1040520668029785, -2.6501591205596924, -1.5678942203521729, -2.3562276363372803, 1.099853515625, -0.57861328125, 0.070068359375
573, 3537595518, -6.649587631225586, 1.882569670677185, 7.0836052894592285, -2.6004834175109863, -1.5547294616699219, -2.2442872524261475, 1.101806640625, -0.57763671875, 0.072509765625
574, 3537612185, -6.642036437988281, 1.8720176219940186, 7.077946186065674, -2.7011282444000244, -1.6402759552001953, -2.422205924987793, 1.10302734375, -0.57861328125, 0.071533203125
575, 3537628852, -6.633510112762451, 1.9086984395980835, 7.093731880187988, -2.84904146194458, -1.758657455444336, -2.576509475708008, 1.1025390625, -0.5791015625, 0.071533203125
576, 3537645519, -6.620826244354248, 1.8879293203353882, 7.104957580566406, -2.9292471408843994, -1.6581532955169678, -2.816193103790283, 1.102294921875, -0.57958984375, 0.071533203125
577, 3537662186, -6.6266350746154785, 1.8442354202270508, 7.085105895996094, -3.063394546508789, -1.5057451725006104, -2.974954128265381, 1.100341796875, -0.57666015625, 0.071044921875
578, 3537678853, -6.649322986602783, 1.8338096141815186, 7.090275764465332, -3.0565168857574463, -1.443813443183899, -2.7898120880126953, 1.102783203125, -0.576171875, 0.070556640625
579, 3537695520, -6.6595234870910645, 1.8425545692443848, 7.0912981033325195, -2.9986963272094727, -1.4640733003616333, -2.8092265129089355, 1.100341796875, -0.578125, 0.072509765625
580, 3537712187, -6.6491780281066895, 1.8525265455245972, 7.098852157592773, -2.9309635162353516, -1.5528978109359741, -2.59792160987854, 1.1025390625, -0.57861328125, 0.071533203125
581, 3537728854, -6.638416767120361, 1.872904896736145, 7.099876403808594, -2.898319959640503, -1.496652364730835, -2.5981905460357666, 1.101806640625, -0.57763671875, 0.070068359375
582, 3537745521, -6.627242565155029, 1.8690297603607178, 7.094019889831543, -2.9406707286834717, -1.5174369812011719, -2.7074544429779053, 1.101318359375, -0.576171875, 0.071044921875
583, 3537762188, -6.622073650360107, 1.8776308298110962, 7.109266757965088, -2.970240592956543, -1.3368035554885864, -2.960738182067871, 1.100830078125, -0.574462890625, 0.071533203125
584, 3537778855, -6.646719455718994, 1.842431902885437, 7.104394912719727, -2.938736915588379, -1.2770746946334839, -3.031339645385742, 1.101806640625, -0.576171875, 0.071533203125
585, 3537795522, -6.665197372436523, 1.848036289215088, 7.098984241485596, -3.0021157264709473, -1.1254603862762451, -3.016727924346924, 1.101318359375, -0.575927734375, 0.07470703125
586, 3537812189, -6.6560564041137695, 1.8407973051071167, 7.08367919921875, -3.0757904052734375, -1.1811809539794922, -3.0179829597473145, 1.101806640625, -0.57763671875, 0.072998046875
587, 3537828856, -6.661772727966309, 1.8372646570205688, 7.0862135887146, -3.0903518199920654, -1.2991529703140259, -2.906170606613159, 1.100830078125, -0.57763671875, 0.072998046875
588, 3537845523, -6.648776054382324, 1.8626673221588135, 7.089874267578125, -2.9865949153900146, -1.415895700454712, -2.8210084438323975, 1.099853515625, -0.57666015625, 0.072509765625
589, 3537862190, -6.642956733703613, 1.852057933807373, 7.080144882202148, -2.9362270832061768, -1.3524786233901978, -2.828397750854492, 1.100830078125, -0.573974609375, 0.071044921875
590, 3537878857, -6.667140960693359, 1.8166800737380981, 7.080582141876221, -2.8713440895080566, -1.2384021282196045, -2.799159288406372, 1.099853515625, -0.574951171875, 0.071533203125
591, 3537895524, -6.673770427703857, 1.8166497945785522, 7.09792423248291, -2.756784439086914, -1.338634967803955, -2.758948802947998, 1.103271484375, -0.574462890625, 0.072998046875
592, 3537912191, -6.654015064239502, 1.8209924697875977, 7.085994243621826, -2.6006243228912354, -1.1782995462417603, -2.5741665363311768, 1.102783203125, -0.575927734375, 0.072998046875
593, 3537928858, -6.665482044219971, 1.8133037090301514, 7.0975871086120605, -2.508481740951538, -1.1345655918121338, -2.5186119079589844, 1.102783203125, -0.574462890625, 0.071533203125
594, 3537945525, -6.650116443634033, 1.8212546110153198, 7.0876593589782715, -2.337210178375244, -1.075093150138855, -2.33439302444458, 1.102783203125, -0.5771484375, 0.070556640625
595, 3537962192, -6.653129577636719, 1.836472749710083, 7.088579177856445, -2.355458974838257, -1.1836525201797485, -2.3497087955474854, 1.100830078125, -0.574951171875, 0.073974609375
596, 3537978859, -6.648552894592285, 1.83993661403656, 7.064158916473389, -2.4440536499023438, -1.1981366872787476, -2.355856418609619, 1.100341796875, -0.573974609375, 0.072998046875
597, 3537995526, -6.654632568359375, 1.8338866233825684, 7.105769157409668, -2.5035135746002197, -1.3446794748306274, -2.466362237930298, 1.102294921875, -0.575439453125, 0.073486328125
598, 3538012193, -6.652683734893799, 1.8257560729980469, 7.093623638153076, -2.450956106185913, -1.2268098592758179, -2.4438743591308594, 1.103271484375, -0.573486328125, 0.071044921875
599, 3538028860, -6.668236255645752, 1.822356939315796, 7.097105979919434, -2.4255614280700684, -1.2294608354568481, -2.3440616130828857, 1.103759765625, -0.574462890625, 0.072509765625
600, 3538045527, -6.669332504272461, 1.829323410987854, 7.083373546600342, -2.4724576473236084, -1.2667911052703857, -2.4130234718322754, 1.100341796875, -0.573974609375, 0.072509765625
601, 3538062194, -6.660476207733154, 1.8220874071121216, 7.085956573486328, -2.449099540710449, -1.3177478313446045, -2.332113265991211, 1.102783203125, -0.575439453125, 0.07373046875
602, 3538078861, -6.664745330810547, 1.8237074613571167, 7.077363967895508, -2.468244791030884, -1.3593300580978394, -2.3483259677886963, 1.102294921875, -0.575439453125, 0.072998046875
603, 3538095528, -6.650707244873047, 1.846250295639038, 7.082406520843506, -2.53969144821167, -1.5118024349212646, -2.3447916507720947, 1.101318359375, -0.575439453125, 0.071533203125
604, 3538112195, -6.653162002563477, 1.8235162496566772, 7.088034152984619, -2.542675018310547, -1.4463233947753906, -2.418159008026123, 1.102294921875, -0.575439453125, 0.073486328125
605, 3538128862, -6.667102813720703, 1.821596622467041, 7.087041854858398, -2.5065228939056396, -1.4247961044311523, -2.425612449645996, 1.102783203125, -0.574951171875, 0.073486328125
606, 3538145529, -6.654787540435791, 1.8099372386932373, 7.082466125488281, -2.396785259246826, -1.3768107891082764, -2.3747713565826416, 1.101806640625, -0.576171875, 0.072998046875
607, 3538162196, -6.671934127807617, 1.810701608657837, 7.093157768249512, -2.414778470993042, -1.466570496559143, -2.275163412094116, 1.101806640625, -0.572998046875, 0.071044921875
608, 3538178863, -6.646947860717773, 1.8420085906982422, 7.100675582885742, -2.4832794666290283, -1.5361731052398682, -2.2564661502838135, 1.101318359375, -0.574462890625, 0.073486328125
609, 3538195530, -6.662715911865234, 1.8322031497955322, 7.111571311950684, -2.4122297763824463, -1.5289629697799683, -2.2092106342315674, 1.102294921875, -0.573974609375, 0.072509765625
610, 3538212197, -6.65567684173584, 1.809631109237671, 7.096984386444092, -2.33689022064209, -1.5486462116241455, -2.2209413051605225, 1.101806640625, -0.576171875, 0.073486328125
611, 3538228864, -6.657119274139404, 1.8020219802856445, 7.0802435874938965, -2.251612424850464, -1.47874915599823, -2.001312255859375, 1.102294921875, -0.575439453125, 0.072998046875
612, 3538245531, -6.674959659576416, 1.8514460325241089, 7.084199905395508, -2.0950162410736084, -1.5301026105880737, -1.867639422416687, 1.103759765625, -0.572509765625, 0.072021484375
613, 3538262198, -6.659335613250732, 1.846061110496521, 7.065576076507568, -2.1913199424743652, -1.55735445022583, -1.8499155044555664, 1.104248046875, -0.573486328125, 0.07373046875
614, 3538278865, -6.655027389526367, 1.8413538932800293, 7.080877304077148, -2.1400818824768066, -1.5736442804336548, -1.8907421827316284, 1.102783203125, -0.575439453125, 0.0751953125
615, 3538295532, -6.667181491851807, 1.81758713722229, 7.086129665374756, -1.9589362144470215, -1.586898922920227, -1.7681472301483154, 1.103271484375, -0.574462890625, 0.07470703125
616, 3538312199, -6.669172763824463, 1.7931715250015259, 7.086902141571045, -1.7777135372161865, -1.4426226615905762, -1.504502773284912, 1.102783203125, -0.575439453125, 0.072509765625
617, 3538328866, -6.6521687507629395, 1.8174846172332764, 7.0898919105529785, -1.6092844009399414, -1.4192508459091187, -1.2642300128936768, 1.102783203125, -0.5771484375, 0.072021484375
618, 3538345533, -6.662616729736328, 1.862108588218689, 7.086512088775635, -1.5613245964050293, -1.3393265008926392, -1.2606955766677856, 1.102783203125, -0.57763671875, 0.07470703125
619, 3538362200, -6.661705493927002, 1.873474359512329, 7.0924882888793945, -1.6756595373153687, -1.4367953538894653, -1.3123050928115845, 1.103271484375, -0.57666015625, 0.07421875
620, 3538378867, -6.674808025360107, 1.8815616369247437, 7.0762104988098145, -2.019792079925537, -1.573439359664917, -1.7786353826522827, 1.101318359375, -0.575927734375, 0.072021484375
621, 3538395534, -6.665346145629883, 1.8373303413391113, 7.085484027862549, -2.252739429473877, -1.7271157503128052, -2.0865774154663086, 1.103759765625, -0.575439453125, 0.07373046875
622, 3538412201, -6.678852558135986, 1.8587315082550049, 7.068078517913818, -2.2560875415802, -1.7617790699005127, -1.964939832687378, 1.102294921875, -0.576171875, 0.07470703125
623, 3538428868, -6.672110557556152, 1.8281266689300537, 7.066005229949951, -2.270796298980713, -1.9633797407150269, -1.9114116430282593, 1.102783203125, -0.573974609375, 0.0751953125
624, 3538445535, -6.657411575317383, 1.847846269607544, 7.060943603515625, -2.1490845680236816, -1.7885090112686157, -1.7210452556610107, 1.102783203125, -0.576171875, 0.070556640625
625, 3538462202, -6.655999183654785, 1.8591561317443848, 7.0967020988464355, -2.191985845565796, -1.7643178701400757, -1.9138448238372803, 1.1025390625, -0.5791015625, 0.07470703125
626, 3538478869, -6.655369281768799, 1.8541767597198486, 7.077011585235596, -2.2282919883728027, -1.8316411972045898, -1.8940463066101074, 1.101806640625, -0.578125, 0.0732421875
627, 3538495536, -6.657028675079346, 1.8760236501693726, 7.095752239227295, -2.3062312602996826, -1.7507559061050415, -1.995574951171875, 1.101318359375, -0.5771484375, 0.07373046875
628, 3538512203, -6.657710075378418, 1.869746208190918, 7.086581230163574, -2.310150146484375, -1.5715311765670776, -2.1023542881011963, 1.10498046875, -0.57666015625, 0.072265625
629, 3538528870, -6.651788711547852, 1.8731629848480225, 7.086032867431641, -2.329103469848633, -1.569981575012207, -2.126225233078003, 1.102783203125, -0.57666015625, 0.0751953125
630, 3538545537, -6.65427827835083, 1.854957938194275, 7.058988094329834, -2.38077712059021, -1.5060651302337646, -2.1591506004333496, 1.102294921875, -0.5771484375, 0.07373046875
631, 3538562204, -6.6577019691467285, 1.8669277429580688, 7.088231086730957, -2.329449415206909, -1.4815410375595093, -2.2577598094940186, 1.102783203125, -0.578125, 0.072998046875
632, 3538578871, -6.658872127532959, 1.8404167890548706, 7.094437599182129, -2.4200286865234375, -1.5693540573120117, -2.2116949558258057, 1.100830078125, -0.57666015625, 0.072509765625
633, 3538595538, -6.663076400756836, 1.853938102722168, 7.084415912628174, -2.307588815689087, -1.5855923891067505, -2.205573558807373, 1.100830078125, -0.575439453125, 0.072998046875
634, 3538612205, -6.6528496742248535, 1.858008861541748, 7.1008219718933105, -2.322098731994629, -1.5934813022613525, -2.2245399951934814, 1.102294921875, -0.57763671875, 0.07421875
635, 3538628872, -6.669546127319336, 1.8308407068252563, 7.09086799621582, -2.349914312362671, -1.6632888317108154, -2.2141668796539307, 1.10302734375, -0.57763671875, 0.0732421875
636, 3538645539, -6.666794300079346, 1.8406198024749756, 7.072818756103516, -2.407209634780884, -1.7024121284484863, -2.0180118083953857, 1.102294921875, -0.5771484375, 0.07373046875
637, 3538662206, -6.65402364730835, 1.8643884658813477, 7.094645023345947, -2.2425198554992676, -1.6221930980682373, -1.9439525604248047, 1.100830078125, -0.5771484375, 0.072509765625
638, 3538678873, -6.646235466003418, 1.8755970001220703, 7.077138423919678, -2.316898822784424, -1.6359469890594482, -2.032201051712036, 1.101318359375, -0.578125, 0.072021484375
639, 3538695540, -6.661900997161865, 1.861198902130127, 7.092207908630371, -2.3307044506073, -1.6298258304595947, -2.0889079570770264, 1.100341796875, -0.57666015625, 0.070556640625
640, 3538712207, -6.659605026245117, 1.8503406047821045, 7.094471454620361, -2.3924057483673096, -1.6375865936279297, -2.0685200691223145, 1.10302734375, -0.57763671875, 0.071044921875
641, 3538728874, -6.666596412658691, 1.852326512336731, 7.062560081481934, -2.266634702682495, -1.7179207801818848, -2.1024441719055176, 1.103271484375, -0.57666015625, 0.072021484375
642, 3538745541, -6.668835639953613, 1.8592458963394165, 7.073659896850586, -2.2578747272491455, -1.7490911483764648, -2.049131155014038, 1.100341796875, -0.576171875, 0.073486328125
643, 3538762208, -6.657249927520752, 1.8814291954040527, 7.0843729972839355, -2.2975871562957764, -1.7177925109863281, -2.111088275909424, 1.100830078125, -0.57763671875, 0.072998046875
644, 3538778875, -6.650119304656982, 1.8664956092834473, 7.079065799713135, -2.366716146469116, -1.621002197265625, -2.1516335010528564, 1.099853515625, -0.578125, 0.071533203125
645, 3538795542, -6.658236026763916, 1.842676043510437, 7.084757328033447, -2.3476216793060303, -1.5740669965744019, -2.194905996322632, 1.101318359375, -0.578125, 0.072998046875
646, 3538812209, -6.660680770874023, 1.855173945426941, 7.074117183685303, -2.2645082473754883, -1.5334450006484985, -2.1570372581481934, 1.102294921875, -0.57666015625, 0.072998046875
647, 3538828876, -6.6633620262146, 1.8589035272598267, 7.075917720794678, -2.23040509223938, -1.5238916873931885, -2.0101871490478516, 1.103515625, -0.57763671875, 0.07421875
648, 3538845543, -6.658129692077637, 1.8798056840896606, 7.092569828033447, -2.2465155124664307, -1.568163275718689, -2.092954635620117, 1.10302734375, -0.580078125, 0.072021484375
649, 3538862210, -6.645883560180664, 1.862282156944275, 7.073948383331299, -2.363309621810913, -1.6470632553100586, -2.257606029510498, 1.099853515625, -0.578125, 0.072998046875
650, 3538878877, -6.652620792388916, 1.8596036434173584, 7.072448253631592, -2.501835823059082, -1.7254765033721924, -2.242558479309082, 1.102294921875, -0.574951171875, 0.072021484375
651, 3538895544, -6.656177997589111, 1.8695330619812012, 7.0825371742248535, -2.353858709335327, -1.6152522563934326, -2.1791412830352783, 1.101318359375, -0.57763671875, 0.07421875
652, 3538912211, -6.6437811851501465, 1.873102068901062, 7.078085422515869, -2.3940956592559814, -1.630030632019043, -2.193049192428589, 1.102783203125, -0.57666015625, 0.072021484375
653, 3538928878, -6.651670932769775, 1.8591790199279785, 7.096965789794922, -2.4453282356262207, -1.6043728590011597, -2.22965669631958, 1.100830078125, -0.57763671875, 0.072509765625
654, 3538945545, -6.647337913513184, 1.846698522567749, 7.094897747039795, -2.4004478454589844, -1.549504280090332, -2.1992599964141846, 1.100830078125, -0.578125, 0.070068359375
655, 3538962212, -6.644679069519043, 1.8786629438400269, 7.057864665985107, -2.363616704940796, -1.5104577541351318, -2.138596296310425, 1.10400390625, -0.57861328125, 0.07373046875
656, 3538978879, -6.665040493011475, 1.8827803134918213, 7.082827091217041, -2.5029244422912598, -1.5188971757888794, -2.2273828983306885, 1.100341796875, -0.57666015625, 0.073974609375
657, 3538995546, -6.644118785858154, 1.8658822774887085, 7.0703277587890625, -2.4303250312805176, -1.6477545499801636, -2.232684373855591, 1.100830078125, -0.57763671875, 0.072998046875
