sep=,
DeviceTag:,B,,,,,,,,,,,,,,,,,
FirmwareVersion:,2.2.1,,,,,,,,,,,,,,,,,
AppVersion:,2023.6.1,,,,,,,,,,,,,,,,,
SyncStatus:,Synced,,,,,,,,,,,,,,,,,
OutputRate:,60Hz,,,,,,,,,,,,,,,,,
FilterProfile:,General,,,,,,,,,,,,,,,,,
Measurement Mode:,Inertial Mode - Rate quantities (with mag),,,,,,,,,,,,,,,,,
StartTime:,2023-12-05 15:09:30.285 +0200,,,,,,,,,,,,,,,,,
 2023,,,,,,,,,,,,,,,,,,,

PacketCounter,SampleTimeFine,Acc_X,Acc_Y,Acc_Z,Gyr_X,Gyr_Y,Gyr_Z,Mag_X,Mag_Y,Mag_Z
1, 3528078661, -7.316081523895264, -1.4395257234573364, 6.214142799377441, -0.49998554587364197, -0.4875761568546295, -1.422772765159607, 0.878662109375, 0.291015625, -0.389892578125
2, 3528095328, -7.309482574462891, -1.4398545026779175, 6.225931644439697, -0.3547615110874176, -0.5333971977233887, -1.2997292280197144, 0.879150390625, 0.291015625, -0.392333984375
3, 3528111995, -7.307872295379639, -1.4544687271118164, 6.229319095611572, -0.2963005304336548, -0.5085402131080627, -1.2338662147521973, 0.879150390625, 0.288818359375, -0.392333984375
4, 3528128662, -7.314319610595703, -1.4427887201309204, 6.221606254577637, -0.4102642238140106, -0.5396596193313599, -1.363556146621704, 0.878662109375, 0.29052734375, -0.388916015625
5, 3528145329, -7.302124977111816, -1.4411476850509644, 6.218684196472168, -0.41858839988708496, -0.5543485283851624, -1.4104145765304565, 0.876220703125, 0.291259765625, -0.390380859375
6, 3528161996, -7.310415744781494, -1.4413772821426392, 6.229204177856445, -0.3774671256542206, -0.6073923707008362, -1.4353355169296265, 0.876708984375, 0.290771484375, -0.391357421875
7, 3528178663, -7.312796115875244, -1.4515904188156128, 6.216579437255859, -0.3126670718193054, -0.629086434841156, -1.3929212093353271, 0.878662109375, 0.291015625, -0.391357421875
8, 3528195330, -7.299429416656494, -1.4523046016693115, 6.217048168182373, -0.28675979375839233, -0.8131775856018066, -1.3584976196289062, 0.878173828125, 0.289306640625, -0.391845703125
9, 3528211997, -7.308213233947754, -1.4506460428237915, 6.205855369567871, -0.17886628210544586, -0.8671435713768005, -1.2226861715316772, 0.878662109375, 0.29052734375, -0.390869140625
10, 3528228664, -7.318958282470703, -1.449257731437683, 6.206370830535889, -0.15536662936210632, -0.7903311252593994, -1.0601481199264526, 0.879150390625, 0.2919921875, -0.392822265625
11, 3528245331, -7.298981189727783, -1.4443261623382568, 6.201866149902344, -0.09549695253372192, -0.8561173677444458, -1.101269245147705, 0.877685546875, 0.290283203125, -0.390869140625
12, 3528261998, -7.307678699493408, -1.4485660791397095, 6.2257208824157715, -0.2018537074327469, -0.8099632263183594, -1.0486608743667603, 0.878662109375, 0.289306640625, -0.389404296875
13, 3528278665, -7.304317474365234, -1.4432549476623535, 6.2170891761779785, -0.13827016949653625, -0.7543964982032776, -1.0646686553955078, 0.878662109375, 0.290283203125, -0.393798828125
14, 3528295332, -7.29299783706665, -1.4526530504226685, 6.231059551239014, -0.11863801628351212, -0.8695383071899414, -0.9752547740936279, 0.877685546875, 0.290283203125, -0.391845703125
15, 3528311999, -7.312380790710449, -1.4389965534210205, 6.209095478057861, -0.12399106472730637, -0.9212631583213806, -0.9683008790016174, 0.878173828125, 0.288818359375, -0.390869140625
16, 3528328666, -7.314135551452637, -1.4307135343551636, 6.211781978607178, 0.005654003471136093, -0.8597159385681152, -1.0073730945587158, 0.877197265625, 0.289794921875, -0.388427734375
17, 3528345333, -7.306833267211914, -1.440033197402954, 6.206431865692139, -0.006979461293667555, -0.9456208348274231, -0.896598219871521, 0.878662109375, 0.289794921875, -0.390380859375
18, 3528362000, -7.313223361968994, -1.4494937658309937, 6.194905757904053, 0.18676139414310455, -1.123180866241455, -0.7062830328941345, 0.879150390625, 0.290283203125, -0.390869140625
19, 3528378667, -7.29802942276001, -1.432316541671753, 6.222407341003418, 0.34579065442085266, -1.2080613374710083, -0.5824199914932251, 0.878662109375, 0.290771484375, -0.391845703125
20, 3528395334, -7.315967082977295, -1.4422214031219482, 6.198437213897705, 0.4521345794200897, -1.1706156730651855, -0.48852384090423584, 0.88134765625, 0.2900390625, -0.390869140625
21, 3528412001, -7.304435729980469, -1.416329264640808, 6.237724781036377, 0.35821279883384705, -1.5044643878936768, -0.5841231942176819, 0.878662109375, 0.288818359375, -0.391357421875
22, 3528428668, -7.299458980560303, -1.4244794845581055, 6.25507926940918, 0.2556723654270172, -1.3541946411132812, -0.6355919241905212, 0.876708984375, 0.288818359375, -0.39453125
23, 3528445335, -7.308211326599121, -1.4243313074111938, 6.214044094085693, 0.118772491812706, -1.322921633720398, -0.7859129309654236, 0.878173828125, 0.289794921875, -0.390869140625
24, 3528462002, -7.307024955749512, -1.4392929077148438, 6.225988388061523, 0.03681185469031334, -1.1709870100021362, -0.9429059028625488, 0.878662109375, 0.288330078125, -0.393798828125
25, 3528478669, -7.295841217041016, -1.428002119064331, 6.210529804229736, -0.0175446979701519, -1.0898842811584473, -0.8974689245223999, 0.878662109375, 0.288818359375, -0.393798828125
26, 3528495336, -7.300760746002197, -1.4189456701278687, 6.229206562042236, -0.2202051877975464, -0.822808027267456, -1.1344634294509888, 0.879150390625, 0.287841796875, -0.3955078125
27, 3528512003, -7.281768798828125, -1.4106523990631104, 6.229974746704102, -0.2654884159564972, -0.8168017268180847, -1.2868459224700928, 0.878662109375, 0.290283203125, -0.392822265625
28, 3528528670, -7.3017449378967285, -1.4313507080078125, 6.227137565612793, -0.2884630262851715, -0.6897628307342529, -1.212569236755371, 0.880126953125, 0.288818359375, -0.392333984375
29, 3528545337, -7.310476779937744, -1.4382983446121216, 6.21644926071167, -0.2790887951850891, -0.6745360493659973, -1.3065677881240845, 0.876220703125, 0.290771484375, -0.389892578125
30, 3528562004, -7.295022010803223, -1.4174401760101318, 6.226492881774902, -0.32035085558891296, -0.6387807726860046, -1.299293875694275, 0.879150390625, 0.289306640625, -0.391845703125
31, 3528578671, -7.3119611740112305, -1.4240697622299194, 6.222716808319092, -0.30065464973449707, -0.609095573425293, -1.3359968662261963, 0.876708984375, 0.289306640625, -0.393310546875
32, 3528595338, -7.291107177734375, -1.4225081205368042, 6.239343643188477, -0.36308562755584717, -0.5598679780960083, -1.4007201194763184, 0.880126953125, 0.289794921875, -0.391845703125
33, 3528612005, -7.298215389251709, -1.4248688220977783, 6.208317279815674, -0.33737048506736755, -0.7389264106750488, -1.3287100791931152, 0.880615234375, 0.288330078125, -0.394287109375
34, 3528628672, -7.299668788909912, -1.4355711936950684, 6.211336612701416, -0.32430794835090637, -0.7224317789077759, -1.344397783279419, 0.880615234375, 0.288330078125, -0.391845703125
35, 3528645339, -7.306307792663574, -1.42180335521698, 6.203804969787598, -0.19450286030769348, -0.8391873240470886, -1.2558164596557617, 0.877197265625, 0.288330078125, -0.393310546875
36, 3528662006, -7.30712366104126, -1.4303531646728516, 6.225166320800781, -0.2556147277355194, -0.8464229106903076, -1.1778768301010132, 0.878662109375, 0.289794921875, -0.391845703125
37, 3528678673, -7.308775424957275, -1.4222354888916016, 6.230053424835205, -0.20027849078178406, -0.8668618202209473, -1.220445156097412, 0.879150390625, 0.29150390625, -0.39404296875
38, 3528695340, -7.309408187866211, -1.4094442129135132, 6.220638751983643, -0.20332643389701843, -0.8587426543235779, -1.234122395515442, 0.879638671875, 0.289794921875, -0.391845703125
39, 3528712007, -7.282147407531738, -1.4292373657226562, 6.225945949554443, -0.17597204446792603, -0.8829465508460999, -1.3196302652359009, 0.879150390625, 0.287841796875, -0.391357421875
40, 3528728674, -7.290423393249512, -1.4295424222946167, 6.23279333114624, -0.19043681025505066, -0.8819413781166077, -1.2359727621078491, 0.878173828125, 0.289794921875, -0.391357421875
41, 3528745341, -7.285372734069824, -1.4094278812408447, 6.225209712982178, -0.2812402546405792, -0.718948483467102, -1.3898861408233643, 0.876220703125, 0.288818359375, -0.391357421875
42, 3528762008, -7.295100212097168, -1.4364023208618164, 6.238020896911621, -0.4207526445388794, -0.5723285675048828, -1.3904238939285278, 0.879150390625, 0.29052734375, -0.39453125
43, 3528778675, -7.314887523651123, -1.4330812692642212, 6.244093418121338, -0.3977780044078827, -0.557101845741272, -1.4465796947479248, 0.880615234375, 0.289306640625, -0.394287109375
44, 3528795342, -7.303953647613525, -1.4255294799804688, 6.234725475311279, -0.39120832085609436, -0.4894714653491974, -1.386786699295044, 0.880615234375, 0.287841796875, -0.394775390625
45, 3528812009, -7.293856143951416, -1.41556715965271, 6.22100305557251, -0.335193395614624, -0.6188284158706665, -1.2865259647369385, 0.880615234375, 0.289306640625, -0.391357421875
46, 3528828676, -7.290915012359619, -1.429202675819397, 6.222970008850098, -0.25289982557296753, -0.7557154297828674, -1.2987046241760254, 0.879150390625, 0.291015625, -0.389892578125
47, 3528845343, -7.297186374664307, -1.4350128173828125, 6.244232654571533, -0.2190142124891281, -0.7669851779937744, -1.3511595726013184, 0.876708984375, 0.289306640625, -0.390869140625
48, 3528862010, -7.288196563720703, -1.4277137517929077, 6.236821174621582, -0.3179304599761963, -0.6804525852203369, -1.326033592224121, 0.877197265625, 0.290283203125, -0.391357421875
49, 3528878677, -7.297522068023682, -1.4278748035430908, 6.242090702056885, -0.318762868642807, -0.7895755171775818, -1.345960259437561, 0.879638671875, 0.291015625, -0.391845703125
50, 3528895344, -7.2993879318237305, -1.4362550973892212, 6.229341506958008, -0.2596103250980377, -0.8107699751853943, -1.387337327003479, 0.877685546875, 0.288818359375, -0.391845703125
51, 3528912011, -7.291715621948242, -1.4459238052368164, 6.207731246948242, -0.20948626101016998, -0.7615423798561096, -1.3603416681289673, 0.879638671875, 0.291015625, -0.391357421875
52, 3528928678, -7.295481204986572, -1.4387801885604858, 6.231765270233154, -0.25634467601776123, -0.720037043094635, -1.3725333213806152, 0.876220703125, 0.289794921875, -0.39453125
53, 3528945345, -7.3019609451293945, -1.4344980716705322, 6.217838764190674, -0.34192955493927, -0.6757526993751526, -1.354950189590454, 0.876708984375, 0.289306640625, -0.390869140625
54, 3528962012, -7.296199798583984, -1.432637333869934, 6.224197864532471, -0.3457586467266083, -0.5584721565246582, -1.3661046028137207, 0.880126953125, 0.287841796875, -0.392822265625
55, 3528978679, -7.303158283233643, -1.4440816640853882, 6.202983379364014, -0.2694967985153198, -0.6418670415878296, -1.4003870487213135, 0.877197265625, 0.289794921875, -0.392822265625
56, 3528995346, -7.285170555114746, -1.4235206842422485, 6.212649345397949, -0.36723485589027405, -0.6234515309333801, -1.4815025329589844, 0.876708984375, 0.289794921875, -0.393310546875
57, 3529012013, -7.298337459564209, -1.4374929666519165, 6.213736534118652, -0.5575884580612183, -0.3918743133544922, -1.6868908405303955, 0.878173828125, 0.288818359375, -0.391845703125
58, 3529028680, -7.299318313598633, -1.406880259513855, 6.244094371795654, -0.8083112239837646, -0.11045477539300919, -1.9328880310058594, 0.877197265625, 0.288818359375, -0.39453125
59, 3529045347, -7.293697834014893, -1.470137357711792, 6.201446533203125, -0.6906849145889282, -0.10229713469743729, -2.003950595855713, 0.876220703125, 0.291259765625, -0.392822265625
60, 3529062014, -7.322282791137695, -1.4320580959320068, 6.216353893280029, -0.861560046672821, -0.07452015578746796, -2.0465574264526367, 0.876220703125, 0.2919921875, -0.391357421875
61, 3529078681, -7.302709102630615, -1.4207572937011719, 6.2286176681518555, -1.2380409240722656, 0.22702455520629883, -2.2866249084472656, 0.877685546875, 0.289306640625, -0.391357421875
62, 3529095348, -7.299658298492432, -1.4676026105880737, 6.1988205909729, -1.195690393447876, 0.23063594102859497, -2.448676347732544, 0.879150390625, 0.291015625, -0.392333984375
63, 3529112015, -7.31311559677124, -1.484082818031311, 6.1959638595581055, -1.1099263429641724, 0.0386047437787056, -2.207763433456421, 0.878173828125, 0.29150390625, -0.389404296875
64, 3529128682, -7.310349464416504, -1.4509929418563843, 6.206273078918457, -0.8597287535667419, -0.24676555395126343, -1.9807196855545044, 0.879150390625, 0.2919921875, -0.389404296875
65, 3529145349, -7.314135551452637, -1.4783612489700317, 6.218941688537598, -0.4727335572242737, -0.40601247549057007, -1.6243573427200317, 0.878173828125, 0.29296875, -0.390869140625
66, 3529162016, -7.299471855163574, -1.4742752313613892, 6.240636825561523, -0.2753237187862396, -0.6188156008720398, -1.3716113567352295, 0.877197265625, 0.29150390625, -0.391845703125
67, 3529178683, -7.293848991394043, -1.465909481048584, 6.211045265197754, -0.265193909406662, -0.6113623380661011, -1.397262454032898, 0.879638671875, 0.29296875, -0.389892578125
68, 3529195350, -7.320493698120117, -1.4559569358825684, 6.207559585571289, -0.2828538119792938, -0.6977924108505249, -1.2378746271133423, 0.879638671875, 0.29345703125, -0.388427734375
69, 3529212017, -7.3073554039001465, -1.4565932750701904, 6.2186431884765625, -0.22923363745212555, -0.8426833748817444, -1.2260286808013916, 0.880126953125, 0.29345703125, -0.388427734375
70, 3529228684, -7.311019420623779, -1.4803670644760132, 6.222494125366211, -0.21382761001586914, -0.8474985957145691, -1.1918230056762695, 0.877685546875, 0.2939453125, -0.387939453125
71, 3529245351, -7.310463905334473, -1.4467463493347168, 6.19016695022583, -0.14992395043373108, -0.8622643947601318, -1.200877070426941, 0.879150390625, 0.2939453125, -0.391845703125
72, 3529262018, -7.310086250305176, -1.4465214014053345, 6.217374324798584, -0.033309318125247955, -0.9698634147644043, -1.2482861280441284, 0.878173828125, 0.2939453125, -0.390869140625
73, 3529278685, -7.308429718017578, -1.461594581604004, 6.21259069442749, -0.08603305369615555, -0.9728215932846069, -1.2473514080047607, 0.877685546875, 0.29150390625, -0.392333984375
74, 3529295352, -7.3047919273376465, -1.4554228782653809, 6.214083194732666, -0.23557282984256744, -0.8711519241333008, -1.2500277757644653, 0.878662109375, 0.29248046875, -0.391845703125
75, 3529312019, -7.303743362426758, -1.4667261838912964, 6.210283279418945, -0.13231521844863892, -0.9416252374649048, -1.2326879501342773, 0.880615234375, 0.29345703125, -0.391357421875
76, 3529328686, -7.307875633239746, -1.4552333354949951, 6.201082706451416, -0.1982807070016861, -0.8797322511672974, -1.2098543643951416, 0.877685546875, 0.29150390625, -0.390869140625
77, 3529345353, -7.294853210449219, -1.4732153415679932, 6.2353644371032715, -0.1293313205242157, -0.8859560489654541, -1.301522135734558, 0.877197265625, 0.29150390625, -0.39404296875
78, 3529362020, -7.295459270477295, -1.4470884799957275, 6.209604263305664, -0.26068606972694397, -0.7702763676643372, -1.2951574325561523, 0.878173828125, 0.29443359375, -0.389404296875
79, 3529378687, -7.304009437561035, -1.4586948156356812, 6.235089302062988, -0.3270357549190521, -0.6631895899772644, -1.4987784624099731, 0.879638671875, 0.29345703125, -0.390380859375
80, 3529395354, -7.305080890655518, -1.4705297946929932, 6.195888996124268, -0.3950502574443817, -0.5853910446166992, -1.5908814668655396, 0.880126953125, 0.291015625, -0.392822265625
81, 3529412021, -7.290759563446045, -1.4832826852798462, 6.216948986053467, -0.46448633074760437, -0.6612175107002258, -1.5092540979385376, 0.880615234375, 0.29296875, -0.391845703125
82, 3529428688, -7.299880027770996, -1.4511539936065674, 6.197617530822754, -0.45636704564094543, -0.5523250102996826, -1.4912608861923218, 0.876220703125, 0.29296875, -0.388427734375
83, 3529445355, -7.305427074432373, -1.4550366401672363, 6.211850643157959, -0.4019657373428345, -0.5812930464744568, -1.580610990524292, 0.878173828125, 0.29248046875, -0.392822265625
84, 3529462022, -7.305365085601807, -1.4656400680541992, 6.209871292114258, -0.4107508957386017, -0.5971089005470276, -1.5232514142990112, 0.876708984375, 0.29296875, -0.393310546875
85, 3529478689, -7.304894924163818, -1.482053279876709, 6.221985816955566, -0.35533782839775085, -0.6288558840751648, -1.528309941291809, 0.879638671875, 0.2939453125, -0.391845703125
86, 3529495356, -7.304687976837158, -1.4704104661941528, 6.2077956199646, -0.3600633144378662, -0.6090699434280396, -1.547890543937683, 0.879150390625, 0.29248046875, -0.389892578125
87, 3529512023, -7.300954341888428, -1.4679700136184692, 6.205447673797607, -0.3950502872467041, -0.620826244354248, -1.5098174810409546, 0.878173828125, 0.294921875, -0.388916015625
88, 3529528690, -7.300834655761719, -1.488067626953125, 6.209348201751709, -0.40377140045166016, -0.5906032919883728, -1.4151784181594849, 0.877685546875, 0.29296875, -0.392333984375
89, 3529545357, -7.2997517585754395, -1.4672120809555054, 6.216343402862549, -0.3165857493877411, -0.6137698292732239, -1.4510362148284912, 0.8759765625, 0.294921875, -0.392822265625
90, 3529562024, -7.306863784790039, -1.4650059938430786, 6.20059061050415, -0.37389418482780457, -0.45906925201416016, -1.4357454776763916, 0.881103515625, 0.29345703125, -0.391357421875
91, 3529578691, -7.305821895599365, -1.4719911813735962, 6.195863246917725, -0.423915833234787, -0.48496365547180176, -1.4867533445358276, 0.877685546875, 0.29443359375, -0.390869140625
92, 3529595358, -7.296376705169678, -1.4845744371414185, 6.203249454498291, -0.37621212005615234, -0.5636970400810242, -1.3770411014556885, 0.876708984375, 0.2939453125, -0.391845703125
93, 3529612025, -7.292803764343262, -1.4809809923171997, 6.237843990325928, -0.2579326927661896, -0.6802604794502258, -1.2866028547286987, 0.8759765625, 0.29248046875, -0.391845703125
94, 3529628692, -7.302531719207764, -1.4837197065353394, 6.207642555236816, -0.2283628135919571, -0.8026763796806335, -1.1515341997146606, 0.879638671875, 0.29443359375, -0.389404296875
95, 3529645359, -7.298266410827637, -1.4628702402114868, 6.212740898132324, -0.21158652007579803, -0.8016006946563721, -1.1722036600112915, 0.877685546875, 0.296630859375, -0.388427734375
96, 3529662026, -7.30605936050415, -1.4832619428634644, 6.210254192352295, -0.1335061937570572, -0.7590195536613464, -1.2173075675964355, 0.877197265625, 0.29443359375, -0.387939453125
97, 3529678693, -7.299445152282715, -1.464972972869873, 6.200009346008301, -0.17439687252044678, -0.8146503567695618, -1.1491650342941284, 0.878173828125, 0.29248046875, -0.392333984375
98, 3529695360, -7.303071975708008, -1.4696446657180786, 6.193199157714844, -0.19208243489265442, -0.7743616104125977, -1.191413164138794, 0.880126953125, 0.29248046875, -0.391357421875
99, 3529712027, -7.324515342712402, -1.4700748920440674, 6.213746070861816, -0.2729417383670807, -0.726337730884552, -1.1877121925354004, 0.878173828125, 0.29443359375, -0.392822265625
100, 3529728694, -7.311384677886963, -1.4907132387161255, 6.221649646759033, -0.11583344638347626, -0.734649121761322, -1.0902303457260132, 0.878173828125, 0.2939453125, -0.391845703125
101, 3529745361, -7.302285671234131, -1.4805858135223389, 6.202959060668945, -0.10767579823732376, -0.8726374506950378, -1.0744014978408813, 0.877685546875, 0.2939453125, -0.390869140625
102, 3529762028, -7.306971073150635, -1.466915488243103, 6.201103210449219, -0.07025563716888428, -0.8731369972229004, -1.1315819025039673, 0.877685546875, 0.29443359375, -0.390380859375
103, 3529778695, -7.298207759857178, -1.4696413278579712, 6.197307586669922, -0.13273781538009644, -0.8461924195289612, -1.1149336099624634, 0.878662109375, 0.29345703125, -0.391357421875
104, 3529795362, -7.314116954803467, -1.4727537631988525, 6.2173614501953125, -0.05368421599268913, -0.9006449580192566, -1.150612235069275, 0.879638671875, 0.29296875, -0.392333984375
105, 3529812029, -7.308351039886475, -1.4716477394104004, 6.205178737640381, -0.11155610531568527, -0.7742718458175659, -1.0683183670043945, 0.879638671875, 0.29345703125, -0.391845703125
106, 3529828696, -7.307815074920654, -1.4716894626617432, 6.218799591064453, -0.13961482048034668, -0.8003072738647461, -1.0740045309066772, 0.879638671875, 0.29443359375, -0.390869140625
107, 3529845363, -7.297439098358154, -1.479681134223938, 6.205202579498291, -0.0929228737950325, -0.7879619002342224, -1.044012188911438, 0.878662109375, 0.2939453125, -0.391357421875
108, 3529862030, -7.309344291687012, -1.4535845518112183, 6.207161903381348, -0.2410283088684082, -0.750464916229248, -1.18138587474823, 0.877685546875, 0.29345703125, -0.389404296875
109, 3529878697, -7.308053493499756, -1.4590710401535034, 6.207270622253418, -0.3079542815685272, -0.6374872326850891, -1.4078789949417114, 0.880126953125, 0.29345703125, -0.390380859375
110, 3529895364, -7.302639961242676, -1.4649527072906494, 6.200880527496338, -0.3694503903388977, -0.6202371120452881, -1.4528802633285522, 0.878662109375, 0.29345703125, -0.390380859375
111, 3529912031, -7.303874969482422, -1.4887551069259644, 6.219228744506836, -0.3312362730503082, -0.6219660043716431, -1.526901125907898, 0.878173828125, 0.2919921875, -0.391845703125
112, 3529928698, -7.29269552230835, -1.4827901124954224, 6.207187652587891, -0.27484989166259766, -0.682873010635376, -1.3975698947906494, 0.877685546875, 0.2939453125, -0.390380859375
113, 3529945365, -7.297332763671875, -1.4870163202285767, 6.210620403289795, -0.16579100489616394, -0.8252795934677124, -1.2963612079620361, 0.875732421875, 0.2919921875, -0.389404296875
114, 3529962032, -7.310935974121094, -1.4881157875061035, 6.195622444152832, -0.13828295469284058, -0.758353590965271, -1.1963050365447998, 0.878662109375, 0.29296875, -0.391845703125
115, 3529978699, -7.315508842468262, -1.477498173713684, 6.2169270515441895, -0.08988776057958603, -0.8673740029335022, -1.1518927812576294, 0.879638671875, 0.2939453125, -0.390869140625
116, 3529995366, -7.305751323699951, -1.4701895713806152, 6.211856365203857, -0.12246713787317276, -0.8327072858810425, -1.108581781387329, 0.882080078125, 0.29443359375, -0.392333984375
117, 3530012033, -7.312203884124756, -1.4839754104614258, 6.207840919494629, -0.1137331873178482, -0.8323359489440918, -1.1454768180847168, 0.881103515625, 0.29345703125, -0.388916015625
118, 3530028700, -7.307421684265137, -1.4877679347991943, 6.20365047454834, -0.08432982116937637, -0.855259358882904, -1.1050087213516235, 0.878173828125, 0.2939453125, -0.391357421875
119, 3530045367, -7.295357704162598, -1.4655096530914307, 6.215124130249023, -0.11099261790513992, -0.7986807227134705, -1.100539207458496, 0.875732421875, 0.29248046875, -0.391357421875
120, 3530062034, -7.291341304779053, -1.4822193384170532, 6.219622611999512, -0.15589170157909393, -0.8993644118309021, -1.1389968395233154, 0.877197265625, 0.29345703125, -0.391357421875
121, 3530078701, -7.300654411315918, -1.4690451622009277, 6.229241371154785, -0.11249098926782608, -0.7516559958457947, -1.107749342918396, 0.877685546875, 0.29345703125, -0.391357421875
122, 3530095368, -7.294917583465576, -1.4804693460464478, 6.224146366119385, -0.13541436195373535, -0.7479164600372314, -1.1405465602874756, 0.880126953125, 0.29248046875, -0.392333984375
123, 3530112035, -7.30211877822876, -1.4763438701629639, 6.23215913772583, -0.2229713648557663, -0.7861050367355347, -1.1225022077560425, 0.879638671875, 0.29345703125, -0.390380859375
124, 3530128702, -7.310059547424316, -1.438289999961853, 6.1997456550598145, -0.2593157887458801, -0.6042163372039795, -1.2364403009414673, 0.877197265625, 0.29296875, -0.390869140625
125, 3530145369, -7.306355953216553, -1.4889353513717651, 6.207403182983398, -0.32939210534095764, -0.5412731170654297, -1.2714142799377441, 0.878662109375, 0.29150390625, -0.390869140625
126, 3530162036, -7.30963134765625, -1.481695294380188, 6.214729309082031, -0.31736695766448975, -0.5799227356910706, -1.250527262687683, 0.879638671875, 0.2919921875, -0.390380859375
127, 3530178703, -7.306915283203125, -1.473281979560852, 6.230967044830322, -0.28123387694358826, -0.6936495900154114, -1.2666568756103516, 0.880126953125, 0.29345703125, -0.389892578125
128, 3530195370, -7.30911922454834, -1.4786039590835571, 6.219566822052002, -0.12936975061893463, -0.6171892285346985, -1.1255756616592407, 0.880126953125, 0.29296875, -0.393310546875
129, 3530212037, -7.296012878417969, -1.4723789691925049, 6.226709365844727, -0.2588931620121002, -0.6126301884651184, -1.1262928247451782, 0.878173828125, 0.2919921875, -0.390869140625
130, 3530228704, -7.306156158447266, -1.4688509702682495, 6.209805011749268, -0.20700185000896454, -0.6389344334602356, -1.0598024129867554, 0.877685546875, 0.29443359375, -0.391357421875
131, 3530245371, -7.291545867919922, -1.4756207466125488, 6.218019485473633, -0.23818530142307281, -0.5548991560935974, -1.0414764881134033, 0.879150390625, 0.29541015625, -0.392333984375
132, 3530262038, -7.312642574310303, -1.4708728790283203, 6.195859909057617, -0.17510122060775757, -0.5973905920982361, -1.0135841369628906, 0.878173828125, 0.29345703125, -0.391357421875
133, 3530278705, -7.305305004119873, -1.4652613401412964, 6.19786262512207, -0.12976673245429993, -0.585160493850708, -1.0148775577545166, 0.87646484375, 0.2939453125, -0.392333984375
134, 3530295372, -7.307819843292236, -1.4654717445373535, 6.213125228881836, -0.20217382907867432, -0.7029789090156555, -1.1027803421020508, 0.878662109375, 0.29345703125, -0.390869140625
135, 3530312039, -7.305638313293457, -1.4771414995193481, 6.205451965332031, -0.13610589504241943, -0.8006017804145813, -1.091971755027771, 0.880615234375, 0.29345703125, -0.389892578125
136, 3530328706, -7.311151504516602, -1.464118480682373, 6.221966743469238, -0.16876205801963806, -0.8980196118354797, -1.0761815309524536, 0.876708984375, 0.29248046875, -0.390869140625
137, 3530345373, -7.312356948852539, -1.4639235734939575, 6.223300457000732, -0.1114792674779892, -0.8406599760055542, -1.0956729650497437, 0.87646484375, 0.294921875, -0.390869140625
138, 3530362040, -7.297287464141846, -1.4847508668899536, 6.204226493835449, -0.1319054216146469, -0.8738925457000732, -1.1516367197036743, 0.877197265625, 0.29296875, -0.392822265625
139, 3530378707, -7.30592679977417, -1.4708752632141113, 6.217144966125488, -0.24159179627895355, -0.9310088753700256, -1.2053592205047607, 0.879150390625, 0.29345703125, -0.392333984375
140, 3530395374, -7.312681674957275, -1.4711534976959229, 6.211644172668457, -0.12568151950836182, -0.8230385184288025, -1.1688098907470703, 0.880126953125, 0.2939453125, -0.391357421875
141, 3530412041, -7.291258811950684, -1.4655296802520752, 6.2077226638793945, -0.2176695168018341, -0.7203315496444702, -1.225618839263916, 0.879150390625, 0.291015625, -0.390380859375
142, 3530428708, -7.295967102050781, -1.4919798374176025, 6.219707012176514, -0.15225468575954437, -0.8428370952606201, -1.173228144645691, 0.879150390625, 0.29248046875, -0.391845703125
143, 3530445375, -7.314138412475586, -1.4629002809524536, 6.206509113311768, -0.20926856994628906, -0.8545805811882019, -1.1567975282669067, 0.877197265625, 0.29248046875, -0.392333984375
144, 3530462042, -7.313862323760986, -1.4742332696914673, 6.189818859100342, -0.20190492272377014, -0.8598310947418213, -1.0500695705413818, 0.877685546875, 0.2919921875, -0.390380859375
145, 3530478709, -7.313122272491455, -1.4712437391281128, 6.223667621612549, -0.22749201953411102, -0.9220955967903137, -1.1526994705200195, 0.878173828125, 0.29248046875, -0.393310546875
146, 3530495376, -7.2984466552734375, -1.4520584344863892, 6.228481292724609, -0.11080054193735123, -1.0526435375213623, -1.1165602207183838, 0.879638671875, 0.29443359375, -0.390869140625
147, 3530512043, -7.291933536529541, -1.4587348699569702, 6.229633808135986, -0.15171682834625244, -0.8727270364761353, -1.1469110250473022, 0.879150390625, 0.29345703125, -0.391357421875
148, 3530528710, -7.293924331665039, -1.4591403007507324, 6.22260046005249, -0.17374372482299805, -0.9137970209121704, -1.2238259315490723, 0.877685546875, 0.2939453125, -0.390869140625
149, 3530545377, -7.307427883148193, -1.4607775211334229, 6.2258195877075195, -0.20223788917064667, -0.723264217376709, -1.1744831800460815, 0.876708984375, 0.29248046875, -0.391357421875
150, 3530562044, -7.301183223724365, -1.4559857845306396, 6.236839771270752, -0.237865149974823, -0.7707758545875549, -1.195690631866455, 0.879150390625, 0.2919921875, -0.393310546875
151, 3530578711, -7.2949442863464355, -1.466974139213562, 6.218689441680908, -0.23753218352794647, -0.7903310060501099, -1.2079461812973022, 0.878173828125, 0.29345703125, -0.391357421875
152, 3530595378, -7.305957317352295, -1.4715737104415894, 6.2313055992126465, -0.12340197712182999, -0.7844017148017883, -1.1696168184280396, 0.880126953125, 0.2939453125, -0.390380859375
153, 3530612045, -7.305398464202881, -1.4560526609420776, 6.20368766784668, -0.1453392654657364, -0.7943523526191711, -1.1595637798309326, 0.878173828125, 0.29248046875, -0.393310546875
154, 3530628712, -7.30997896194458, -1.4665366411209106, 6.225291728973389, -0.19852405786514282, -0.7842481136322021, -1.2131456136703491, 0.878173828125, 0.2939453125, -0.391357421875
155, 3530645379, -7.294288158416748, -1.4562103748321533, 6.219714641571045, -0.27604085206985474, -0.7492354512214661, -1.2663942575454712, 0.877685546875, 0.29248046875, -0.391357421875
156, 3530662046, -7.305551052093506, -1.4619193077087402, 6.214236259460449, -0.3217211067676544, -0.5913204550743103, -1.3406455516815186, 0.878173828125, 0.29443359375, -0.391357421875
157, 3530678713, -7.298806190490723, -1.4773954153060913, 6.214329719543457, -0.336128294467926, -0.6083272695541382, -1.3457298278808594, 0.878173828125, 0.29150390625, -0.389892578125
158, 3530695380, -7.3068952560424805, -1.4806851148605347, 6.203948020935059, -0.29585230350494385, -0.7712752223014832, -1.3027771711349487, 0.878662109375, 0.29296875, -0.391845703125
159, 3530712047, -7.305820941925049, -1.4764740467071533, 6.22683048248291, -0.20356975495815277, -0.784004807472229, -1.2715680599212646, 0.879638671875, 0.29248046875, -0.390869140625
160, 3530728714, -7.300605297088623, -1.479828119277954, 6.228074073791504, -0.2589572072029114, -0.8301460146903992, -1.2335076332092285, 0.879638671875, 0.29443359375, -0.390869140625
161, 3530745381, -7.306000709533691, -1.4651517868041992, 6.206957817077637, -0.2752212882041931, -0.8232690095901489, -1.2734252214431763, 0.876708984375, 0.29296875, -0.392822265625
162, 3530762048, -7.299034595489502, -1.475229024887085, 6.211336135864258, -0.2605067491531372, -0.7727863788604736, -1.30925714969635, 0.880126953125, 0.29345703125, -0.391845703125
163, 3530778715, -7.290929794311523, -1.4828373193740845, 6.209173679351807, -0.2344074249267578, -0.7026844024658203, -1.3254187107086182, 0.877197265625, 0.29150390625, -0.390869140625
164, 3530795382, -7.296451568603516, -1.4704914093017578, 6.217001438140869, -0.2585602104663849, -0.5454096794128418, -1.369613528251648, 0.879638671875, 0.290283203125, -0.391845703125
165, 3530812049, -7.315893650054932, -1.4880402088165283, 6.215258598327637, -0.33612823486328125, -0.6713345050811768, -1.30124032497406, 0.879638671875, 0.29345703125, -0.390380859375
166, 3530828716, -7.294239521026611, -1.4830065965652466, 6.225775718688965, -0.23148754239082336, -0.6662631630897522, -1.3176580667495728, 0.878173828125, 0.29248046875, -0.392822265625
167, 3530845383, -7.301718235015869, -1.4774731397628784, 6.207880020141602, -0.1467863768339157, -0.748339056968689, -1.1619073152542114, 0.879150390625, 0.29443359375, -0.390380859375
168, 3530862050, -7.305731773376465, -1.4692330360412598, 6.216498851776123, -0.1842065453529358, -0.8086186051368713, -1.1553376913070679, 0.877685546875, 0.2939453125, -0.391845703125
169, 3530878717, -7.306830406188965, -1.4724929332733154, 6.219167709350586, -0.23433057963848114, -0.8158668875694275, -1.1962026357650757, 0.877685546875, 0.29296875, -0.391357421875
170, 3530895384, -7.2925825119018555, -1.4657567739486694, 6.240077972412109, -0.23270417749881744, -0.7325744032859802, -1.2177942991256714, 0.878662109375, 0.29443359375, -0.392333984375
171, 3530912051, -7.294596195220947, -1.4809238910675049, 6.206690311431885, -0.28095850348472595, -0.6817203760147095, -1.2366963624954224, 0.880126953125, 0.2939453125, -0.391845703125
172, 3530928718, -7.317009449005127, -1.470693826675415, 6.209171772003174, -0.19651344418525696, -0.6528805494308472, -1.2049880027770996, 0.877197265625, 0.294921875, -0.391845703125
173, 3530945385, -7.301477432250977, -1.4676835536956787, 6.184642314910889, -0.27504199743270874, -0.67191082239151, -1.159448504447937, 0.876708984375, 0.29296875, -0.389892578125
174, 3530962052, -7.31894588470459, -1.4582878351211548, 6.212545394897461, -0.2031983584165573, -0.7986935973167419, -1.169206976890564, 0.876708984375, 0.29345703125, -0.388427734375
175, 3530978719, -7.286365032196045, -1.4752222299575806, 6.197999477386475, -0.3383565843105316, -0.7192174196243286, -1.176481008529663, 0.876708984375, 0.2939453125, -0.390380859375
176, 3530995386, -7.301984786987305, -1.456550121307373, 6.203856945037842, -0.2607885003089905, -0.7705580592155457, -1.2077155113220215, 0.879638671875, 0.29296875, -0.392333984375
177, 3531012053, -7.285430431365967, -1.4715021848678589, 6.222644329071045, -0.3909778594970703, -0.6712576746940613, -1.2543946504592896, 0.878173828125, 0.29248046875, -0.390380859375
178, 3531028720, -7.294306755065918, -1.4785776138305664, 6.209171295166016, -0.3652498722076416, -0.6249497532844543, -1.2169103622436523, 0.877685546875, 0.29296875, -0.389892578125
179, 3531045387, -7.3005266189575195, -1.4694563150405884, 6.227296829223633, -0.23881281912326813, -0.6267300248146057, -1.1811809539794922, 0.878173828125, 0.294921875, -0.391357421875
180, 3531062054, -7.3000874519348145, -1.4807934761047363, 6.216428279876709, -0.36071643233299255, -0.5293504595756531, -1.1570408344268799, 0.878173828125, 0.29345703125, -0.392822265625
181, 3531078721, -7.311423301696777, -1.4698494672775269, 6.228535175323486, -0.3190574049949646, -0.5390704870223999, -1.147308111190796, 0.877685546875, 0.29248046875, -0.391357421875
182, 3531095388, -7.303748607635498, -1.4751228094100952, 6.209723472595215, -0.22485388815402985, -0.6785700917243958, -1.186405897140503, 0.877685546875, 0.29541015625, -0.389892578125
183, 3531112055, -7.315179824829102, -1.4707883596420288, 6.216331481933594, -0.2775135934352875, -0.7092540860176086, -1.155914068222046, 0.877197265625, 0.291015625, -0.390869140625
184, 3531128722, -7.295745849609375, -1.4680269956588745, 6.224022388458252, -0.18001887202262878, -0.7633609175682068, -1.0986055135726929, 0.876220703125, 0.29150390625, -0.390380859375
185, 3531145389, -7.307243824005127, -1.4649157524108887, 6.205844879150391, -0.29341909289360046, -0.8060060143470764, -1.170193076133728, 0.876708984375, 0.29541015625, -0.389404296875
186, 3531162056, -7.297073841094971, -1.4702882766723633, 6.191455841064453, -0.24186073243618011, -0.7842352986335754, -1.0747089385986328, 0.876220703125, 0.29248046875, -0.390380859375
187, 3531178723, -7.314817428588867, -1.4556059837341309, 6.219625473022461, -0.24435794353485107, -0.7100608944892883, -1.1955111026763916, 0.876708984375, 0.29296875, -0.389892578125
188, 3531195390, -7.301636219024658, -1.4624005556106567, 6.1994805335998535, -0.26013538241386414, -0.7645006775856018, -1.2208293676376343, 0.878662109375, 0.2919921875, -0.391357421875
189, 3531212057, -7.314009666442871, -1.465582013130188, 6.224335193634033, -0.18885521590709686, -0.7039522528648376, -1.197662591934204, 0.879150390625, 0.294921875, -0.389892578125
190, 3531228724, -7.3039937019348145, -1.4640445709228516, 6.206220626831055, -0.13569608330726624, -0.7150425314903259, -1.1435558795928955, 0.878662109375, 0.29443359375, -0.392333984375
191, 3531245391, -7.307137489318848, -1.4917200803756714, 6.21096134185791, -0.23192299902439117, -0.7250571250915527, -1.1429539918899536, 0.876708984375, 0.2939453125, -0.391845703125
192, 3531262058, -7.301370143890381, -1.4869790077209473, 6.203851222991943, -0.17571592330932617, -0.79551762342453, -1.0628118515014648, 0.877685546875, 0.29345703125, -0.389892578125
193, 3531278725, -7.288132190704346, -1.4655909538269043, 6.204864025115967, -0.1444171965122223, -0.8222700953483582, -1.0628758668899536, 0.879638671875, 0.29541015625, -0.391357421875
194, 3531295392, -7.301623344421387, -1.4810091257095337, 6.223424911499023, -0.1772783100605011, -0.7100609540939331, -1.1102849245071411, 0.880615234375, 0.2919921875, -0.392822265625
195, 3531312059, -7.295634746551514, -1.4568451642990112, 6.202961444854736, -0.20323677361011505, -0.8318108916282654, -1.1643790006637573, 0.877685546875, 0.29248046875, -0.390869140625
196, 3531328726, -7.300375938415527, -1.469322681427002, 6.214817047119141, -0.21774637699127197, -0.8376761674880981, -1.2142084836959839, 0.875244140625, 0.29296875, -0.388916015625
197, 3531345393, -7.310683250427246, -1.4667906761169434, 6.200381755828857, -0.262645423412323, -0.8864811062812805, -1.2270019054412842, 0.878173828125, 0.2939453125, -0.391357421875
198, 3531362060, -7.300321102142334, -1.4836053848266602, 6.204444885253906, -0.24165581166744232, -0.7846194505691528, -1.2626036405563354, 0.879638671875, 0.29248046875, -0.389892578125
199, 3531378727, -7.301337718963623, -1.4647603034973145, 6.220217704772949, -0.13427458703517914, -0.7766026854515076, -1.143427848815918, 0.877685546875, 0.29296875, -0.390869140625
200, 3531395394, -7.296509742736816, -1.4781826734542847, 6.192416667938232, -0.2382621318101883, -0.8340007662773132, -1.2469158172607422, 0.879150390625, 0.2919921875, -0.391357421875
201, 3531412061, -7.305933952331543, -1.468579888343811, 6.217522144317627, -0.13488928973674774, -0.7948773503303528, -1.2044501304626465, 0.878662109375, 0.29443359375, -0.389892578125
202, 3531428728, -7.290432453155518, -1.473781704902649, 6.223941326141357, -0.14804139733314514, -0.8381884098052979, -1.1915923357009888, 0.879638671875, 0.29248046875, -0.390380859375
203, 3531445395, -7.311727523803711, -1.469390869140625, 6.20244836807251, -0.21517227590084076, -0.8657733201980591, -1.1254603862762451, 0.879150390625, 0.29541015625, -0.391357421875
204, 3531462062, -7.294769763946533, -1.4719254970550537, 6.2416253089904785, -0.2592645287513733, -0.8282762765884399, -1.128969430923462, 0.876708984375, 0.2939453125, -0.391357421875
205, 3531478729, -7.305093765258789, -1.4667510986328125, 6.2099456787109375, -0.20805193483829498, -0.8160461783409119, -1.1291358470916748, 0.878662109375, 0.29541015625, -0.390380859375
206, 3531495396, -7.306629657745361, -1.459187388420105, 6.216595649719238, -0.18132512271404266, -0.7638347148895264, -1.1085433959960938, 0.879150390625, 0.29296875, -0.392822265625
207, 3531512063, -7.29455041885376, -1.475678563117981, 6.228567123413086, -0.22373975813388824, -0.8239349722862244, -1.2202147245407104, 0.877685546875, 0.29345703125, -0.39453125
208, 3531528730, -7.30056619644165, -1.4640856981277466, 6.211259841918945, -0.22578877210617065, -0.8092973232269287, -1.182922601699829, 0.878662109375, 0.2939453125, -0.392822265625
209, 3531545397, -7.298277854919434, -1.466485619544983, 6.228029251098633, -0.16389566659927368, -0.7759495973587036, -1.105623483657837, 0.878173828125, 0.29248046875, -0.390869140625
210, 3531562064, -7.302787780761719, -1.4754348993301392, 6.207879066467285, -0.1067921444773674, -0.894075334072113, -1.0802923440933228, 0.878173828125, 0.2919921875, -0.39453125
211, 3531578731, -7.3061347007751465, -1.4556711912155151, 6.220818996429443, -0.13277623057365417, -0.8369206190109253, -1.0253915786743164, 0.878173828125, 0.29296875, -0.391357421875
212, 3531595398, -7.294539928436279, -1.449300765991211, 6.2165632247924805, -0.10651040822267532, -0.7225598692893982, -1.1869181394577026, 0.878173828125, 0.291015625, -0.392822265625
213, 3531612065, -7.303730010986328, -1.4554133415222168, 6.238856792449951, -0.1371816098690033, -0.7646286487579346, -1.0602376461029053, 0.878173828125, 0.29150390625, -0.390380859375
214, 3531628732, -7.296778678894043, -1.4560637474060059, 6.217277526855469, -0.23903051018714905, -0.6649824976921082, -1.2033357620239258, 0.877197265625, 0.29248046875, -0.392822265625
215, 3531645399, -7.298373222351074, -1.4617769718170166, 6.216126441955566, -0.3259087800979614, -0.6235155463218689, -1.288805365562439, 0.876708984375, 0.2939453125, -0.391357421875
216, 3531662066, -7.297921180725098, -1.4662476778030396, 6.225296974182129, -0.31908297538757324, -0.6221196055412292, -1.241818904876709, 0.878662109375, 0.29345703125, -0.391845703125
217, 3531678733, -7.316641807556152, -1.4708969593048096, 6.220499038696289, -0.2881428599357605, -0.7837358713150024, -1.1886086463928223, 0.880126953125, 0.29296875, -0.391357421875
218, 3531695400, -7.2954182624816895, -1.451385498046875, 6.234968185424805, -0.29147255420684814, -0.8048535585403442, -1.202721357345581, 0.880126953125, 0.29052734375, -0.391845703125
219, 3531712067, -7.305410861968994, -1.4698928594589233, 6.235804557800293, -0.21985937654972076, -0.7265169024467468, -1.185675859451294, 0.877685546875, 0.29248046875, -0.390380859375
220, 3531728734, -7.298605442047119, -1.4547650814056396, 6.205083847045898, -0.26889491081237793, -0.7493636012077332, -1.1785683631896973, 0.878173828125, 0.29150390625, -0.390869140625
221, 3531745401, -7.30279016494751, -1.4682916402816772, 6.203664302825928, -0.22344519197940826, -0.7346362471580505, -1.2017734050750732, 0.875732421875, 0.29150390625, -0.391845703125
222, 3531762068, -7.311959266662598, -1.4714553356170654, 6.198695182800293, -0.2067585289478302, -0.7118921875953674, -1.2049111127853394, 0.876708984375, 0.2919921875, -0.391357421875
223, 3531778735, -7.294928073883057, -1.4572933912277222, 6.225357532501221, -0.1664697527885437, -0.7744768261909485, -1.234212040901184, 0.878662109375, 0.29150390625, -0.391845703125
224, 3531795402, -7.3091139793396, -1.4616025686264038, 6.231849193572998, -0.1735004335641861, -0.7175781726837158, -1.2112629413604736, 0.879638671875, 0.29248046875, -0.391357421875
225, 3531812069, -7.288578033447266, -1.4562041759490967, 6.218212127685547, -0.2825464904308319, -0.7452270984649658, -1.270453929901123, 0.880615234375, 0.29248046875, -0.391845703125
226, 3531828736, -7.305302619934082, -1.4679441452026367, 6.2130656242370605, -0.19927962124347687, -0.8804621696472168, -1.2310103178024292, 0.87548828125, 0.29345703125, -0.392822265625
227, 3531845403, -7.299291133880615, -1.4661591053009033, 6.219017505645752, -0.2559221088886261, -0.7458546161651611, -1.243355631828308, 0.877197265625, 0.29150390625, -0.39453125
228, 3531862070, -7.301764488220215, -1.4696125984191895, 6.222009181976318, -0.27014997601509094, -0.6518944501876831, -1.25543212890625, 0.879150390625, 0.29443359375, -0.39404296875
229, 3531878737, -7.313041687011719, -1.4608525037765503, 6.232844352722168, -0.32891830801963806, -0.5415933728218079, -1.2519487142562866, 0.878173828125, 0.29345703125, -0.392333984375
230, 3531895404, -7.294960975646973, -1.4649592638015747, 6.216701030731201, -0.3177127540111542, -0.6348236203193665, -1.3248041868209839, 0.876708984375, 0.29296875, -0.392333984375
231, 3531912071, -7.304412364959717, -1.4677927494049072, 6.200288772583008, -0.345797061920166, -0.7032735347747803, -1.2900092601776123, 0.880126953125, 0.29296875, -0.391845703125
232, 3531928738, -7.303055286407471, -1.4567995071411133, 6.220690727233887, -0.09964621067047119, -0.711725652217865, -1.240384578704834, 0.87646484375, 0.29296875, -0.392822265625
233, 3531945405, -7.295007228851318, -1.4543280601501465, 6.233346462249756, -0.2627606689929962, -0.8075428009033203, -1.2584799528121948, 0.878173828125, 0.294921875, -0.389404296875
234, 3531962072, -7.294658184051514, -1.4598667621612549, 6.231893062591553, -0.21740061044692993, -0.8649153113365173, -1.3067470788955688, 0.878662109375, 0.29345703125, -0.389404296875
235, 3531978739, -7.28850793838501, -1.455751895904541, 6.205217361450195, -0.3196593225002289, -0.6542508006095886, -1.311562418937683, 0.880615234375, 0.29345703125, -0.392333984375
236, 3531995406, -7.299386501312256, -1.4666894674301147, 6.217986583709717, -0.35847535729408264, -0.5340247750282288, -1.2837724685668945, 0.879150390625, 0.29296875, -0.390869140625
237, 3532012073, -7.29659366607666, -1.4927465915679932, 6.2208251953125, -0.3658005893230438, -0.5603162050247192, -1.1771084070205688, 0.878662109375, 0.29296875, -0.389404296875
238, 3532028740, -7.299515247344971, -1.4691812992095947, 6.216504096984863, -0.1307784467935562, -0.7059628367424011, -1.1267666816711426, 0.879638671875, 0.2919921875, -0.392333984375
239, 3532045407, -7.300053119659424, -1.4810333251953125, 6.210140228271484, -0.1107621118426323, -0.8632761240005493, -1.095429539680481, 0.876708984375, 0.29345703125, -0.391845703125
240, 3532062074, -7.2938432693481445, -1.480883240699768, 6.236275672912598, -0.09311497211456299, -0.7621699571609497, -1.057766079902649, 0.877685546875, 0.29296875, -0.392333984375
241, 3532078741, -7.32010555267334, -1.4720009565353394, 6.219470977783203, -0.20549067854881287, -0.7372230887413025, -1.0937135219573975, 0.878173828125, 0.29296875, -0.389892578125
242, 3532095408, -7.304138660430908, -1.4617817401885986, 6.2041239738464355, -0.20262207090854645, -0.6797098517417908, -1.0601353645324707, 0.878173828125, 0.2919921875, -0.391845703125
243, 3532112075, -7.298993110656738, -1.4760689735412598, 6.21513557434082, -0.2021738588809967, -0.6621010899543762, -1.1931804418563843, 0.881103515625, 0.29052734375, -0.390869140625
244, 3532128742, -7.302212715148926, -1.472838044166565, 6.22947883605957, -0.2074628621339798, -0.6848580241203308, -1.1050856113433838, 0.878173828125, 0.29345703125, -0.390869140625
245, 3532145409, -7.292901992797852, -1.4799460172653198, 6.194027423858643, -0.11922711879014969, -0.7223421931266785, -1.0359312295913696, 0.877197265625, 0.29248046875, -0.393310546875
246, 3532162076, -7.307382106781006, -1.4705555438995361, 6.219231128692627, -0.1577998548746109, -0.8197472095489502, -0.9941825866699219, 0.876708984375, 0.2919921875, -0.391845703125
247, 3532178743, -7.306625843048096, -1.4773670434951782, 6.188202381134033, -0.08125629276037216, -0.9163328409194946, -0.9804414510726929, 0.877685546875, 0.29150390625, -0.390380859375
248, 3532195410, -7.291069507598877, -1.439389705657959, 6.229154586791992, -0.08288270235061646, -0.8020361065864563, -1.0052344799041748, 0.881591796875, 0.291015625, -0.391845703125
249, 3532212077, -7.311296463012695, -1.4517003297805786, 6.223620414733887, -0.2358161062002182, -0.8607403635978699, -1.072800636291504, 0.879150390625, 0.29296875, -0.391845703125
250, 3532228744, -7.300243854522705, -1.458692193031311, 6.220328330993652, -0.1753317266702652, -0.7300003170967102, -1.0967742204666138, 0.877197265625, 0.294921875, -0.389892578125
251, 3532245411, -7.291992664337158, -1.4641287326812744, 6.2120280265808105, -0.20264767110347748, -0.7760007381439209, -1.0710206031799316, 0.8759765625, 0.29296875, -0.390869140625
252, 3532262078, -7.296098232269287, -1.4641778469085693, 6.218902587890625, -0.1436232179403305, -0.7455728650093079, -0.968352198600769, 0.877197265625, 0.291015625, -0.391845703125
253, 3532278745, -7.307122707366943, -1.4638445377349854, 6.212373733520508, -0.05406840518116951, -0.8306966423988342, -0.9613085985183716, 0.878662109375, 0.29345703125, -0.39404296875
254, 3532295412, -7.30626106262207, -1.454175353050232, 6.219707012176514, -0.14572346210479736, -0.8660294413566589, -0.9783027172088623, 0.877197265625, 0.2939453125, -0.391357421875
255, 3532312079, -7.312562942504883, -1.4745509624481201, 6.210560321807861, -0.18261855840682983, -0.90096515417099, -0.9953992366790771, 0.879638671875, 0.2919921875, -0.392333984375
256, 3532328746, -7.297751426696777, -1.447144865989685, 6.205258369445801, -0.18466757237911224, -0.8723428845405579, -0.9597461819648743, 0.8759765625, 0.29150390625, -0.3935546875
257, 3532345413, -7.307389736175537, -1.451940894126892, 6.207195281982422, -0.11806172877550125, -0.8121915459632874, -1.000752329826355, 0.877197265625, 0.29296875, -0.389892578125
258, 3532362080, -7.302773952484131, -1.4464508295059204, 6.245693206787109, -0.14587712287902832, -0.7698664665222168, -1.1534037590026855, 0.875, 0.2919921875, -0.391845703125
259, 3532378747, -7.298649311065674, -1.464840054512024, 6.222366809844971, -0.2877587080001831, -0.7935711145401001, -1.1890441179275513, 0.878173828125, 0.29150390625, -0.39453125
260, 3532395414, -7.299932479858398, -1.4463140964508057, 6.2241597175598145, -0.2329731434583664, -0.7163872122764587, -1.1193903684616089, 0.880126953125, 0.29248046875, -0.391357421875
261, 3532412081, -7.3030924797058105, -1.4642705917358398, 6.222341060638428, -0.17945536971092224, -0.8334371447563171, -1.129532814025879, 0.881103515625, 0.29052734375, -0.392822265625
262, 3532428748, -7.292821407318115, -1.4619711637496948, 6.2300543785095215, -0.17375653982162476, -0.8740845322608948, -1.0780384540557861, 0.878173828125, 0.29443359375, -0.39501953125
263, 3532445415, -7.296061992645264, -1.448128342628479, 6.208022594451904, -0.1534969061613083, -0.7387086749076843, -1.1325678825378418, 0.878173828125, 0.29150390625, -0.392333984375
264, 3532462082, -7.297452449798584, -1.443511962890625, 6.207065105438232, -0.23169250786304474, -0.6684914231300354, -1.166786551475525, 0.879150390625, 0.2919921875, -0.393310546875
265, 3532478749, -7.292112827301025, -1.4558868408203125, 6.224933624267578, -0.27574631571769714, -0.5352798104286194, -1.2342630624771118, 0.877685546875, 0.290771484375, -0.390869140625
266, 3532495416, -7.297880172729492, -1.469193458557129, 6.214183807373047, -0.23171812295913696, -0.7214586138725281, -1.1684129238128662, 0.880126953125, 0.29150390625, -0.393798828125
267, 3532512083, -7.283838748931885, -1.4562580585479736, 6.211280345916748, -0.24096430838108063, -0.8213224411010742, -1.1582703590393066, 0.880126953125, 0.29150390625, -0.392822265625
268, 3532528750, -7.312384605407715, -1.4558475017547607, 6.20967435836792, -0.1809280961751938, -0.7704684734344482, -1.1209909915924072, 0.877197265625, 0.291015625, -0.391357421875
269, 3532545417, -7.314164638519287, -1.4520750045776367, 6.229968070983887, -0.1386287361383438, -0.828673243522644, -1.243394136428833, 0.878173828125, 0.29248046875, -0.393310546875
270, 3532562084, -7.296016216278076, -1.453782081604004, 6.213335037231445, -0.2715458571910858, -0.763155996799469, -1.2743728160858154, 0.876708984375, 0.2919921875, -0.392333984375
271, 3532578751, -7.310132026672363, -1.4578452110290527, 6.221466064453125, -0.29596754908561707, -0.7781267166137695, -1.288831114768982, 0.879150390625, 0.29248046875, -0.389892578125
272, 3532595418, -7.3058180809021, -1.46770179271698, 6.217197895050049, -0.23804445564746857, -0.712212324142456, -1.2991018295288086, 0.880126953125, 0.29052734375, -0.392333984375
273, 3532612085, -7.29472017288208, -1.461214542388916, 6.216054916381836, -0.23191018402576447, -0.708152711391449, -1.2238132953643799, 0.879638671875, 0.29052734375, -0.390869140625
274, 3532628752, -7.294577121734619, -1.4561189413070679, 6.234493732452393, -0.28606823086738586, -0.7248010039329529, -1.1678622961044312, 0.877197265625, 0.291015625, -0.388427734375
275, 3532645419, -7.295562267303467, -1.4548536539077759, 6.22285795211792, -0.25808635354042053, -0.7383244633674622, -1.1823205947875977, 0.875732421875, 0.291259765625, -0.392333984375
276, 3532662086, -7.290426254272461, -1.4570740461349487, 6.230551242828369, -0.26384925842285156, -0.678851842880249, -1.1910289525985718, 0.875244140625, 0.290771484375, -0.390869140625
277, 3532678753, -7.293093204498291, -1.4614304304122925, 6.227025985717773, -0.307045042514801, -0.5827273726463318, -1.1413915157318115, 0.878173828125, 0.29150390625, -0.392333984375
278, 3532695420, -7.3053765296936035, -1.4543828964233398, 6.208302974700928, -0.27391499280929565, -0.6046902537345886, -1.2155275344848633, 0.878662109375, 0.2919921875, -0.390380859375
279, 3532712087, -7.296272277832031, -1.4690392017364502, 6.2086501121521, -0.3225919306278229, -0.6752915978431702, -1.2241716384887695, 0.879150390625, 0.29052734375, -0.392333984375
280, 3532728754, -7.303985118865967, -1.4691931009292603, 6.220564365386963, -0.1775600165128708, -0.6284459829330444, -1.173599362373352, 0.878173828125, 0.2919921875, -0.392333984375
281, 3532745421, -7.299032688140869, -1.4576525688171387, 6.2051286697387695, -0.23851826786994934, -0.7140052318572998, -1.2143621444702148, 0.87548828125, 0.29248046875, -0.392333984375
282, 3532762088, -7.300618648529053, -1.4459668397903442, 6.214807987213135, -0.2693815529346466, -0.6983558535575867, -1.2682127952575684, 0.877197265625, 0.29150390625, -0.393310546875
283, 3532778755, -7.305294513702393, -1.4581260681152344, 6.2494916915893555, -0.32248950004577637, -0.6857415437698364, -1.2434451580047607, 0.880126953125, 0.29345703125, -0.390380859375
284, 3532795422, -7.306286334991455, -1.4608243703842163, 6.216350555419922, -0.3574252128601074, -0.6890328526496887, -1.2524610757827759, 0.878662109375, 0.29150390625, -0.389892578125
285, 3532812089, -7.298923492431641, -1.4424619674682617, 6.19378137588501, -0.3127182722091675, -0.656005322933197, -1.2528965473175049, 0.879638671875, 0.29150390625, -0.393310546875
286, 3532828756, -7.302583694458008, -1.4546247720718384, 6.234124183654785, -0.33158203959465027, -0.6912996172904968, -1.2761784791946411, 0.879150390625, 0.2939453125, -0.390380859375
287, 3532845423, -7.296288013458252, -1.4571173191070557, 6.221157073974609, -0.3551713228225708, -0.54679274559021, -1.2249914407730103, 0.87646484375, 0.29296875, -0.392333984375
288, 3532862090, -7.305447101593018, -1.4534753561019897, 6.225376605987549, -0.32738152146339417, -0.5847123265266418, -1.3826887607574463, 0.878662109375, 0.29150390625, -0.390869140625
289, 3532878757, -7.30127477645874, -1.4564433097839355, 6.205626487731934, -0.4063710868358612, -0.5437448024749756, -1.3023415803909302, 0.879638671875, 0.29345703125, -0.389404296875
290, 3532895424, -7.298664569854736, -1.4648668766021729, 6.243282318115234, -0.2727881073951721, -0.6749714612960815, -1.2422672510147095, 0.880126953125, 0.29296875, -0.392822265625
291, 3532912091, -7.309354782104492, -1.4626898765563965, 6.20302152633667, -0.2762073576450348, -0.719179093837738, -1.196702241897583, 0.879150390625, 0.291015625, -0.390869140625
292, 3532928758, -7.291900634765625, -1.4550471305847168, 6.204825401306152, -0.28239279985427856, -0.7752196192741394, -1.2884851694107056, 0.877197265625, 0.2919921875, -0.391357421875
293, 3532945425, -7.300355911254883, -1.461442470550537, 6.210008144378662, -0.2994893193244934, -0.7387727499008179, -1.2523843050003052, 0.879150390625, 0.2939453125, -0.388916015625
294, 3532962092, -7.298658847808838, -1.4583990573883057, 6.2007317543029785, -0.31657296419143677, -0.5460500121116638, -1.2901374101638794, 0.879638671875, 0.29248046875, -0.391357421875
295, 3532978759, -7.29998779296875, -1.4522721767425537, 6.2357096672058105, -0.22577592730522156, -0.6396387815475464, -1.2725285291671753, 0.879638671875, 0.29296875, -0.3876953125
296, 3532995426, -7.299343109130859, -1.4647634029388428, 6.2151570320129395, -0.32420554757118225, -0.6241301894187927, -1.2364146709442139, 0.881591796875, 0.29296875, -0.391845703125
297, 3533012093, -7.299819469451904, -1.4693529605865479, 6.225548267364502, -0.21600471436977386, -0.7128525972366333, -1.2372214794158936, 0.880126953125, 0.291015625, -0.392333984375
298, 3533028760, -7.291995048522949, -1.4485527276992798, 6.234939098358154, -0.28433939814567566, -0.7435879111289978, -1.2146567106246948, 0.877685546875, 0.2939453125, -0.391357421875
299, 3533045427, -7.300966262817383, -1.4612390995025635, 6.220168113708496, -0.2850181460380554, -0.6634329557418823, -1.227821707725525, 0.878662109375, 0.29052734375, -0.390380859375
300, 3533062094, -7.298786163330078, -1.4553906917572021, 6.223372459411621, -0.29952767491340637, -0.6846145987510681, -1.299127221107483, 0.879638671875, 0.29296875, -0.390869140625
301, 3533078761, -7.300886631011963, -1.473997950553894, 6.2224321365356445, -0.30572599172592163, -0.5740958452224731, -1.3249963521957397, 0.878173828125, 0.291015625, -0.390380859375
302, 3533095428, -7.300521373748779, -1.4792777299880981, 6.21998929977417, -0.33744731545448303, -0.6530726552009583, -1.3101792335510254, 0.879638671875, 0.29248046875, -0.391357421875
303, 3533112095, -7.298122882843018, -1.4879776239395142, 6.176248550415039, -0.25298944115638733, -0.6856135129928589, -1.197099208831787, 0.878662109375, 0.29248046875, -0.391357421875
304, 3533128762, -7.29894495010376, -1.4708353281021118, 6.2148823738098145, -0.25957193970680237, -0.7094845771789551, -1.0976835489273071, 0.877197265625, 0.29296875, -0.390380859375
305, 3533145429, -7.299160003662109, -1.4641814231872559, 6.246676445007324, -0.3129103481769562, -0.5608413219451904, -1.2525634765625, 0.877197265625, 0.2919921875, -0.389892578125
306, 3533162096, -7.299315929412842, -1.4579882621765137, 6.235748291015625, -0.3388688266277313, -0.5402102470397949, -1.1817699670791626, 0.878173828125, 0.29296875, -0.390380859375
307, 3533178763, -7.319121837615967, -1.460121750831604, 6.215024948120117, -0.3240390717983246, -0.5945220589637756, -1.2376569509506226, 0.879638671875, 0.2919921875, -0.391357421875
308, 3533195430, -7.323556900024414, -1.4716094732284546, 6.215299129486084, -0.36038345098495483, -0.6571962237358093, -1.2642172574996948, 0.878662109375, 0.29150390625, -0.389404296875
309, 3533212097, -7.3044962882995605, -1.4583227634429932, 6.2165937423706055, -0.3675934970378876, -0.5932669639587402, -1.2416013479232788, 0.878662109375, 0.29296875, -0.388427734375
310, 3533228764, -7.305976867675781, -1.4601997137069702, 6.235791206359863, -0.4584161043167114, -0.4572891294956207, -1.2593635320663452, 0.878173828125, 0.29150390625, -0.389404296875
311, 3533245431, -7.31830358505249, -1.467523217201233, 6.2130818367004395, -0.36226603388786316, -0.6170867681503296, -1.2186778783798218, 0.876220703125, 0.29296875, -0.389892578125
312, 3533262098, -7.299118518829346, -1.4693487882614136, 6.215369701385498, -0.2868494391441345, -0.606803297996521, -1.2362611293792725, 0.878173828125, 0.29443359375, -0.389404296875
313, 3533278765, -7.306889533996582, -1.4728507995605469, 6.205713748931885, -0.19871611893177032, -0.7415004968643188, -1.2537031173706055, 0.878662109375, 0.29541015625, -0.390380859375
314, 3533295432, -7.321792125701904, -1.4698798656463623, 6.211128234863281, -0.2636571526527405, -0.6928619742393494, -1.2185242176055908, 0.878662109375, 0.2919921875, -0.38818359375
315, 3533312099, -7.3039870262146, -1.4686288833618164, 6.206707954406738, -0.3156124949455261, -0.7388238906860352, -1.216782569885254, 0.879638671875, 0.2919921875, -0.392333984375
316, 3533328766, -7.313426971435547, -1.4606996774673462, 6.207987308502197, -0.2662183940410614, -0.6867789030075073, -1.238911747932434, 0.876708984375, 0.29296875, -0.391357421875
317, 3533345433, -7.3098297119140625, -1.4601306915283203, 6.20420503616333, -0.3817700743675232, -0.6675821542739868, -1.3719698190689087, 0.876708984375, 0.29296875, -0.38720703125
318, 3533362100, -7.314195156097412, -1.4662902355194092, 6.212139129638672, -0.34696242213249207, -0.5305158495903015, -1.4105042219161987, 0.87841796875, 0.29541015625, -0.39404296875
319, 3533378767, -7.301547050476074, -1.4657444953918457, 6.192525863647461, -0.44017985463142395, -0.5834957361221313, -1.3582414388656616, 0.878173828125, 0.2919921875, -0.389404296875
320, 3533395434, -7.30618143081665, -1.4527032375335693, 6.2206315994262695, -0.5022650361061096, -0.5768620371818542, -1.4582592248916626, 0.879638671875, 0.2919921875, -0.389404296875
321, 3533412101, -7.321876049041748, -1.4401222467422485, 6.237270355224609, -0.5861467123031616, -0.3552737832069397, -1.6058651208877563, 0.877685546875, 0.294921875, -0.390380859375
322, 3533428768, -7.2985148429870605, -1.4834015369415283, 6.202270984649658, -0.5548223257064819, -0.33911213278770447, -1.5199472904205322, 0.878173828125, 0.29248046875, -0.38720703125
323, 3533445435, -7.3087968826293945, -1.4834096431732178, 6.167654991149902, -0.48667973279953003, -0.4253372848033905, -1.441367506980896, 0.877685546875, 0.29248046875, -0.388916015625
324, 3533462102, -7.2978315353393555, -1.4801301956176758, 6.190361499786377, -0.3632008731365204, -0.5557443499565125, -1.3363553285598755, 0.878662109375, 0.29443359375, -0.390380859375
325, 3533478769, -7.29657506942749, -1.4871770143508911, 6.191033363342285, -0.3106820583343506, -0.6288045644760132, -1.3150840997695923, 0.878173828125, 0.29296875, -0.389892578125
326, 3533495436, -7.308733940124512, -1.4827498197555542, 6.215692520141602, -0.24962137639522552, -0.6616144180297852, -1.2482733726501465, 0.878662109375, 0.29150390625, -0.392822265625
327, 3533512103, -7.304673671722412, -1.4720135927200317, 6.198517799377441, -0.21775919198989868, -0.741897463798523, -1.1412506103515625, 0.879150390625, 0.29296875, -0.389892578125
328, 3533528770, -7.308027267456055, -1.4779534339904785, 6.213942050933838, -0.3029598295688629, -0.7725430727005005, -1.2295633554458618, 0.877685546875, 0.29248046875, -0.3876953125
329, 3533545437, -7.31774377822876, -1.4748971462249756, 6.214990139007568, -0.2986312806606293, -0.7688292860984802, -1.3173508644104004, 0.879150390625, 0.2939453125, -0.390869140625
330, 3533562104, -7.31532096862793, -1.4699171781539917, 6.1902055740356445, -0.300577849149704, -0.6954744458198547, -1.1729975938796997, 0.875, 0.29443359375, -0.390380859375
331, 3533578771, -7.314573764801025, -1.4726381301879883, 6.207428932189941, -0.178200364112854, -0.7509899735450745, -1.2040404081344604, 0.879150390625, 0.29443359375, -0.390869140625
332, 3533595438, -7.307760238647461, -1.4791587591171265, 6.193938732147217, -0.1816708892583847, -0.830197274684906, -1.1184810400009155, 0.880126953125, 0.29296875, -0.392333984375
333, 3533612105, -7.29901123046875, -1.4578522443771362, 6.188232421875, -0.27035486698150635, -0.7896651029586792, -1.170897364616394, 0.880126953125, 0.29248046875, -0.388916015625
334, 3533628772, -7.287454128265381, -1.4742050170898438, 6.216461181640625, -0.25137582421302795, -0.6852165460586548, -1.286820411682129, 0.878173828125, 0.29248046875, -0.389404296875
335, 3533645439, -7.2974162101745605, -1.4863755702972412, 6.210559844970703, -0.24679116904735565, -0.7069104909896851, -1.3073362112045288, 0.878662109375, 0.29345703125, -0.388916015625
336, 3533662106, -7.299318313598633, -1.4816491603851318, 6.199707508087158, -0.28381428122520447, -0.6700025200843811, -1.3243684768676758, 0.876708984375, 0.2939453125, -0.388427734375
337, 3533678773, -7.318813800811768, -1.4728646278381348, 6.219208240509033, -0.2895643711090088, -0.6903263330459595, -1.2328288555145264, 0.880126953125, 0.29345703125, -0.391357421875
338, 3533695440, -7.3048481941223145, -1.487073540687561, 6.200401782989502, -0.29586508870124817, -0.5773101449012756, -1.253126859664917, 0.879638671875, 0.29345703125, -0.389892578125
339, 3533712107, -7.291252613067627, -1.4844845533370972, 6.191718578338623, -0.27688607573509216, -0.7510924339294434, -1.1460275650024414, 0.878662109375, 0.2939453125, -0.3876953125
340, 3533728774, -7.320776462554932, -1.4763466119766235, 6.19996452331543, -0.1583121120929718, -0.7411035299301147, -1.1684513092041016, 0.879638671875, 0.29248046875, -0.390380859375
341, 3533745441, -7.3086137771606445, -1.4713131189346313, 6.207952499389648, -0.1956426054239273, -0.7793559432029724, -1.2278728485107422, 0.876708984375, 0.29345703125, -0.388916015625
342, 3533762108, -7.305916786193848, -1.491143822669983, 6.2229509353637695, -0.18925224244594574, -0.6691830158233643, -1.2188442945480347, 0.877685546875, 0.29296875, -0.387939453125
343, 3533778775, -7.298930644989014, -1.481702208518982, 6.193742275238037, -0.21682432293891907, -0.6628182530403137, -1.1700137853622437, 0.877685546875, 0.2939453125, -0.389892578125
344, 3533795442, -7.317047119140625, -1.4783835411071777, 6.185140609741211, -0.20295503735542297, -0.727912962436676, -1.0783458948135376, 0.879638671875, 0.2939453125, -0.388427734375
345, 3533812109, -7.319981575012207, -1.4779813289642334, 6.19764518737793, -0.1982807070016861, -0.6520609259605408, -1.1718450784683228, 0.879638671875, 0.2939453125, -0.390869140625
346, 3533828776, -7.295156955718994, -1.4820791482925415, 6.207314968109131, -0.1054602861404419, -0.7722997665405273, -1.0059515237808228, 0.878173828125, 0.2939453125, -0.389892578125
347, 3533845443, -7.311639785766602, -1.4704242944717407, 6.194462299346924, -0.09819908440113068, -0.7467253804206848, -1.0185914039611816, 0.876708984375, 0.2939453125, -0.390380859375
348, 3533862110, -7.314610481262207, -1.4687080383300781, 6.21248722076416, -0.13027898967266083, -0.7198065519332886, -1.052297830581665, 0.878662109375, 0.29248046875, -0.390869140625
349, 3533878777, -7.310296535491943, -1.4700665473937988, 6.230923652648926, -0.2152107208967209, -0.6461572051048279, -1.1562597751617432, 0.879638671875, 0.29248046875, -0.389404296875
350, 3533895444, -7.310947895050049, -1.4716509580612183, 6.196664810180664, -0.213994100689888, -0.6289966702461243, -1.1644428968429565, 0.881103515625, 0.29248046875, -0.391845703125
351, 3533912111, -7.308351993560791, -1.4851442575454712, 6.177775859832764, -0.16764792799949646, -0.7016471028327942, -1.1340792179107666, 0.880615234375, 0.29443359375, -0.389892578125
352, 3533928778, -7.310276985168457, -1.4827905893325806, 6.214005470275879, -0.16876205801963806, -0.7310632467269897, -1.1950243711471558, 0.878173828125, 0.29296875, -0.388916015625
353, 3533945445, -7.312668323516846, -1.4659686088562012, 6.213473796844482, -0.29678717255592346, -0.6428787112236023, -1.1809120178222656, 0.876708984375, 0.2919921875, -0.389404296875
354, 3533962112, -7.325527191162109, -1.4791746139526367, 6.211047172546387, -0.21846354007720947, -0.7378122210502625, -1.1821030378341675, 0.877197265625, 0.29248046875, -0.387939453125
355, 3533978779, -7.3022260665893555, -1.4591933488845825, 6.211446762084961, -0.23652048408985138, -0.6409706473350525, -1.2258238792419434, 0.879638671875, 0.29248046875, -0.38818359375
356, 3533995446, -7.316773891448975, -1.4754974842071533, 6.210427761077881, -0.23554718494415283, -0.7869758009910583, -1.3067855834960938, 0.881103515625, 0.29248046875, -0.388916015625
357, 3534012113, -7.298559188842773, -1.4884774684906006, 6.1727166175842285, -0.20707866549491882, -0.7879106998443604, -1.230626106262207, 0.879638671875, 0.29248046875, -0.391357421875
358, 3534028780, -7.310801982879639, -1.4620461463928223, 6.183874130249023, -0.24709853529930115, -0.8126140832901001, -1.232956886291504, 0.879150390625, 0.29248046875, -0.390869140625
359, 3534045447, -7.307852745056152, -1.4650623798370361, 6.205780982971191, -0.2920359671115875, -0.7600569128990173, -1.306580662727356, 0.87548828125, 0.29345703125, -0.390869140625
360, 3534062114, -7.32432746887207, -1.4633022546768188, 6.200014591217041, -0.34685999155044556, -0.6759575605392456, -1.3292350769042969, 0.880126953125, 0.2939453125, -0.388427734375
361, 3534078781, -7.294919013977051, -1.472428321838379, 6.189056873321533, -0.21035711467266083, -0.5973009467124939, -1.2971806526184082, 0.880615234375, 0.29443359375, -0.388427734375
362, 3534095448, -7.3175249099731445, -1.4894845485687256, 6.215487003326416, -0.347231388092041, -0.59440678358078, -1.356704831123352, 0.879150390625, 0.2919921875, -0.390869140625
363, 3534112115, -7.306648254394531, -1.4849048852920532, 6.1967644691467285, -0.30074432492256165, -0.71150803565979, -1.270338535308838, 0.879150390625, 0.29443359375, -0.387939453125
364, 3534128782, -7.299462795257568, -1.4785501956939697, 6.212806701660156, -0.3308904469013214, -0.6506906151771545, -1.3848787546157837, 0.878662109375, 0.29443359375, -0.389892578125
365, 3534145449, -7.29808235168457, -1.4712886810302734, 6.227639675140381, -0.3541339635848999, -0.6959354281425476, -1.3740956783294678, 0.87646484375, 0.2939453125, -0.390869140625
366, 3534162116, -7.31001615524292, -1.4631520509719849, 6.174891948699951, -0.24309013783931732, -0.6969856023788452, -1.3619425296783447, 0.878662109375, 0.29296875, -0.388916015625
367, 3534178783, -7.303536415100098, -1.4711686372756958, 6.2192182540893555, -0.2925354242324829, -0.7068336606025696, -1.3504550457000732, 0.880126953125, 0.294921875, -0.391357421875
368, 3534195450, -7.297378063201904, -1.4862734079360962, 6.191566467285156, -0.4027853310108185, -0.7028253078460693, -1.471321702003479, 0.879150390625, 0.2939453125, -0.389404296875
369, 3534212117, -7.3145599365234375, -1.4833847284317017, 6.221177577972412, -0.4603370428085327, -0.5437832474708557, -1.479299783706665, 0.881103515625, 0.2919921875, -0.388916015625
370, 3534228784, -7.309176445007324, -1.4710266590118408, 6.200972080230713, -0.4459041953086853, -0.5243303775787354, -1.561093807220459, 0.878662109375, 0.29248046875, -0.391357421875
371, 3534245451, -7.309719562530518, -1.494635820388794, 6.196745872497559, -0.3633033335208893, -0.5641068816184998, -1.481054425239563, 0.876708984375, 0.29345703125, -0.388427734375
372, 3534262118, -7.308521270751953, -1.4819928407669067, 6.202696323394775, -0.3654419779777527, -0.676277756690979, -1.4600776433944702, 0.877685546875, 0.2939453125, -0.388427734375
373, 3534278785, -7.319948196411133, -1.4814428091049194, 6.223899841308594, -0.3926810920238495, -0.6628695130348206, -1.343117117881775, 0.878662109375, 0.29296875, -0.388427734375
374, 3534295452, -7.32044792175293, -1.488761067390442, 6.212005615234375, -0.38990211486816406, -0.5731354355812073, -1.4235409498214722, 0.877685546875, 0.2939453125, -0.390869140625
375, 3534312119, -7.311245441436768, -1.487269401550293, 6.1974287033081055, -0.4472617506980896, -0.4696216285228729, -1.467556357383728, 0.879638671875, 0.2919921875, -0.390380859375
376, 3534328786, -7.3125810623168945, -1.4894782304763794, 6.181192398071289, -0.4913540482521057, -0.5999774932861328, -1.5734139680862427, 0.878662109375, 0.2958984375, -0.389404296875
377, 3534345453, -7.324138641357422, -1.481695294380188, 6.1770920753479, -0.4406280517578125, -0.5292736887931824, -1.5071665048599243, 0.877685546875, 0.2958984375, -0.388916015625
378, 3534362120, -7.3096699714660645, -1.491863489151001, 6.191894054412842, -0.3918743133544922, -0.5292223691940308, -1.509984016418457, 0.879638671875, 0.29443359375, -0.389404296875
379, 3534378787, -7.31874418258667, -1.4873796701431274, 6.194774627685547, -0.3923993706703186, -0.5430276989936829, -1.492490530014038, 0.879638671875, 0.294921875, -0.38671875
380, 3534395454, -7.3082594871521, -1.4952611923217773, 6.192671298980713, -0.340175062417984, -0.6623700261116028, -1.358561635017395, 0.880615234375, 0.29443359375, -0.3876953125
381, 3534412121, -7.317447662353516, -1.5107914209365845, 6.206548690795898, -0.3088635206222534, -0.6951798796653748, -1.2894072532653809, 0.879150390625, 0.294921875, -0.389404296875
382, 3534428788, -7.315995216369629, -1.4940935373306274, 6.199097156524658, -0.16672585904598236, -0.7799195051193237, -1.2515517473220825, 0.879638671875, 0.29443359375, -0.3876953125
383, 3534445455, -7.320160388946533, -1.5036979913711548, 6.202334403991699, -0.24351273477077484, -0.8103345632553101, -1.2329823970794678, 0.878662109375, 0.2958984375, -0.388916015625
384, 3534462122, -7.31846809387207, -1.505447506904602, 6.196953296661377, -0.2275688350200653, -0.9486175775527954, -1.2794440984725952, 0.878173828125, 0.294921875, -0.389892578125
385, 3534478789, -7.311664581298828, -1.481041431427002, 6.197007656097412, -0.06281515210866928, -0.9112614393234253, -1.1761606931686401, 0.879150390625, 0.29541015625, -0.389404296875
386, 3534495456, -7.311323642730713, -1.4843040704727173, 6.1826090812683105, -0.020477354526519775, -0.8225262761116028, -1.0245336294174194, 0.878662109375, 0.294921875, -0.390380859375
387, 3534512123, -7.306873798370361, -1.4920032024383545, 6.231994152069092, -0.12061019986867905, -0.8165329098701477, -1.0371350049972534, 0.880615234375, 0.294921875, -0.390380859375
388, 3534528790, -7.298755645751953, -1.4752297401428223, 6.216728687286377, -0.3477180004119873, -0.5200785994529724, -1.0967998504638672, 0.880615234375, 0.29541015625, -0.389892578125
389, 3534545457, -7.3224873542785645, -1.46882963180542, 6.211783409118652, -0.7188844680786133, -0.07860537618398666, -1.6049046516418457, 0.877197265625, 0.29443359375, -0.387939453125
390, 3534562124, -7.311534404754639, -1.4725924730300903, 6.192665100097656, -1.0621458292007446, 0.3345339000225067, -2.0036046504974365, 0.878173828125, 0.296630859375, -0.387939453125
391, 3534578791, -7.326886177062988, -1.5075701475143433, 6.217447280883789, -1.3559491634368896, 0.4287630319595337, -2.3480570316314697, 0.879150390625, 0.294921875, -0.38671875
392, 3534595458, -7.332518100738525, -1.5080324411392212, 6.206209659576416, -1.1505992412567139, 0.44635888934135437, -2.199861764907837, 0.879150390625, 0.29541015625, -0.389404296875
393, 3534612125, -7.328555107116699, -1.5194281339645386, 6.171804428100586, -1.1038304567337036, 0.2326337695121765, -2.103071689605713, 0.879638671875, 0.300048828125, -0.388427734375
394, 3534628792, -7.326561450958252, -1.5059210062026978, 6.172574996948242, -1.1127309799194336, 0.2322111427783966, -1.978568196296692, 0.878173828125, 0.297119140625, -0.387939453125
395, 3534645459, -7.325920104980469, -1.540887713432312, 6.178443908691406, -0.8836764693260193, -0.06321214139461517, -1.8285930156707764, 0.878173828125, 0.297119140625, -0.387939453125
396, 3534662126, -7.347230434417725, -1.5369874238967896, 6.167081356048584, -0.7912018895149231, -0.6309559941291809, -1.6836763620376587, 0.880126953125, 0.296142578125, -0.38720703125
397, 3534678793, -7.299399375915527, -1.507466197013855, 6.164761543273926, -0.43108731508255005, -0.7496964335441589, -1.4018981456756592, 0.880615234375, 0.297119140625, -0.38671875
398, 3534695460, -7.335202693939209, -1.5161738395690918, 6.192166805267334, -0.25319433212280273, -0.7480189204216003, -1.357818841934204, 0.881591796875, 0.295654296875, -0.38720703125
399, 3534712127, -7.335231304168701, -1.515869379043579, 6.178359508514404, -0.2993612587451935, -0.5900909900665283, -1.3394930362701416, 0.878662109375, 0.2958984375, -0.388427734375
400, 3534728794, -7.314269542694092, -1.521233320236206, 6.178792953491211, -0.26269662380218506, -0.6385373473167419, -1.2763960361480713, 0.878173828125, 0.296630859375, -0.38427734375
401, 3534745461, -7.308955669403076, -1.517275333404541, 6.191901206970215, -0.2179768681526184, -0.759403645992279, -1.2338789701461792, 0.878173828125, 0.298095703125, -0.387451171875
402, 3534762128, -7.32809591293335, -1.5109601020812988, 6.158180236816406, -0.014573626220226288, -0.8689621090888977, -0.9895339012145996, 0.878662109375, 0.297607421875, -0.38525390625
403, 3534778795, -7.3318939208984375, -1.5265552997589111, 6.178682327270508, -0.15416283905506134, -0.8378553986549377, -1.1973423957824707, 0.877197265625, 0.297607421875, -0.38623046875
404, 3534795462, -7.317101955413818, -1.5102821588516235, 6.154307842254639, -0.23561124503612518, -0.7402710914611816, -1.1841391324996948, 0.882080078125, 0.297119140625, -0.38720703125
405, 3534812129, -7.320956230163574, -1.5091242790222168, 6.162113666534424, -0.2791655957698822, -0.7131855487823486, -1.3053256273269653, 0.881591796875, 0.296142578125, -0.387939453125
406, 3534828796, -7.307319641113281, -1.519835114479065, 6.179603576660156, -0.37481623888015747, -0.6101329326629639, -1.319169282913208, 0.878173828125, 0.296142578125, -0.387451171875
407, 3534845463, -7.315796852111816, -1.510701298713684, 6.18628454208374, -0.44936203956604004, -0.5317324995994568, -1.4824247360229492, 0.877685546875, 0.2958984375, -0.389404296875
408, 3534862130, -7.331425666809082, -1.5195220708847046, 6.179243564605713, -0.43541592359542847, -0.5029566287994385, -1.5391440391540527, 0.879150390625, 0.297119140625, -0.388427734375
409, 3534878797, -7.32186222076416, -1.510176420211792, 6.192403316497803, -0.41761505603790283, -0.5954440236091614, -1.3991576433181763, 0.879638671875, 0.297119140625, -0.387939453125
410, 3534895464, -7.31962776184082, -1.5068771839141846, 6.167486190795898, -0.32574233412742615, -0.6733067035675049, -1.4235795736312866, 0.881591796875, 0.296142578125, -0.38671875
411, 3534912131, -7.333335876464844, -1.5175527334213257, 6.183781623840332, -0.29352155327796936, -0.7540507316589355, -1.3741981983184814, 0.879150390625, 0.296142578125, -0.388427734375
412, 3534928798, -7.320342063903809, -1.5213669538497925, 6.206706523895264, -0.4687636196613312, -0.5895402431488037, -1.3823556900024414, 0.878173828125, 0.298095703125, -0.38720703125
413, 3534945465, -7.323957443237305, -1.510304570198059, 6.164577484130859, -0.4418318569660187, -0.5995036959648132, -1.4573626518249512, 0.879638671875, 0.298095703125, -0.387939453125
414, 3534962132, -7.3233323097229, -1.5110316276550293, 6.19352912902832, -0.44977179169654846, -0.49045759439468384, -1.4527138471603394, 0.879638671875, 0.298583984375, -0.38720703125
415, 3534978799, -7.319211483001709, -1.5336629152297974, 6.1885786056518555, -0.4367605745792389, -0.4675726592540741, -1.430482029914856, 0.878662109375, 0.297119140625, -0.38623046875
416, 3534995466, -7.332327842712402, -1.5313316583633423, 6.176537990570068, -0.36673545837402344, -0.6262561082839966, -1.4441720247268677, 0.879638671875, 0.297119140625, -0.3857421875
417, 3535012133, -7.32606315612793, -1.531818151473999, 6.166478157043457, -0.25484636425971985, -0.5447565317153931, -1.34293794631958, 0.876708984375, 0.297119140625, -0.384765625
418, 3535028800, -7.31709098815918, -1.5154752731323242, 6.179357051849365, -0.20802634954452515, -0.5721877217292786, -1.3122026920318604, 0.878662109375, 0.297119140625, -0.3857421875
419, 3535045467, -7.33637809753418, -1.5136083364486694, 6.18281888961792, -0.28819406032562256, -0.342928409576416, -1.3497765064239502, 0.877197265625, 0.2958984375, -0.38671875
420, 3535062134, -7.317553997039795, -1.536887764930725, 6.173792362213135, -0.27228862047195435, -0.324858695268631, -1.2229552268981934, 0.878173828125, 0.297119140625, -0.387939453125
421, 3535078801, -7.313060283660889, -1.530853509902954, 6.153217792510986, 0.12233263999223709, -0.7411674857139587, -0.8378553986549377, 0.880126953125, 0.30126953125, -0.386962890625
422, 3535095468, -7.311375617980957, -1.5680546760559082, 6.135068893432617, 1.0656228065490723, -1.6326557397842407, 0.17106081545352936, 0.880615234375, 0.300537109375, -0.389404296875
423, 3535112135, -7.339755058288574, -1.566121220588684, 6.161135196685791, 1.6124281883239746, -2.5584912300109863, 1.0342471599578857, 0.881591796875, 0.297119140625, -0.38671875
424, 3535128802, -7.331747055053711, -1.5253580808639526, 6.204506874084473, 2.0119612216949463, -3.1123275756835938, 1.4557428359985352, 0.879150390625, 0.29541015625, -0.38671875
425, 3535145469, -7.317681312561035, -1.471359133720398, 6.204236030578613, 2.12154483795166, -3.5675926208496094, 1.736355185508728, 0.876953125, 0.294921875, -0.390869140625
426, 3535162136, -7.312113285064697, -1.4776251316070557, 6.205615520477295, 1.9863864183425903, -3.2884528636932373, 1.5182759761810303, 0.877197265625, 0.2939453125, -0.388427734375
427, 3535178803, -7.293972492218018, -1.4358681440353394, 6.240494251251221, 1.4057977199554443, -2.325876235961914, 1.0481164455413818, 0.881103515625, 0.29248046875, -0.392333984375
428, 3535195470, -7.311805725097656, -1.4274293184280396, 6.212193965911865, 0.5375016927719116, -1.1672989130020142, 0.21036352217197418, 0.880615234375, 0.29296875, -0.391357421875
429, 3535212137, -7.30903434753418, -1.456024169921875, 6.235646724700928, -0.15990008413791656, -0.09187275171279907, -0.3573355972766876, 0.877197265625, 0.2919921875, -0.389892578125
430, 3535228804, -7.310703277587891, -1.4497004747390747, 6.20615816116333, -0.4486192762851715, 0.44738346338272095, -0.5793464779853821, 0.876708984375, 0.29296875, -0.390869140625
431, 3535245471, -7.304015159606934, -1.4704022407531738, 6.180422782897949, -0.44407302141189575, 0.29040321707725525, -0.7534488439559937, 0.877197265625, 0.291015625, -0.390869140625
432, 3535262138, -7.3205718994140625, -1.46739661693573, 6.19740629196167, -0.20803914964199066, -0.060612455010414124, -0.5266098976135254, 0.879150390625, 0.29443359375, -0.389892578125
433, 3535278805, -7.347808361053467, -1.4311875104904175, 6.212214469909668, 0.014887381345033646, -0.2652834951877594, -0.20785987377166748, 0.880126953125, 0.291015625, -0.389404296875
434, 3535295472, -7.3368682861328125, -1.4702646732330322, 6.219385623931885, 0.05399797111749649, -0.5588050484657288, -0.27735990285873413, 0.879150390625, 0.29150390625, -0.390869140625
435, 3535312139, -7.343721866607666, -1.4321963787078857, 6.206385612487793, 0.2852037847042084, -1.1064941883087158, -0.3111814856529236, 0.880126953125, 0.29345703125, -0.390380859375
436, 3535328806, -7.347930908203125, -1.4331798553466797, 6.2087202072143555, 0.5312010049819946, -2.0098159313201904, -0.5404280424118042, 0.877685546875, 0.29296875, -0.390869140625
437, 3535345473, -7.458268165588379, -1.240271806716919, 6.37025260925293, 1.9166947603225708, -3.440464973449707, -0.606239914894104, 0.878662109375, 0.29248046875, -0.390869140625
438, 3535362140, -7.478610992431641, -1.4092433452606201, 6.307997703552246, 5.736662864685059, -5.776496887207031, 0.5115177035331726, 0.875732421875, 0.289794921875, -0.39453125
439, 3535378807, -7.587899208068848, -1.8720248937606812, 6.033640384674072, 6.361987113952637, -9.473554611206055, 4.6144185066223145, 0.876708984375, 0.288818359375, -0.393310546875
440, 3535395474, -7.1370391845703125, -1.749556303024292, 6.1277031898498535, 4.5548834800720215, -13.246105194091797, 6.944153308868408, 0.876708984375, 0.2841796875, -0.39794921875
441, 3535412141, -6.875664234161377, -1.272668480873108, 6.230040073394775, 2.597686290740967, -12.84688949584961, 3.9463748931884766, 0.877197265625, 0.28271484375, -0.39794921875
442, 3535428808, -6.881187438964844, -0.6472697257995605, 6.4270429611206055, -0.5396853089332581, -7.956805229187012, -1.950228214263916, 0.874755859375, 0.28173828125, -0.402099609375
443, 3535445475, -7.02703332901001, -0.9540837407112122, 6.355569362640381, -2.8622963428497314, -2.20033597946167, -7.580142974853516, 0.876708984375, 0.2841796875, -0.401611328125
444, 3535462142, -7.0522379875183105, -1.156175136566162, 6.459689140319824, -5.525301933288574, 1.9843000173568726, -10.183268547058105, 0.8740234375, 0.2861328125, -0.400634765625
445, 3535478809, -7.332403182983398, -1.9013476371765137, 6.134734630584717, -4.057641506195068, 2.4029905796051025, -5.711710453033447, 0.873046875, 0.287841796875, -0.403076171875
446, 3535495476, -7.341725826263428, -2.22892165184021, 6.006203651428223, -0.007222781889140606, -2.927122116088867, 2.120917320251465, 0.87353515625, 0.287841796875, -0.402099609375
447, 3535512143, -7.2511796951293945, -1.5545589923858643, 6.313121795654297, 2.442600727081299, -6.26251220703125, 6.633198261260986, 0.8701171875, 0.2861328125, -0.403564453125
448, 3535528810, -7.151683330535889, -1.05683434009552, 6.56306266784668, 1.27055025100708, -3.888162136077881, 4.919515609741211, 0.8720703125, 0.2841796875, -0.40576171875
449, 3535545477, -7.157153129577637, -0.9193228483200073, 6.62203311920166, -2.283461570739746, 2.501316785812378, 0.5785844922065735, 0.87109375, 0.287109375, -0.401123046875
450, 3535562144, -7.119587421417236, -1.328140139579773, 6.348962783813477, -5.989557266235352, 6.881999969482422, -3.7442448139190674, 0.8740234375, 0.287841796875, -0.3994140625
451, 3535578811, -7.256795883178711, -1.5115211009979248, 6.112005710601807, -8.111199378967285, 7.508206844329834, -5.398775577545166, 0.8720703125, 0.289306640625, -0.3955078125
452, 3535595478, -7.402889251708984, -1.764187216758728, 6.039544582366943, -7.954014301300049, 4.736180305480957, -4.598249912261963, 0.87255859375, 0.29248046875, -0.39404296875
453, 3535612145, -7.38726282119751, -1.5941550731658936, 6.170590877532959, -6.1566162109375, 2.2427444458007812, -3.5265111923217773, 0.873046875, 0.296875, -0.391357421875
454, 3535628812, -7.280768394470215, -1.5907907485961914, 6.201749324798584, -5.73134183883667, 2.089221715927124, -3.1019673347473145, 0.870361328125, 0.298583984375, -0.390869140625
455, 3535645479, -7.229113578796387, -1.5896028280258179, 6.211591720581055, -7.292410373687744, 4.56315279006958, -4.373983860015869, 0.871337890625, 0.301025390625, -0.39453125
456, 3535662146, -7.2508368492126465, -1.5654222965240479, 6.313930034637451, -9.687484741210938, 7.938231945037842, -6.0187578201293945, 0.869384765625, 0.302001953125, -0.389892578125
457, 3535678813, -7.231562614440918, -1.6762213706970215, 6.372051239013672, -12.063956260681152, 13.458843231201172, -7.516850471496582, 0.872802734375, 0.3056640625, -0.38330078125
458, 3535695480, -7.377545356750488, -1.992876410484314, 6.204052925109863, -9.932272911071777, 16.38250160217285, -3.7122459411621094, 0.87451171875, 0.30712890625, -0.37939453125
459, 3535712147, -7.4569597244262695, -2.322604179382324, 5.956337928771973, -7.1375226974487305, 14.55688190460205, 2.6678788661956787, 0.8759765625, 0.306884765625, -0.376220703125
460, 3535728814, -7.574272632598877, -1.462551474571228, 5.984853267669678, -5.164969444274902, 8.639647483825684, 6.496350288391113, 0.877685546875, 0.307373046875, -0.3701171875
461, 3535745481, -7.552803993225098, -0.6503117084503174, 6.183785438537598, -5.668744087219238, 4.741391658782959, 0.548067033290863, 0.875732421875, 0.306884765625, -0.36865234375
462, 3535762148, -7.432039737701416, -1.2990168333053589, 6.328743934631348, -8.542378425598145, 7.395780086517334, -7.804117202758789, 0.875732421875, 0.308349609375, -0.364013671875
463, 3535778815, -7.3039398193359375, -2.4689602851867676, 6.0313286781311035, -9.746650695800781, 9.724092483520508, -4.60288667678833, 0.876220703125, 0.3115234375, -0.36083984375
464, 3535795482, -7.260669231414795, -2.8710391521453857, 5.632678508758545, -4.902272701263428, 6.487386226654053, 8.184804916381836, 0.88134765625, 0.308837890625, -0.3603515625
465, 3535812149, -7.432610511779785, -1.448020339012146, 6.102160930633545, 1.0110174417495728, 0.868841290473938, 17.40975570678711, 0.8798828125, 0.304931640625, -0.355712890625
466, 3535828816, -7.507551193237305, -0.5706319212913513, 6.367098331451416, -0.8467819690704346, 6.622941970825195, 11.513766288757324, 0.8798828125, 0.30126953125, -0.357177734375
467, 3535845483, -7.606655597686768, -0.6441176533699036, 6.2582855224609375, -4.736572742462158, 13.962112426757812, 2.287004232406616, 0.87939453125, 0.299072265625, -0.35205078125
468, 3535862150, -7.644812107086182, -0.7147876620292664, 6.1207709312438965, -7.578142166137695, 16.897945404052734, -7.5555901527404785, 0.881103515625, 0.30078125, -0.347900390625
469, 3535878817, -7.702916145324707, -1.522902250289917, 5.602483749389648, -7.5060038566589355, 14.999348640441895, -11.415083885192871, 0.882568359375, 0.302734375, -0.341796875
470, 3535895484, -7.6253838539123535, -1.6468888521194458, 5.332694053649902, -4.707321643829346, 6.639204978942871, -9.627997398376465, 0.885009765625, 0.307861328125, -0.3388671875
471, 3535912151, -7.6207380294799805, -1.6176894903182983, 5.555433750152588, -1.0080647468566895, -1.7552001476287842, -6.241367816925049, 0.884033203125, 0.306884765625, -0.3369140625
472, 3535928818, -7.626640319824219, -1.2359503507614136, 5.803852558135986, -1.0229204893112183, -8.079851150512695, -7.2064056396484375, 0.882080078125, 0.310546875, -0.33935546875
473, 3535945485, -7.532135009765625, -1.3840290307998657, 5.769882678985596, -3.6988227367401123, -11.63332462310791, -10.570255279541016, 0.8818359375, 0.3125, -0.342529296875
474, 3535962152, -7.415075778961182, -1.8810263872146606, 5.484593868255615, -0.7478918433189392, -18.18601417541504, -6.787848472595215, 0.87939453125, 0.3134765625, -0.34912109375
475, 3535978819, -7.363379001617432, -2.0287392139434814, 5.815075397491455, 4.2829813957214355, -20.16132164001465, -4.347954750061035, 0.880615234375, 0.31494140625, -0.353759765625
476, 3535995486, -7.3063812255859375, -1.8743592500686646, 6.253452777862549, 6.673068046569824, -13.461263656616211, -1.9400994777679443, 0.880615234375, 0.315185546875, -0.35791015625
477, 3536012153, -7.412103176116943, -1.568055272102356, 6.44563102722168, 5.1875901222229, -4.870498180389404, -1.790596604347229, 0.878662109375, 0.31396484375, -0.3603515625
478, 3536028820, -7.428903102874756, -1.7080891132354736, 6.348388671875, 3.010484457015991, 2.167890787124634, -3.118166446685791, 0.876708984375, 0.3125, -0.3603515625
479, 3536045487, -7.438181400299072, -1.618419885635376, 6.133718013763428, 2.7049124240875244, 5.981967449188232, -3.3160507678985596, 0.87548828125, 0.31591796875, -0.359375
480, 3536062154, -7.570779323577881, -1.6346321105957031, 6.0366926193237305, 3.7036292552948, 5.564251899719238, -3.8746390342712402, 0.879150390625, 0.315673828125, -0.359375
481, 3536078821, -7.590529441833496, -1.9790446758270264, 5.829803466796875, 3.1231679916381836, 2.822014093399048, -4.008912563323975, 0.881103515625, 0.316650390625, -0.357421875
482, 3536095488, -7.499481678009033, -2.1133217811584473, 5.827786922454834, 2.4790215492248535, 0.13770028948783875, -2.49828839302063, 0.883544921875, 0.316162109375, -0.356201171875
483, 3536112155, -7.4561767578125, -1.994483470916748, 5.897641658782959, 2.210420608520508, -1.9542487859725952, -0.4174869954586029, 0.88427734375, 0.314697265625, -0.356201171875
484, 3536128822, -7.4845499992370605, -1.6818997859954834, 5.915665626525879, 1.149517297744751, -3.5549020767211914, -0.5024827718734741, 0.8828125, 0.31201171875, -0.355224609375
485, 3536145489, -7.431850433349609, -1.768807053565979, 6.1206865310668945, 0.16368435323238373, -2.814413070678711, -1.7855764627456665, 0.88330078125, 0.308837890625, -0.357666015625
486, 3536162156, -7.442375183105469, -1.8695595264434814, 6.005712509155273, -0.11310567706823349, -0.3906320631504059, -1.0826102495193481, 0.884765625, 0.308349609375, -0.359375
487, 3536178823, -7.493234634399414, -1.7016141414642334, 5.964495658874512, 0.7570666074752808, -1.4356942176818848, 0.36313045024871826, 0.88623046875, 0.31005859375, -0.36328125
488, 3536195490, -7.473522186279297, -1.5062170028686523, 5.990760326385498, 1.0366932153701782, -3.3114657402038574, -0.28421130776405334, 0.8857421875, 0.304931640625, -0.36328125
489, 3536212157, -7.467484474182129, -1.7139902114868164, 5.981257438659668, 1.5502407550811768, -4.157005786895752, -0.3736508786678314, 0.884765625, 0.307373046875, -0.364990234375
490, 3536228824, -7.496860504150391, -2.1479721069335938, 5.827174186706543, 3.5009171962738037, -6.236616134643555, 2.985064744949341, 0.8818359375, 0.3046875, -0.368408203125
491, 3536245491, -7.534897327423096, -1.9711885452270508, 5.8469767570495605, 5.600059986114502, -10.026700019836426, 7.219218730926514, 0.88232421875, 0.30126953125, -0.368408203125
492, 3536262158, -7.494004726409912, -1.566296100616455, 6.0404534339904785, 6.76688814163208, -12.943942070007324, 8.227185249328613, 0.88232421875, 0.299560546875, -0.37158203125
493, 3536278825, -7.4069366455078125, -1.2427715063095093, 6.237992286682129, 5.582528114318848, -11.735554695129395, 5.471343517303467, 0.8798828125, 0.298095703125, -0.37451171875
494, 3536295492, -7.334132671356201, -1.352982521057129, 6.252913475036621, 4.047954082489014, -8.08452320098877, 3.068908214569092, 0.880859375, 0.29150390625, -0.376953125
495, 3536312159, -7.286227703094482, -1.4028971195220947, 6.22585391998291, 2.725043773651123, -4.6855998039245605, 1.874932885169983, 0.88427734375, 0.2939453125, -0.381103515625
496, 3536328826, -7.261038780212402, -1.4637972116470337, 6.2060980796813965, 2.403886318206787, -2.4671947956085205, 1.7923319339752197, 0.8798828125, 0.29248046875, -0.378662109375
497, 3536345493, -7.279172420501709, -1.3406785726547241, 6.1330461502075195, 2.7960424423217773, -1.539771556854248, 1.6136322021484375, 0.88037109375, 0.29052734375, -0.381591796875
498, 3536362160, -7.386102676391602, -1.4713906049728394, 6.050606727600098, 3.255969524383545, -1.432800054550171, 1.2868012189865112, 0.880859375, 0.2900390625, -0.380126953125
499, 3536378827, -7.388606548309326, -1.511396884918213, 5.9690704345703125, 3.409018039703369, -2.5145652294158936, 1.328434705734253, 0.88134765625, 0.28955078125, -0.380126953125
500, 3536395494, -7.360461235046387, -1.452541470527649, 5.998929023742676, 3.896991729736328, -3.6955926418304443, 1.0669289827346802, 0.880859375, 0.286376953125, -0.382568359375
501, 3536412161, -7.360668182373047, -1.4824846982955933, 5.99487829208374, 4.365103244781494, -4.690774440765381, 0.5523059368133545, 0.880859375, 0.287841796875, -0.3837890625
502, 3536428828, -7.331348419189453, -1.4839597940444946, 6.1968231201171875, 4.804104328155518, -5.534841060638428, 0.670329213142395, 0.8818359375, 0.285400390625, -0.383544921875
503, 3536445495, -7.310398101806641, -1.4651238918304443, 6.252840995788574, 4.145217418670654, -5.389361381530762, 0.8706846833229065, 0.87939453125, 0.286865234375, -0.38720703125
504, 3536462162, -7.218868732452393, -1.4667037725448608, 6.312481880187988, 3.6877105236053467, -4.631199359893799, 0.47750401496887207, 0.88232421875, 0.2841796875, -0.3876953125
505, 3536478829, -7.305016040802002, -1.359007477760315, 6.230119705200195, 3.1498305797576904, -3.178382396697998, -0.09253869205713272, 0.880859375, 0.28369140625, -0.38671875
506, 3536495496, -7.35706901550293, -1.341456651687622, 6.209875106811523, 2.3272788524627686, -2.0893049240112305, -0.34346631169319153, 0.8818359375, 0.2841796875, -0.38916015625
507, 3536512163, -7.32850456237793, -1.4160817861557007, 6.2261857986450195, 1.8461568355560303, -1.5786641836166382, -0.9190476536750793, 0.88232421875, 0.28369140625, -0.38916015625
508, 3536528830, -7.3514509201049805, -1.3918136358261108, 6.224131107330322, 1.5262928009033203, -1.25741708278656, -1.0948916673660278, 0.88037109375, 0.28076171875, -0.3896484375
509, 3536545497, -7.310678482055664, -1.4620609283447266, 6.213262557983398, 1.2633525133132935, -1.0990535020828247, -0.8671050071716309, 0.88134765625, 0.283203125, -0.390380859375
510, 3536562164, -7.319032669067383, -1.4028817415237427, 6.214080810546875, 1.1350204944610596, -1.0077699422836304, -0.5903983116149902, 0.880859375, 0.2822265625, -0.393310546875
511, 3536578831, -7.316910743713379, -1.416609287261963, 6.208833694458008, 0.8361842036247253, -1.1591283082962036, -0.40325918793678284, 0.8828125, 0.28076171875, -0.390869140625
512, 3536595498, -7.31697416305542, -1.4125449657440186, 6.1917572021484375, 0.5831947326660156, -1.3374311923980713, -0.2433718591928482, 0.8818359375, 0.2822265625, -0.39013671875
513, 3536612165, -7.347204208374023, -1.3255252838134766, 6.2628631591796875, 0.4663112163543701, -0.9446476101875305, 0.1173509880900383, 0.88232421875, 0.2822265625, -0.390625
514, 3536628832, -7.254011154174805, -1.4133564233779907, 6.245882034301758, 0.1773359328508377, -0.6914147734642029, -0.2989386320114136, 0.880859375, 0.28076171875, -0.390869140625
515, 3536645499, -7.262021541595459, -1.35366952419281, 6.2152299880981445, -0.004251708276569843, -0.3244488835334778, -0.7253132462501526, 0.8818359375, 0.28125, -0.39013671875
516, 3536662166, -7.298708915710449, -1.4071658849716187, 6.201508045196533, -0.04880500212311745, -0.46905818581581116, -0.8408905863761902, 0.883544921875, 0.28173828125, -0.388671875
517, 3536678833, -7.2926025390625, -1.4111863374710083, 6.185460090637207, 0.005397876258939505, -0.8103729486465454, -0.7877697348594666, 0.88134765625, 0.28076171875, -0.388671875
518, 3536695500, -7.26355504989624, -1.470738410949707, 6.185905456542969, 0.16319771111011505, -1.2181912660598755, -0.562403678894043, 0.884033203125, 0.28125, -0.39111328125
519, 3536712167, -7.274594783782959, -1.4106563329696655, 6.203804016113281, 0.30874189734458923, -1.3389935493469238, -0.360088974237442, 0.88232421875, 0.28076171875, -0.393310546875
520, 3536728834, -7.288995742797852, -1.3858363628387451, 6.24218225479126, 0.2508828043937683, -1.0598151683807373, -0.5207318067550659, 0.8828125, 0.28125, -0.393310546875
521, 3536745501, -7.316493988037109, -1.2974382638931274, 6.248664379119873, -0.040672965347766876, -0.3330419361591339, -0.781046450138092, 0.8798828125, 0.28173828125, -0.390380859375
522, 3536762168, -7.296821117401123, -1.370548963546753, 6.239682674407959, -0.3334261178970337, -0.2214346081018448, -1.2866796255111694, 0.88037109375, 0.279541015625, -0.390869140625
523, 3536778835, -7.312767505645752, -1.3977234363555908, 6.197727203369141, -0.39703524112701416, -0.12169873714447021, -1.4574522972106934, 0.883544921875, 0.2802734375, -0.38818359375
524, 3536795502, -7.303614139556885, -1.4011304378509521, 6.2059550285339355, -0.3329522907733917, -0.32949456572532654, -1.3105250597000122, 0.8818359375, 0.28173828125, -0.391845703125
525, 3536812169, -7.306228160858154, -1.382482647895813, 6.169896125793457, -0.17337235808372498, -0.5652722716331482, -1.0501207113265991, 0.8818359375, 0.279296875, -0.39111328125
526, 3536828836, -7.275171756744385, -1.4563400745391846, 6.191610813140869, -0.03346299007534981, -1.1425056457519531, -0.7848114967346191, 0.8798828125, 0.28173828125, -0.393310546875
527, 3536845503, -7.312729358673096, -1.3733241558074951, 6.222940444946289, 0.1685507744550705, -1.3733656406402588, -0.4721316993236542, 0.8818359375, 0.279296875, -0.392822265625
528, 3536862170, -7.323483943939209, -1.3213703632354736, 6.207408905029297, 0.15352891385555267, -1.2558674812316895, -0.6610509157180786, 0.8818359375, 0.28076171875, -0.38916015625
529, 3536878837, -7.32617712020874, -1.3605257272720337, 6.2296953201293945, 0.12358767539262772, -1.171063780784607, -0.8025610446929932, 0.88134765625, 0.279541015625, -0.391845703125
530, 3536895504, -7.326247215270996, -1.3314553499221802, 6.2505340576171875, 0.08341415971517563, -0.9766506552696228, -0.8972768187522888, 0.881591796875, 0.277587890625, -0.391357421875
531, 3536912171, -7.3225998878479, -1.3568788766860962, 6.232413291931152, 0.03692711144685745, -0.8823575973510742, -0.9952327609062195, 0.884033203125, 0.27880859375, -0.3916015625
532, 3536928838, -7.3028764724731445, -1.3596481084823608, 6.216124534606934, 0.0567641407251358, -0.7446635365486145, -0.9197904467582703, 0.883056640625, 0.278076171875, -0.392333984375
533, 3536945505, -7.32680082321167, -1.3721016645431519, 6.179961204528809, 0.09957577288150787, -0.9236707091331482, -0.8561172485351562, 0.880859375, 0.278076171875, -0.391845703125
534, 3536962172, -7.346104621887207, -1.3635507822036743, 6.193745136260986, 0.2546606957912445, -1.472435712814331, -0.8847268223762512, 0.884033203125, 0.28076171875, -0.391357421875
535, 3536978839, -7.312427043914795, -1.392114520072937, 6.224487781524658, 0.3188973069190979, -1.9373575448989868, -0.9700809717178345, 0.88232421875, 0.2802734375, -0.390625
536, 3536995506, -7.311270236968994, -1.3482879400253296, 6.212094306945801, 0.19908112287521362, -1.9789525270462036, -1.0707646608352661, 0.8828125, 0.279296875, -0.393310546875
537, 3537012173, -7.298089027404785, -1.347931981086731, 6.261363506317139, -0.1306760013103485, -1.8503639698028564, -1.3242791891098022, 0.88037109375, 0.27978515625, -0.393798828125
538, 3537028840, -7.290549278259277, -1.3248333930969238, 6.25057315826416, -0.14562100172042847, -1.4180984497070312, -1.562528371810913, 0.8818359375, 0.279052734375, -0.392822265625
539, 3537045507, -7.294559478759766, -1.3061314821243286, 6.265018939971924, -0.4123004078865051, -0.6883924603462219, -1.8879375457763672, 0.8798828125, 0.280029296875, -0.394287109375
540, 3537062174, -7.319612979888916, -1.3532062768936157, 6.214040756225586, -0.5223198533058167, -0.2503385543823242, -2.0583903789520264, 0.88037109375, 0.27978515625, -0.390869140625
541, 3537078841, -7.338874816894531, -1.3865840435028076, 6.218825340270996, -0.5342040657997131, -0.19244101643562317, -1.9024343490600586, 0.882568359375, 0.277587890625, -0.393310546875
542, 3537095508, -7.331699371337891, -1.415724515914917, 6.2104973793029785, -0.4681745767593384, -0.5017144083976746, -1.6646333932876587, 0.883056640625, 0.279296875, -0.392333984375
543, 3537112175, -7.294473171234131, -1.4368971586227417, 6.211491584777832, -0.347295343875885, -0.9255405068397522, -1.2628469467163086, 0.880859375, 0.279052734375, -0.393798828125
544, 3537128842, -7.303316593170166, -1.3526164293289185, 6.207954406738281, -0.24712415039539337, -1.1322734355926514, -1.0378779172897339, 0.88037109375, 0.279541015625, -0.393310546875
545, 3537145509, -7.317831516265869, -1.300297498703003, 6.261612892150879, -0.30576440691947937, -0.7823143005371094, -1.2997933626174927, 0.87939453125, 0.28173828125, -0.392333984375
546, 3537162176, -7.33485746383667, -1.325755000114441, 6.240163326263428, -0.562390923500061, -0.39051687717437744, -1.601370096206665, 0.8798828125, 0.27978515625, -0.391845703125
547, 3537178843, -7.316948890686035, -1.3657318353652954, 6.230631351470947, -0.6136161684989929, -0.19077618420124054, -1.6948435306549072, 0.88330078125, 0.28125, -0.393310546875
548, 3537195510, -7.324079513549805, -1.3872246742248535, 6.212226390838623, -0.5600345134735107, -0.289654016494751, -1.580214023590088, 0.8798828125, 0.279541015625, -0.395263671875
549, 3537212177, -7.300372123718262, -1.4491311311721802, 6.200252532958984, -0.3905681073665619, -0.9029117226600647, -1.4498966932296753, 0.88232421875, 0.28076171875, -0.392333984375
550, 3537228844, -7.301569938659668, -1.402446985244751, 6.259108543395996, -0.17018356919288635, -0.9397298693656921, -0.9564679265022278, 0.87939453125, 0.28076171875, -0.391357421875
551, 3537245511, -7.318228244781494, -1.3694080114364624, 6.234215259552002, -0.22298415005207062, -0.6011684536933899, -0.8874159455299377, 0.88037109375, 0.2802734375, -0.393310546875
552, 3537262178, -7.305792331695557, -1.3742831945419312, 6.2053937911987305, -0.25720271468162537, -0.5029565691947937, -0.8408520817756653, 0.8818359375, 0.28076171875, -0.391357421875
553, 3537278845, -7.308832168579102, -1.3442034721374512, 6.193679332733154, -0.2563575208187103, -0.46672743558883667, -0.9307143688201904, 0.880859375, 0.28125, -0.391845703125
554, 3537295512, -7.325544834136963, -1.3478869199752808, 6.202773094177246, -0.4925706088542938, -0.24506233632564545, -1.102844476699829, 0.8818359375, 0.27978515625, -0.390869140625
555, 3537312179, -7.303920269012451, -1.3738303184509277, 6.209904193878174, -0.4706590175628662, -0.31819939613342285, -1.3000494241714478, 0.88037109375, 0.2802734375, -0.391357421875
556, 3537328846, -7.311224937438965, -1.4132270812988281, 6.197655200958252, -0.4503864645957947, -0.6797610521316528, -1.3551167249679565, 0.8818359375, 0.27978515625, -0.393310546875
557, 3537345513, -7.293420314788818, -1.4258184432983398, 6.216751575469971, -0.32922568917274475, -1.1719603538513184, -1.1974962949752808, 0.8798828125, 0.278564453125, -0.392333984375
558, 3537362180, -7.327572822570801, -1.3802714347839355, 6.230713367462158, -0.2858505845069885, -1.2450335025787354, -1.1203635931015015, 0.8818359375, 0.2802734375, -0.391357421875
559, 3537378847, -7.3011298179626465, -1.3760788440704346, 6.244314670562744, -0.24508795142173767, -1.1277782917022705, -1.1563236713409424, 0.880859375, 0.28076171875, -0.392333984375
560, 3537395514, -7.31256628036499, -1.3637455701828003, 6.213131427764893, -0.1546238660812378, -1.173176884651184, -1.2932363748550415, 0.8818359375, 0.2802734375, -0.392822265625
561, 3537412181, -7.3087639808654785, -1.3694194555282593, 6.216971397399902, -0.22096075117588043, -1.119505524635315, -1.2549455165863037, 0.88134765625, 0.28173828125, -0.394775390625
562, 3537428848, -7.309956073760986, -1.3733958005905151, 6.221820831298828, -0.1747298240661621, -1.4164847135543823, -1.3964298963546753, 0.87890625, 0.28125, -0.393798828125
563, 3537445515, -7.291781902313232, -1.4048882722854614, 6.228509902954102, -0.06541483849287033, -1.6028556823730469, -1.3801275491714478, 0.87939453125, 0.28369140625, -0.392822265625
564, 3537462182, -7.2867536544799805, -1.3785415887832642, 6.233362197875977, -0.24630452692508698, -1.4298033714294434, -1.2827479839324951, 0.87939453125, 0.28271484375, -0.394775390625
565, 3537478849, -7.304250717163086, -1.3709181547164917, 6.255191802978516, -0.31594547629356384, -1.1898891925811768, -1.3380203247070312, 0.88037109375, 0.28076171875, -0.394287109375
566, 3537495516, -7.283833980560303, -1.3575141429901123, 6.221738815307617, -0.3701419234275818, -0.8804365992546082, -1.33234703540802, 0.87939453125, 0.280029296875, -0.392822265625
567, 3537512183, -7.310792446136475, -1.377575397491455, 6.21432638168335, -0.2715330421924591, -0.9523186683654785, -1.3164161443710327, 0.88232421875, 0.28173828125, -0.393310546875
568, 3537528850, -7.312542915344238, -1.3884085416793823, 6.233452320098877, -0.0553874671459198, -1.2356975078582764, -1.1764682531356812, 0.8818359375, 0.2802734375, -0.396240234375
569, 3537545517, -7.278079986572266, -1.375452995300293, 6.2291693687438965, -0.11454000324010849, -1.3302085399627686, -1.0585730075836182, 0.876220703125, 0.28125, -0.39794921875
570, 3537562184, -7.308161735534668, -1.371206283569336, 6.205207347869873, 0.034737225621938705, -1.4509979486465454, -1.0544620752334595, 0.8779296875, 0.28076171875, -0.393310546875
571, 3537578851, -7.296835422515869, -1.3721117973327637, 6.205602169036865, 0.10106131434440613, -1.4471176862716675, -1.0558964014053345, 0.88134765625, 0.2802734375, -0.396240234375
572, 3537595518, -7.293224334716797, -1.3887649774551392, 6.216148376464844, 0.09354399144649506, -1.4461570978164673, -1.0635930299758911, 0.88134765625, 0.28173828125, -0.394775390625
573, 3537612185, -7.289822578430176, -1.4042690992355347, 6.218377113342285, 0.10340487957000732, -1.4179704189300537, -0.9722453355789185, 0.8798828125, 0.278564453125, -0.39794921875
574, 3537628852, -7.298533916473389, -1.360030174255371, 6.235511779785156, -0.08514941483736038, -1.3854292631149292, -1.0005472898483276, 0.8818359375, 0.28125, -0.396240234375
575, 3537645519, -7.285002708435059, -1.3722902536392212, 6.237907886505127, -0.09565062075853348, -1.1345785856246948, -1.0808814764022827, 0.87890625, 0.2802734375, -0.39599609375
576, 3537662186, -7.285358905792236, -1.3653428554534912, 6.255935192108154, -0.1366821527481079, -0.7986167073249817, -1.0699961185455322, 0.88134765625, 0.2802734375, -0.394287109375
577, 3537678853, -7.280904769897461, -1.3577606678009033, 6.246757984161377, -0.26798564195632935, -0.6679406762123108, -1.2233009338378906, 0.879150390625, 0.28173828125, -0.39892578125
578, 3537695520, -7.281675815582275, -1.3862837553024292, 6.229334354400635, -0.2496854066848755, -0.6497558355331421, -1.2101105451583862, 0.87939453125, 0.279052734375, -0.395751953125
579, 3537712187, -7.2915544509887695, -1.361029863357544, 6.230312347412109, -0.10237396508455276, -0.7425121665000916, -1.1255500316619873, 0.87890625, 0.28125, -0.396484375
580, 3537728854, -7.279066562652588, -1.414275884628296, 6.250646591186523, -0.04857448861002922, -0.9955913424491882, -0.9757798314094543, 0.879150390625, 0.28173828125, -0.39794921875
581, 3537745521, -7.284862518310547, -1.3907036781311035, 6.2673234939575195, 0.1359073966741562, -1.1228224039077759, -0.8012677431106567, 0.877685546875, 0.28173828125, -0.395263671875
582, 3537762188, -7.277774333953857, -1.3645519018173218, 6.258132457733154, 0.10391712933778763, -1.0373400449752808, -0.8455649614334106, 0.8798828125, 0.28076171875, -0.395751953125
583, 3537778855, -7.277463436126709, -1.3680851459503174, 6.2730488777160645, -0.033155638724565506, -0.8082600235939026, -0.909929633140564, 0.87939453125, 0.280029296875, -0.396240234375
584, 3537795522, -7.291650772094727, -1.3805702924728394, 6.244836807250977, -0.19040483236312866, -0.6709246635437012, -0.998587965965271, 0.880859375, 0.279052734375, -0.396484375
585, 3537812189, -7.288320541381836, -1.363635540008545, 6.221942901611328, -0.14704251289367676, -0.5998238325119019, -1.0290414094924927, 0.88037109375, 0.279052734375, -0.393798828125
586, 3537828856, -7.311217308044434, -1.3770570755004883, 6.213818073272705, -0.057654187083244324, -0.8467687368392944, -0.928767740726471, 0.87939453125, 0.279052734375, -0.395751953125
587, 3537845523, -7.310532569885254, -1.3593446016311646, 6.235119342803955, 0.023198703303933144, -1.086695671081543, -0.9192270636558533, 0.87841796875, 0.279541015625, -0.395751953125
588, 3537862190, -7.307493209838867, -1.3798307180404663, 6.2268476486206055, 0.12380538135766983, -1.436347246170044, -0.879911482334137, 0.87890625, 0.2802734375, -0.395263671875
589, 3537878857, -7.296258449554443, -1.3610363006591797, 6.227197647094727, 0.10004960745573044, -1.5300003290176392, -0.8368949890136719, 0.8798828125, 0.280029296875, -0.395751953125
590, 3537895524, -7.286862850189209, -1.3326818943023682, 6.264289379119873, 0.03149721771478653, -1.461716890335083, -0.9657268524169922, 0.880859375, 0.279541015625, -0.393798828125
591, 3537912191, -7.293827056884766, -1.336245059967041, 6.247594356536865, -0.14053687453269958, -1.1522256135940552, -1.2858341932296753, 0.88134765625, 0.27978515625, -0.396484375
592, 3537928858, -7.294341564178467, -1.3577405214309692, 6.247448444366455, -0.696755051612854, -0.45722508430480957, -1.8251736164093018, 0.87841796875, 0.280029296875, -0.39697265625
593, 3537945525, -7.295742511749268, -1.3183283805847168, 6.255216121673584, -1.098976969718933, 0.2844098210334778, -2.155820846557617, 0.87841796875, 0.280029296875, -0.395751953125
594, 3537962192, -7.288529872894287, -1.3654509782791138, 6.249866962432861, -1.1495234966278076, 0.48888877034187317, -2.1998233795166016, 0.87939453125, 0.279052734375, -0.393798828125
595, 3537978859, -7.290069580078125, -1.3851865530014038, 6.249996185302734, -0.9698634147644043, 0.3303590416908264, -2.066983461380005, 0.87841796875, 0.280029296875, -0.395751953125
596, 3537995526, -7.298066139221191, -1.392792820930481, 6.238443374633789, -0.9659189581871033, 0.10065151005983353, -1.9884291887283325, 0.8798828125, 0.28125, -0.396484375
597, 3538012193, -7.302086353302002, -1.3751155138015747, 6.21419095993042, -0.7220731973648071, -0.0962781310081482, -1.7041536569595337, 0.87890625, 0.2802734375, -0.394287109375
598, 3538028860, -7.291599750518799, -1.3978873491287231, 6.2006988525390625, -0.5558852553367615, -0.477984219789505, -1.567010760307312, 0.87939453125, 0.28173828125, -0.394287109375
599, 3538045527, -7.287563800811768, -1.3815635442733765, 6.232051372528076, -0.30361291766166687, -0.644415557384491, -1.464751958847046, 0.87939453125, 0.28173828125, -0.39599609375
600, 3538062194, -7.300948619842529, -1.3687138557434082, 6.249497890472412, -0.3517776429653168, -0.5579214096069336, -1.4189947843551636, 0.87890625, 0.28369140625, -0.394287109375
601, 3538078861, -7.30401611328125, -1.3765883445739746, 6.2510457038879395, -0.2742864191532135, -0.39937883615493774, -1.4541865587234497, 0.8779296875, 0.28173828125, -0.393310546875
602, 3538095528, -7.294628620147705, -1.395830750465393, 6.232115745544434, -0.2974018454551697, -0.4687892496585846, -1.3416187763214111, 0.8798828125, 0.28173828125, -0.395263671875
603, 3538112195, -7.298692226409912, -1.3846675157546997, 6.250431537628174, -0.11162014305591583, -0.5054154396057129, -1.2271043062210083, 0.8798828125, 0.280029296875, -0.393798828125
604, 3538128862, -7.302382469177246, -1.38178288936615, 6.220086574554443, -0.15119177103042603, -0.600361704826355, -1.0908193588256836, 0.877197265625, 0.2822265625, -0.393798828125
605, 3538145529, -7.3010711669921875, -1.394657015800476, 6.228884220123291, -0.11687075346708298, -0.7505289316177368, -1.1065198183059692, 0.87744140625, 0.28125, -0.392822265625
606, 3538162196, -7.296807765960693, -1.374216079711914, 6.213066101074219, -0.022974593564867973, -0.8083368539810181, -0.9894314408302307, 0.87890625, 0.283203125, -0.394775390625
607, 3538178863, -7.292089939117432, -1.3752572536468506, 6.241976737976074, -0.03534552827477455, -0.7719411849975586, -0.9289470314979553, 0.8779296875, 0.28076171875, -0.393798828125
608, 3538195530, -7.307257652282715, -1.3902946710586548, 6.248313903808594, -0.007274007424712181, -0.7939168810844421, -1.047585129737854, 0.87841796875, 0.28076171875, -0.395751953125
609, 3538212197, -7.308108329772949, -1.3781861066818237, 6.261631488800049, -0.08246009051799774, -0.9467477798461914, -1.0368404388427734, 0.87841796875, 0.280029296875, -0.394287109375
610, 3538228864, -7.293933868408203, -1.392376184463501, 6.25177001953125, -0.10739404708147049, -0.648692786693573, -0.9293183088302612, 0.878662109375, 0.283203125, -0.394775390625
611, 3538245531, -7.283020973205566, -1.3604356050491333, 6.247659206390381, -0.05347931385040283, -0.6023338437080383, -0.8206692934036255, 0.877685546875, 0.2841796875, -0.3955078125
612, 3538262198, -7.298969268798828, -1.3790242671966553, 6.236253261566162, -0.019721778109669685, -0.7061805725097656, -0.8180568218231201, 0.88232421875, 0.28173828125, -0.395751953125
613, 3538278865, -7.310655117034912, -1.372149109840393, 6.218967914581299, 0.2853574752807617, -1.1454896926879883, -0.6055482625961304, 0.8798828125, 0.2802734375, -0.396240234375
614, 3538295532, -7.313727378845215, -1.4179589748382568, 6.221933841705322, 1.0041139125823975, -1.942864179611206, 0.19698087871074677, 0.88134765625, 0.27978515625, -0.394775390625
615, 3538312199, -7.290799140930176, -1.3834702968597412, 6.25559663772583, 1.217531681060791, -2.635892629623413, 0.5556995272636414, 0.87939453125, 0.279541015625, -0.396240234375
616, 3538328866, -7.279819965362549, -1.3340460062026978, 6.270634174346924, 1.1405912637710571, -2.418351173400879, 0.5244264602661133, 0.87744140625, 0.280029296875, -0.395751953125
617, 3538345533, -7.291238307952881, -1.3396148681640625, 6.290403842926025, 1.1532692909240723, -2.3695459365844727, 0.5490530133247375, 0.87890625, 0.279052734375, -0.396240234375
618, 3538362200, -7.291619777679443, -1.4368488788604736, 6.230841159820557, 1.5466678142547607, -3.3191375732421875, 1.161696195602417, 0.87744140625, 0.279052734375, -0.3974609375
619, 3538378867, -7.286375522613525, -1.371088981628418, 6.254733562469482, 1.7107937335968018, -3.911853075027466, 1.3153080940246582, 0.87939453125, 0.276123046875, -0.396728515625
620, 3538395534, -7.2610297203063965, -1.2973408699035645, 6.304976463317871, 1.3398325443267822, -3.7168514728546143, 0.8195104598999023, 0.8798828125, 0.27490234375, -0.39794921875
621, 3538412201, -7.265977382659912, -1.25368070602417, 6.296181678771973, 0.8144518136978149, -2.6287081241607666, 0.24988391995429993, 0.87890625, 0.276123046875, -0.400390625
622, 3538428868, -7.259249210357666, -1.2765026092529297, 6.314321517944336, 0.35357049107551575, -1.6308116912841797, -0.3748290538787842, 0.87744140625, 0.27490234375, -0.39892578125
623, 3538445535, -7.260283946990967, -1.2984223365783691, 6.283487796783447, 0.009214167483150959, -0.8972768187522888, -0.9433029294013977, 0.87744140625, 0.27490234375, -0.3994140625
624, 3538462202, -7.274198055267334, -1.3215227127075195, 6.269888877868652, -0.21322572231292725, -0.6942577958106995, -1.1271123886108398, 0.8779296875, 0.27490234375, -0.3984375
625, 3538478869, -7.271353721618652, -1.3287156820297241, 6.278073310852051, -0.15628869831562042, -0.8089898824691772, -1.1921815872192383, 0.87841796875, 0.276123046875, -0.39990234375
626, 3538495536, -7.262789249420166, -1.3194682598114014, 6.284084796905518, -0.19751232862472534, -0.737005352973938, -1.1588464975357056, 0.87841796875, 0.275390625, -0.39990234375
627, 3538512203, -7.254009246826172, -1.3102779388427734, 6.284366607666016, -0.2885654866695404, -0.7138131260871887, -1.2566999197006226, 0.87939453125, 0.275634765625, -0.3984375
628, 3538528870, -7.260446548461914, -1.3044319152832031, 6.284555435180664, -0.49688634276390076, -0.6575676202774048, -1.4003359079360962, 0.8779296875, 0.276611328125, -0.39990234375
629, 3538545537, -7.279569625854492, -1.3240582942962646, 6.299108505249023, -0.5199377536773682, -0.49109792709350586, -1.4857158660888672, 0.87841796875, 0.276611328125, -0.3994140625
630, 3538562204, -7.2662458419799805, -1.3164373636245728, 6.280852794647217, -0.46670177578926086, -0.2831227779388428, -1.5588785409927368, 0.87939453125, 0.275634765625, -0.400390625
631, 3538578871, -7.265481948852539, -1.3255643844604492, 6.289839744567871, -0.44731301069259644, -0.2925354540348053, -1.4819380044937134, 0.876953125, 0.277099609375, -0.3974609375
632, 3538595538, -7.275471210479736, -1.3294169902801514, 6.288330554962158, -0.3545694351196289, -0.2188989222049713, -1.360124111175537, 0.8798828125, 0.27392578125, -0.39990234375
633, 3538612205, -7.275396347045898, -1.335085153579712, 6.265156269073486, -0.2287854552268982, -0.41967692971229553, -1.2188700437545776, 0.8779296875, 0.276611328125, -0.39892578125
634, 3538628872, -7.278802394866943, -1.339955449104309, 6.290683746337891, -0.14869453012943268, -0.4192030727863312, -1.148306965827942, 0.87890625, 0.277099609375, -0.3984375
635, 3538645539, -7.273268222808838, -1.3111008405685425, 6.258731365203857, -0.14918117225170135, -0.44810694456100464, -1.1021400690078735, 0.87744140625, 0.277099609375, -0.39697265625
636, 3538662206, -7.271410942077637, -1.3334089517593384, 6.274371147155762, -0.12498997151851654, -0.5304005742073059, -0.9788405299186707, 0.87646484375, 0.27490234375, -0.3984375
637, 3538678873, -7.275638103485107, -1.3045748472213745, 6.276739120483398, -0.07203571498394012, -0.6486544013023376, -0.9125291705131531, 0.87939453125, 0.276123046875, -0.3994140625
638, 3538695540, -7.279372692108154, -1.3321799039840698, 6.2871785163879395, -0.09538169205188751, -0.610722005367279, -0.9975249171257019, 0.87890625, 0.277587890625, -0.39990234375
639, 3538712207, -7.275683403015137, -1.3130254745483398, 6.266266345977783, -0.11532118171453476, -0.5998238325119019, -1.0268771648406982, 0.880859375, 0.275146484375, -0.3984375
640, 3538728874, -7.2768378257751465, -1.322192907333374, 6.275092601776123, -0.16767354309558868, -0.6835644841194153, -1.012342095375061, 0.876220703125, 0.276123046875, -0.3984375
641, 3538745541, -7.279067039489746, -1.3061141967773438, 6.260861873626709, -0.123722143471241, -0.530439019203186, -1.002583384513855, 0.874755859375, 0.277099609375, -0.3994140625
642, 3538762208, -7.282728672027588, -1.3379143476486206, 6.27230167388916, -0.18234962224960327, -0.5719571709632874, -1.132939338684082, 0.88037109375, 0.276123046875, -0.3984375
643, 3538778875, -7.284019947052002, -1.3229399919509888, 6.277763843536377, -0.18587137758731842, -0.5513518452644348, -1.0874768495559692, 0.87939453125, 0.2744140625, -0.396728515625
644, 3538795542, -7.269977569580078, -1.2995390892028809, 6.275108337402344, -0.24916033446788788, -0.640368640422821, -1.1108611822128296, 0.87890625, 0.275146484375, -0.3984375
645, 3538812209, -7.282865524291992, -1.3102810382843018, 6.275954723358154, -0.17036287486553192, -0.6112342476844788, -1.095442295074463, 0.8818359375, 0.27392578125, -0.3984375
646, 3538828876, -7.275450706481934, -1.3183234930038452, 6.276726722717285, -0.27473461627960205, -0.6022826433181763, -1.1143444776535034, 0.87939453125, 0.276611328125, -0.400390625
