sep=,
DeviceTag:,A,,,,,,,,,,,,,,,,,
FirmwareVersion:,2.2.1,,,,,,,,,,,,,,,,,
AppVersion:,2023.6.1,,,,,,,,,,,,,,,,,
SyncStatus:,Synced,,,,,,,,,,,,,,,,,
OutputRate:,60Hz,,,,,,,,,,,,,,,,,
FilterProfile:,General,,,,,,,,,,,,,,,,,
Measurement Mode:,Inertial Mode - Rate quantities (with mag),,,,,,,,,,,,,,,,,
StartTime:,2023-12-07 13:36:58.774 +0200,,,,,,,,,,,,,,,,,
 2023,,,,,,,,,,,,,,,,,,,

PacketCounter,SampleTimeFine,Acc_X,Acc_Y,Acc_Z,Gyr_X,Gyr_Y,Gyr_Z,Mag_X,Mag_Y,Mag_Z
1, 4257413640, -6.74890661239624, -0.7579016089439392, 7.188044548034668, -2.2283051013946533, -1.6031244993209839, -2.212822198867798, 1.1162109375, -0.40185546875, 0.051025390625
2, 4257430307, -6.7455830574035645, -0.7486963272094727, 7.187517166137695, -2.242225170135498, -1.6403268575668335, -2.1539511680603027, 1.115234375, -0.402587890625, 0.051025390625
3, 4257446974, -6.756049156188965, -0.7573544979095459, 7.166627407073975, -2.320164680480957, -1.577319622039795, -2.021648645401001, 1.115234375, -0.400390625, 0.051025390625
4, 4257463641, -6.759891033172607, -0.7423563003540039, 7.181653022766113, -2.256594181060791, -1.6179031133651733, -1.9737274646759033, 1.11376953125, -0.3994140625, 0.050048828125
5, 4257480308, -6.746417999267578, -0.7424854636192322, 7.175182819366455, -2.3205742835998535, -1.603380560874939, -2.0041937828063965, 1.11376953125, -0.40234375, 0.05224609375
6, 4257496975, -6.7760162353515625, -0.7241114974021912, 7.20322847366333, -2.3078322410583496, -1.6302355527877808, -2.0702614784240723, 1.115234375, -0.4013671875, 0.049560546875
7, 4257513642, -6.747725009918213, -0.7440877556800842, 7.198203086853027, -2.2707834243774414, -1.5825445652008057, -2.0967836380004883, 1.11376953125, -0.39892578125, 0.05224609375
8, 4257530309, -6.748396873474121, -0.7429768443107605, 7.192939281463623, -2.3673949241638184, -1.6081959009170532, -2.1546683311462402, 1.11474609375, -0.4013671875, 0.050537109375
9, 4257546976, -6.7497663497924805, -0.7414519190788269, 7.173746585845947, -2.3710572719573975, -1.5984116792678833, -2.103071451187134, 1.11572265625, -0.4013671875, 0.050537109375
10, 4257563643, -6.749138355255127, -0.755307137966156, 7.201166152954102, -2.2795050144195557, -1.6143814325332642, -2.088587999343872, 1.1162109375, -0.4013671875, 0.05224609375
11, 4257580310, -6.755239486694336, -0.7479708790779114, 7.1985859870910645, -2.341282367706299, -1.5913681983947754, -2.0430736541748047, 1.1162109375, -0.40234375, 0.05078125
12, 4257596977, -6.752413272857666, -0.7321240901947021, 7.201159954071045, -2.271756887435913, -1.6058266162872314, -2.071068286895752, 1.1142578125, -0.405517578125, 0.050537109375
13, 4257613644, -6.757995128631592, -0.7485354542732239, 7.207077503204346, -2.1998236179351807, -1.5638858079910278, -2.1547577381134033, 1.115234375, -0.403076171875, 0.051025390625
14, 4257630311, -6.756832599639893, -0.7495408654212952, 7.22232723236084, -2.2590274810791016, -1.5488001108169556, -2.1260719299316406, 1.1162109375, -0.4013671875, 0.051025390625
15, 4257646978, -6.758277893066406, -0.7429178953170776, 7.181119441986084, -2.304182291030884, -1.450690507888794, -2.2158701419830322, 1.11474609375, -0.40234375, 0.05126953125
16, 4257663645, -6.752924919128418, -0.7450796961784363, 7.17166805267334, -2.2978944778442383, -1.4389982223510742, -2.179051399230957, 1.11376953125, -0.403076171875, 0.049072265625
17, 4257680312, -6.755364894866943, -0.7602902054786682, 7.201789379119873, -2.3681375980377197, -1.5625284910202026, -2.236565351486206, 1.11474609375, -0.403564453125, 0.05224609375
18, 4257696979, -6.750959873199463, -0.747204601764679, 7.189403533935547, -2.259936571121216, -1.5804059505462646, -2.1653614044189453, 1.1162109375, -0.402587890625, 0.048583984375
19, 4257713646, -6.7572407722473145, -0.7404377460479736, 7.187213897705078, -2.3490560054779053, -1.5461204051971436, -2.129875898361206, 1.1142578125, -0.4013671875, 0.049072265625
20, 4257730313, -6.752892971038818, -0.7529773116111755, 7.164306640625, -2.2901594638824463, -1.4891222715377808, -2.106759548187256, 1.11376953125, -0.4013671875, 0.051513671875
21, 4257746980, -6.7576446533203125, -0.7444159984588623, 7.196537017822266, -2.3337907791137695, -1.4038575887680054, -2.190078020095825, 1.1162109375, -0.40185546875, 0.051025390625
22, 4257763647, -6.757586479187012, -0.7476215362548828, 7.17729377746582, -2.379227638244629, -1.410683512687683, -2.1807548999786377, 1.11376953125, -0.403076171875, 0.051025390625
23, 4257780314, -6.762294292449951, -0.7408171892166138, 7.188461780548096, -2.3868093490600586, -1.5668442249298096, -2.260077714920044, 1.11376953125, -0.402587890625, 0.0517578125
24, 4257796981, -6.748851776123047, -0.7505686283111572, 7.178370952606201, -2.2931690216064453, -1.5997049808502197, -2.1346006393432617, 1.11572265625, -0.4013671875, 0.049560546875
25, 4257813648, -6.769277572631836, -0.7378976941108704, 7.196998596191406, -2.2747535705566406, -1.643797516822815, -2.141554832458496, 1.1162109375, -0.4013671875, 0.051025390625
26, 4257830315, -6.756882190704346, -0.7353618741035461, 7.194882869720459, -2.2289068698883057, -1.6193115711212158, -2.2500498294830322, 1.11572265625, -0.403564453125, 0.0517578125
27, 4257846982, -6.739254474639893, -0.7412025928497314, 7.17815637588501, -2.274791955947876, -1.5073074102401733, -2.2385501861572266, 1.1123046875, -0.403076171875, 0.051025390625
28, 4257863649, -6.761491298675537, -0.7360829710960388, 7.166647434234619, -2.2845754623413086, -1.5697381496429443, -2.2729475498199463, 1.1142578125, -0.40234375, 0.051513671875
29, 4257880316, -6.758641719818115, -0.747238039970398, 7.172065258026123, -2.247220039367676, -1.5724278688430786, -2.191307306289673, 1.1142578125, -0.40185546875, 0.051025390625
30, 4257896983, -6.752421855926514, -0.7427683472633362, 7.197229385375977, -2.2311737537384033, -1.5602104663848877, -2.2047924995422363, 1.11669921875, -0.40185546875, 0.05126953125
31, 4257913650, -6.756154537200928, -0.7541112899780273, 7.166764259338379, -2.2483084201812744, -1.5744253396987915, -2.099216938018799, 1.11474609375, -0.402587890625, 0.051025390625
32, 4257930317, -6.7441606521606445, -0.7352096438407898, 7.172045707702637, -2.302748203277588, -1.6037776470184326, -2.068699359893799, 1.11669921875, -0.40234375, 0.05078125
33, 4257946984, -6.748833656311035, -0.728218138217926, 7.176773548126221, -2.2782881259918213, -1.500199794769287, -2.11238169670105, 1.11669921875, -0.4013671875, 0.05078125
34, 4257963651, -6.7547407150268555, -0.7389768958091736, 7.196588516235352, -2.3384268283843994, -1.4964476823806763, -2.1218457221984863, 1.1171875, -0.40283203125, 0.05126953125
35, 4257980318, -6.759922981262207, -0.7272953987121582, 7.181471824645996, -2.375680446624756, -1.4732040166854858, -2.215357780456543, 1.11328125, -0.40185546875, 0.052001953125
36, 4257996985, -6.75792932510376, -0.7432699799537659, 7.19187593460083, -2.4610602855682373, -1.4850497245788574, -2.2378456592559814, 1.1162109375, -0.40087890625, 0.05126953125
37, 4258013652, -6.757989406585693, -0.7388777732849121, 7.191470623016357, -2.3934812545776367, -1.5053097009658813, -2.2093772888183594, 1.11572265625, -0.403564453125, 0.050537109375
38, 4258030319, -6.776916980743408, -0.7512361407279968, 7.191625595092773, -2.383556365966797, -1.56397545337677, -2.1847763061523438, 1.115234375, -0.403076171875, 0.050537109375
39, 4258046986, -6.762705326080322, -0.7442611455917358, 7.204506874084473, -2.3652303218841553, -1.5155673027038574, -2.1483163833618164, 1.1142578125, -0.402587890625, 0.050537109375
40, 4258063653, -6.7554802894592285, -0.7271133065223694, 7.204146862030029, -2.3575592041015625, -1.5804826021194458, -2.1113059520721436, 1.11474609375, -0.404541015625, 0.052734375
41, 4258080320, -6.75203275680542, -0.7371731996536255, 7.187358856201172, -2.3355836868286133, -1.6189019680023193, -2.1663992404937744, 1.11474609375, -0.404052734375, 0.0517578125
42, 4258096987, -6.756804943084717, -0.7226882576942444, 7.18964958190918, -2.3672027587890625, -1.5522578954696655, -2.299009084701538, 1.1171875, -0.404052734375, 0.0517578125
43, 4258113654, -6.765082359313965, -0.738089919090271, 7.181051731109619, -2.410475254058838, -1.5935454368591309, -2.336838722229004, 1.11376953125, -0.402587890625, 0.051025390625
44, 4258130321, -6.759514331817627, -0.7336405515670776, 7.172122478485107, -2.4272263050079346, -1.546968698501587, -2.2212870121002197, 1.1162109375, -0.403076171875, 0.049560546875
45, 4258146988, -6.759467601776123, -0.7364135384559631, 7.182417869567871, -2.4258556365966797, -1.5531413555145264, -2.215024709701538, 1.1171875, -0.404052734375, 0.05078125
46, 4258163655, -6.7576212882995605, -0.7288001775741577, 7.185213565826416, -2.4033806324005127, -1.6143429279327393, -2.2588868141174316, 1.11376953125, -0.404052734375, 0.0537109375
47, 4258180322, -6.754448890686035, -0.7282869219779968, 7.196633338928223, -2.302415370941162, -1.7007858753204346, -2.236757278442383, 1.11474609375, -0.4013671875, 0.05224609375
48, 4258196989, -6.762020111083984, -0.7298787236213684, 7.183061122894287, -2.375181198120117, -1.6315548419952393, -2.2134623527526855, 1.115234375, -0.402587890625, 0.051025390625
49, 4258213656, -6.745813369750977, -0.7474875450134277, 7.199044227600098, -2.288353681564331, -1.665235161781311, -2.2425966262817383, 1.1142578125, -0.403076171875, 0.051025390625
50, 4258230323, -6.746021747589111, -0.7249764204025269, 7.195818901062012, -2.4103214740753174, -1.515580415725708, -2.2110164165496826, 1.115234375, -0.40185546875, 0.050537109375
51, 4258246990, -6.759826183319092, -0.7222300171852112, 7.2036237716674805, -2.4678094387054443, -1.4255644083023071, -2.3223164081573486, 1.1162109375, -0.403076171875, 0.05224609375
52, 4258263657, -6.7741780281066895, -0.7407614588737488, 7.176667213439941, -2.4395711421966553, -1.58677077293396, -2.332676649093628, 1.11474609375, -0.40185546875, 0.051513671875
53, 4258280324, -6.762200355529785, -0.7426536083221436, 7.191705226898193, -2.3911633491516113, -1.588077187538147, -2.271731376647949, 1.11572265625, -0.406494140625, 0.05322265625
54, 4258296991, -6.761621952056885, -0.7592741250991821, 7.194496154785156, -2.2764694690704346, -1.5920723676681519, -2.2563507556915283, 1.115234375, -0.403564453125, 0.051025390625
55, 4258313658, -6.756449222564697, -0.7297430038452148, 7.206627368927002, -2.405426263809204, -1.686328649520874, -2.2758593559265137, 1.11328125, -0.404052734375, 0.05322265625
56, 4258330325, -6.765299320220947, -0.7297450304031372, 7.216775894165039, -2.376052141189575, -1.5580461025238037, -2.345560073852539, 1.11474609375, -0.404052734375, 0.049560546875
57, 4258346992, -6.745325088500977, -0.7296270132064819, 7.174585819244385, -2.378728151321411, -1.6069920063018799, -2.4020485877990723, 1.11474609375, -0.40185546875, 0.051513671875
58, 4258363659, -6.76171875, -0.7449312806129456, 7.206586837768555, -2.40409779548645, -1.6033039093017578, -2.3598904609680176, 1.11376953125, -0.40185546875, 0.0517578125
59, 4258380326, -6.771633625030518, -0.7463222742080688, 7.181141376495361, -2.3893446922302246, -1.5987190008163452, -2.2466437816619873, 1.1142578125, -0.405517578125, 0.051025390625
60, 4258396993, -6.757403373718262, -0.7363518476486206, 7.1713385581970215, -2.3203439712524414, -1.5899978876113892, -2.2654688358306885, 1.11669921875, -0.403564453125, 0.052734375
61, 4258413660, -6.769872665405273, -0.7259379029273987, 7.195869445800781, -2.3073201179504395, -1.6988264322280884, -2.150890588760376, 1.115234375, -0.403076171875, 0.051025390625
62, 4258430327, -6.776333808898926, -0.7471889853477478, 7.191927909851074, -2.236820936203003, -1.6316313743591309, -2.2392797470092773, 1.1142578125, -0.402587890625, 0.049560546875
63, 4258446994, -6.767519474029541, -0.7156438827514648, 7.186498165130615, -2.330512523651123, -1.7127468585968018, -2.2334020137786865, 1.113037109375, -0.40087890625, 0.049072265625
64, 4258463661, -6.776522636413574, -0.7450534701347351, 7.203221321105957, -2.424767017364502, -1.7491552829742432, -2.28562593460083, 1.115234375, -0.402587890625, 0.051025390625
65, 4258480328, -6.762439250946045, -0.7491083741188049, 7.223762035369873, -2.468539237976074, -1.7017079591751099, -2.32232928276062, 1.11572265625, -0.404052734375, 0.05224609375
66, 4258496995, -6.7576069831848145, -0.7338178753852844, 7.19077205657959, -2.4252922534942627, -1.672406792640686, -2.2785568237304688, 1.1142578125, -0.403564453125, 0.050537109375
67, 4258513662, -6.760630130767822, -0.7471258044242859, 7.209198951721191, -2.4648256301879883, -1.6718307733535767, -2.386335849761963, 1.11376953125, -0.40234375, 0.05224609375
68, 4258530329, -6.761901378631592, -0.7266749739646912, 7.18466329574585, -2.35886549949646, -1.7159227132797241, -2.2363088130950928, 1.115234375, -0.404541015625, 0.050537109375
69, 4258546996, -6.747103691101074, -0.7323486804962158, 7.192931652069092, -2.4239988327026367, -1.7032190561294556, -2.2734601497650146, 1.115234375, -0.402587890625, 0.050537109375
70, 4258563663, -6.749949932098389, -0.7170690298080444, 7.198136806488037, -2.4421582221984863, -1.6871854066848755, -2.2452480792999268, 1.11376953125, -0.40087890625, 0.050537109375
71, 4258580330, -6.752474308013916, -0.7321168184280396, 7.186428546905518, -2.479398727416992, -1.6487150192260742, -2.3598642349243164, 1.11328125, -0.402587890625, 0.051025390625
72, 4258596997, -6.751142501831055, -0.7412465810775757, 7.184717655181885, -2.4804234504699707, -1.5354045629501343, -2.3271443843841553, 1.11376953125, -0.404052734375, 0.052734375
73, 4258613664, -6.768842697143555, -0.7438948154449463, 7.189958572387695, -2.459075689315796, -1.5655890703201294, -2.3466227054595947, 1.1142578125, -0.402587890625, 0.049560546875
74, 4258630331, -6.760756015777588, -0.7417886853218079, 7.193553447723389, -2.408118963241577, -1.5326128005981445, -2.23040509223938, 1.11279296875, -0.404541015625, 0.050048828125
75, 4258646998, -6.754018306732178, -0.730252742767334, 7.19212007522583, -2.392648696899414, -1.6003711223602295, -2.176067590713501, 1.11474609375, -0.404052734375, 0.0517578125
76, 4258663665, -6.759453296661377, -0.7359508275985718, 7.189594268798828, -2.3288216590881348, -1.668398380279541, -2.223694324493408, 1.1162109375, -0.402587890625, 0.050537109375
77, 4258680332, -6.75109338760376, -0.738089382648468, 7.1820173263549805, -2.3464179039001465, -1.6287373304367065, -2.2493715286254883, 1.11328125, -0.40234375, 0.052001953125
78, 4258696999, -6.7661027908325195, -0.7375102043151855, 7.183133125305176, -2.4891321659088135, -1.5481340885162354, -2.334956407546997, 1.11279296875, -0.40185546875, 0.05224609375
79, 4258713666, -6.752118110656738, -0.7438935041427612, 7.20815372467041, -2.470024824142456, -1.5332788228988647, -2.228292226791382, 1.1171875, -0.40283203125, 0.05078125
80, 4258730333, -6.763778209686279, -0.7288153171539307, 7.193398475646973, -2.468219041824341, -1.5394258499145508, -2.2099661827087402, 1.1162109375, -0.404541015625, 0.052734375
81, 4258747000, -6.7503814697265625, -0.7363788485527039, 7.178713798522949, -2.4180567264556885, -1.6635576486587524, -2.2559921741485596, 1.1162109375, -0.4013671875, 0.049072265625
82, 4258763667, -6.753766059875488, -0.7303793430328369, 7.199078559875488, -2.3918673992156982, -1.622602939605713, -2.1982994079589844, 1.11328125, -0.403564453125, 0.05322265625
83, 4258780334, -6.752651214599609, -0.7281185984611511, 7.188444137573242, -2.3119049072265625, -1.7120298147201538, -2.28342342376709, 1.1142578125, -0.40234375, 0.050537109375
84, 4258797001, -6.736810207366943, -0.7388761639595032, 7.206524848937988, -2.4095468521118164, -1.6912387609481812, -2.2949938774108887, 1.11474609375, -0.40234375, 0.05224609375
85, 4258813668, -6.751899242401123, -0.7299385070800781, 7.189849853515625, -2.3811612129211426, -1.6480491161346436, -2.2382938861846924, 1.11474609375, -0.403564453125, 0.051025390625
86, 4258830335, -6.754619598388672, -0.7355849742889404, 7.192504405975342, -2.392815113067627, -1.5536918640136719, -2.2636756896972656, 1.11474609375, -0.40234375, 0.048583984375
87, 4258847002, -6.755748271942139, -0.7317034006118774, 7.206528663635254, -2.4198365211486816, -1.5838892459869385, -2.319793224334717, 1.115234375, -0.4013671875, 0.050048828125
88, 4258863669, -6.748075485229492, -0.7390598058700562, 7.182986259460449, -2.3663957118988037, -1.5266832113265991, -2.244300127029419, 1.11474609375, -0.40234375, 0.051025390625
89, 4258880336, -6.75691556930542, -0.7483553290367126, 7.175480842590332, -2.337683916091919, -1.5901516675949097, -2.223182439804077, 1.11572265625, -0.403564453125, 0.0517578125
90, 4258897003, -6.741988658905029, -0.7286977767944336, 7.184242248535156, -2.3246729373931885, -1.6127293109893799, -2.1765544414520264, 1.1162109375, -0.404052734375, 0.050537109375
91, 4258913670, -6.758452415466309, -0.7218817472457886, 7.200492858886719, -2.3885486125946045, -1.559924840927124, -2.201509952545166, 1.11669921875, -0.404541015625, 0.05126953125
92, 4258930337, -6.742617130279541, -0.7307318449020386, 7.176804065704346, -2.40217661857605, -1.6008704900741577, -2.2658016681671143, 1.11572265625, -0.40234375, 0.049072265625
93, 4258947004, -6.763265609741211, -0.7329680323600769, 7.194065570831299, -2.4053142070770264, -1.6291085481643677, -2.3141074180603027, 1.115234375, -0.403076171875, 0.049560546875
94, 4258963671, -6.754949569702148, -0.7406325936317444, 7.1998209953308105, -2.5366690158843994, -1.5213431119918823, -2.3915345668792725, 1.11474609375, -0.403564453125, 0.05224609375
95, 4258980338, -6.748399257659912, -0.7395288944244385, 7.183138370513916, -2.4109106063842773, -1.4875472784042358, -2.3435237407684326, 1.1142578125, -0.40234375, 0.0517578125
96, 4258997005, -6.758074760437012, -0.7489305734634399, 7.221908092498779, -2.431349754333496, -1.5834156274795532, -2.3011474609375, 1.11474609375, -0.403076171875, 0.05322265625
97, 4259013672, -6.756046295166016, -0.7393466234207153, 7.2057719230651855, -2.467655658721924, -1.5401941537857056, -2.232876777648926, 1.11572265625, -0.4013671875, 0.051025390625
98, 4259030339, -6.750561714172363, -0.7504281401634216, 7.208555221557617, -2.4831769466400146, -1.5195375680923462, -2.3282968997955322, 1.11474609375, -0.40234375, 0.049072265625
99, 4259047006, -6.748158931732178, -0.748422384262085, 7.184759616851807, -2.473649263381958, -1.4113879203796387, -2.243263006210327, 1.11279296875, -0.403564453125, 0.05224609375
100, 4259063673, -6.7560200691223145, -0.7392758131027222, 7.188797473907471, -2.525117874145508, -1.4756501913070679, -2.3847219944000244, 1.11328125, -0.402587890625, 0.051025390625
101, 4259080340, -6.761693477630615, -0.749833345413208, 7.206101417541504, -2.4746735095977783, -1.4068800210952759, -2.2812466621398926, 1.1142578125, -0.4013671875, 0.05224609375
102, 4259097007, -6.756659030914307, -0.7306196093559265, 7.200592994689941, -2.427943468093872, -1.4710911512374878, -2.2637531757354736, 1.11572265625, -0.4013671875, 0.050048828125
103, 4259113674, -6.755448341369629, -0.7479393482208252, 7.194775581359863, -2.4188125133514404, -1.3886693716049194, -2.282053232192993, 1.115234375, -0.404541015625, 0.049072265625
104, 4259130341, -6.753856658935547, -0.7251277565956116, 7.184214115142822, -2.3954789638519287, -1.4034349918365479, -2.2239761352539062, 1.1142578125, -0.40185546875, 0.0517578125
105, 4259147008, -6.756533145904541, -0.7445131540298462, 7.199108600616455, -2.402009963989258, -1.4262559413909912, -2.224130153656006, 1.11376953125, -0.40234375, 0.0517578125
106, 4259163675, -6.758066654205322, -0.7231537103652954, 7.179991722106934, -2.4675915241241455, -1.4453246593475342, -2.303170919418335, 1.1142578125, -0.402587890625, 0.052734375
107, 4259180342, -6.756165504455566, -0.7296142578125, 7.193312168121338, -2.4513916969299316, -1.4455935955047607, -2.3330228328704834, 1.11474609375, -0.40234375, 0.052734375
108, 4259197009, -6.75050687789917, -0.7560793161392212, 7.187717437744141, -2.532212734222412, -1.4562101364135742, -2.39387845993042, 1.1162109375, -0.40234375, 0.050537109375
109, 4259213676, -6.752106666564941, -0.7522206902503967, 7.185874938964844, -2.4638264179229736, -1.3856343030929565, -2.2408552169799805, 1.115234375, -0.4013671875, 0.048583984375
110, 4259230343, -6.761228084564209, -0.7465445399284363, 7.181674480438232, -2.4137790203094482, -1.5559331178665161, -2.218597650527954, 1.1142578125, -0.40185546875, 0.051025390625
111, 4259247010, -6.7545270919799805, -0.734488308429718, 7.206204891204834, -2.4087719917297363, -1.5411546230316162, -2.256504774093628, 1.11474609375, -0.40234375, 0.05126953125
112, 4259263677, -6.746016979217529, -0.7477589249610901, 7.173871040344238, -2.4070301055908203, -1.4816049337387085, -2.262817859649658, 1.11474609375, -0.40234375, 0.050537109375
113, 4259280344, -6.750947952270508, -0.7310230731964111, 7.193993091583252, -2.3634119033813477, -1.524006962776184, -2.322431802749634, 1.11572265625, -0.4013671875, 0.050048828125
114, 4259297011, -6.7634758949279785, -0.7311323881149292, 7.193092346191406, -2.3901515007019043, -1.4714241027832031, -2.3108034133911133, 1.11669921875, -0.403076171875, 0.05224609375
115, 4259313678, -6.7582902908325195, -0.734537661075592, 7.178751468658447, -2.324045419692993, -1.4832826852798462, -2.339169502258301, 1.11572265625, -0.40087890625, 0.050537109375
116, 4259330345, -6.751479148864746, -0.7411179542541504, 7.205910682678223, -2.3578665256500244, -1.590343713760376, -2.3103294372558594, 1.115234375, -0.40185546875, 0.05126953125
117, 4259347012, -6.748814582824707, -0.7330184578895569, 7.182336330413818, -2.382736921310425, -1.5837998390197754, -2.3197808265686035, 1.115234375, -0.400390625, 0.050048828125
118, 4259363679, -6.757544040679932, -0.7455166578292847, 7.183221340179443, -2.3854260444641113, -1.5883972644805908, -2.2776222229003906, 1.1123046875, -0.402587890625, 0.051025390625
119, 4259380346, -6.746401309967041, -0.7483583688735962, 7.189327716827393, -2.4466917514801025, -1.5206516981124878, -2.1148533821105957, 1.1142578125, -0.400390625, 0.050537109375
120, 4259397013, -6.752086639404297, -0.7392032742500305, 7.190219402313232, -2.32989764213562, -1.521279215812683, -2.2227470874786377, 1.115234375, -0.4013671875, 0.050537109375
121, 4259413680, -6.751636981964111, -0.7401648759841919, 7.189872741699219, -2.3001868724823, -1.551053762435913, -2.1128170490264893, 1.11474609375, -0.402587890625, 0.05224609375
122, 4259430347, -6.756289958953857, -0.7377671599388123, 7.184264659881592, -2.332484483718872, -1.5205875635147095, -2.2120919227600098, 1.115234375, -0.40234375, 0.050537109375
123, 4259447014, -6.758083820343018, -0.7318502068519592, 7.204428195953369, -2.3908560276031494, -1.4941041469573975, -2.2279465198516846, 1.11279296875, -0.404052734375, 0.051513671875
124, 4259463681, -6.7722296714782715, -0.7334866523742676, 7.1923418045043945, -2.3053481578826904, -1.582929015159607, -2.2431604862213135, 1.11279296875, -0.40234375, 0.051025390625
125, 4259480348, -6.759138584136963, -0.7399265170097351, 7.186840057373047, -2.4145092964172363, -1.669115662574768, -2.25231671333313, 1.1142578125, -0.403564453125, 0.051025390625
126, 4259497015, -6.755610466003418, -0.7500452399253845, 7.1932477951049805, -2.4264321327209473, -1.7134896516799927, -2.233017683029175, 1.1142578125, -0.402587890625, 0.051513671875
127, 4259513682, -6.76487398147583, -0.7527179718017578, 7.193237781524658, -2.3377485275268555, -1.7596278190612793, -2.264436721801758, 1.11572265625, -0.403076171875, 0.050537109375
128, 4259530349, -6.753751277923584, -0.7361077666282654, 7.215627193450928, -2.4376630783081055, -1.663519263267517, -2.2209925651550293, 1.11572265625, -0.40087890625, 0.051025390625
129, 4259547016, -6.758330345153809, -0.739482581615448, 7.190667152404785, -2.4112820625305176, -1.6386364698410034, -2.2993032932281494, 1.117919921875, -0.403076171875, 0.05224609375
130, 4259563683, -6.758246898651123, -0.7296336889266968, 7.191058158874512, -2.469883918762207, -1.6641596555709839, -2.289250373840332, 1.11474609375, -0.404541015625, 0.0517578125
131, 4259580350, -6.753843307495117, -0.7458423376083374, 7.188172340393066, -2.4137024879455566, -1.6545803546905518, -2.3244550228118896, 1.11572265625, -0.40234375, 0.05126953125
132, 4259597017, -6.754151821136475, -0.7421071529388428, 7.1965765953063965, -2.383287191390991, -1.6118582487106323, -2.250434160232544, 1.11376953125, -0.404541015625, 0.05322265625
133, 4259613684, -6.756219387054443, -0.7377210259437561, 7.172332763671875, -2.339297294616699, -1.700516700744629, -2.239331007003784, 1.11474609375, -0.404052734375, 0.05126953125
134, 4259630351, -6.760631084442139, -0.7412140369415283, 7.18155574798584, -2.3881795406341553, -1.664249300956726, -2.3272852897644043, 1.11572265625, -0.4013671875, 0.048583984375
135, 4259647018, -6.748655319213867, -0.7371248006820679, 7.201765060424805, -2.4408516883850098, -1.5398354530334473, -2.253840684890747, 1.115234375, -0.40185546875, 0.050537109375
136, 4259663685, -6.7565741539001465, -0.7426955699920654, 7.192985534667969, -2.3655507564544678, -1.5125197172164917, -2.2581441402435303, 1.11376953125, -0.402587890625, 0.051513671875
137, 4259680352, -6.760720252990723, -0.7416969537734985, 7.1944379806518555, -2.428391456604004, -1.57772958278656, -2.3315370082855225, 1.1171875, -0.40185546875, 0.05126953125
138, 4259697019, -6.758596897125244, -0.7471624612808228, 7.180671691894531, -2.5050625801086426, -1.5269521474838257, -2.2238481044769287, 1.1142578125, -0.40185546875, 0.050537109375
139, 4259713686, -6.745598793029785, -0.7438958287239075, 7.183267116546631, -2.431119203567505, -1.710966944694519, -2.268773078918457, 1.1162109375, -0.40087890625, 0.050537109375
140, 4259730353, -6.762967586517334, -0.7352984547615051, 7.2017669677734375, -2.300609588623047, -1.7799673080444336, -2.300187110900879, 1.1162109375, -0.403076171875, 0.050537109375
141, 4259747020, -6.752219200134277, -0.7398357391357422, 7.218984127044678, -2.3847219944000244, -1.6799627542495728, -2.342909097671509, 1.115234375, -0.40185546875, 0.050048828125
142, 4259763687, -6.747176170349121, -0.7292079329490662, 7.199547290802002, -2.4165842533111572, -1.6872366666793823, -2.3474807739257812, 1.1162109375, -0.403076171875, 0.05078125
143, 4259780354, -6.748392105102539, -0.7395291328430176, 7.185609817504883, -2.3849904537200928, -1.663532018661499, -2.310828924179077, 1.1162109375, -0.403564453125, 0.050537109375
144, 4259797021, -6.744687080383301, -0.7352544069290161, 7.194809436798096, -2.3833513259887695, -1.6962779760360718, -2.3653714656829834, 1.11376953125, -0.403076171875, 0.0517578125
145, 4259813688, -6.756339073181152, -0.7598519325256348, 7.196452617645264, -2.377114772796631, -1.7262320518493652, -2.3504135608673096, 1.1162109375, -0.402587890625, 0.05078125
146, 4259830355, -6.759133338928223, -0.744863748550415, 7.174670696258545, -2.2811696529388428, -1.692205548286438, -2.347890615463257, 1.11376953125, -0.403076171875, 0.050048828125
147, 4259847022, -6.749995708465576, -0.7385154366493225, 7.208455562591553, -2.3584048748016357, -1.733467698097229, -2.2813618183135986, 1.1142578125, -0.402587890625, 0.051025390625
148, 4259863689, -6.746284008026123, -0.7334997057914734, 7.212377071380615, -2.3317930698394775, -1.6372790336608887, -2.2585151195526123, 1.11328125, -0.403076171875, 0.049560546875
149, 4259880356, -6.749829292297363, -0.7419097423553467, 7.185054302215576, -2.327579975128174, -1.6707676649093628, -2.2294061183929443, 1.1142578125, -0.402587890625, 0.049560546875
150, 4259897023, -6.756871223449707, -0.7291743159294128, 7.182326793670654, -2.2806572914123535, -1.73876953125, -2.2616140842437744, 1.11376953125, -0.404052734375, 0.05322265625
151, 4259913690, -6.7423319816589355, -0.7289901375770569, 7.207411289215088, -2.474123001098633, -1.6885043382644653, -2.354473114013672, 1.1142578125, -0.40185546875, 0.051025390625
152, 4259930357, -6.749445915222168, -0.7558481693267822, 7.202743053436279, -2.405787944793701, -1.614842176437378, -2.3261961936950684, 1.111083984375, -0.402587890625, 0.048095703125
153, 4259947024, -6.753688812255859, -0.7560864686965942, 7.196918487548828, -2.4271748065948486, -1.672842264175415, -2.247847557067871, 1.1142578125, -0.40234375, 0.049560546875
154, 4259963691, -6.745328426361084, -0.7336583137512207, 7.184638500213623, -2.4198496341705322, -1.6168529987335205, -2.345470428466797, 1.11572265625, -0.40234375, 0.049560546875
155, 4259980358, -6.7460198402404785, -0.7524542808532715, 7.202614784240723, -2.3930201530456543, -1.6664904356002808, -2.234567403793335, 1.11474609375, -0.402587890625, 0.051025390625
156, 4259997025, -6.757605075836182, -0.7482091784477234, 7.211129665374756, -2.4173266887664795, -1.5095229148864746, -2.272294759750366, 1.11474609375, -0.40185546875, 0.050048828125
157, 4260013692, -6.742211818695068, -0.7419242858886719, 7.202186107635498, -2.394364833831787, -1.461998462677002, -2.262587547302246, 1.11474609375, -0.403076171875, 0.050537109375
158, 4260030359, -6.746131896972656, -0.7443031072616577, 7.1871018409729, -2.4547853469848633, -1.4478603601455688, -2.181856155395508, 1.1162109375, -0.402587890625, 0.050048828125
159, 4260047026, -6.7475409507751465, -0.7455496788024902, 7.208532810211182, -2.4587039947509766, -1.391640543937683, -2.260333776473999, 1.115234375, -0.402587890625, 0.048583984375
160, 4260063693, -6.749738693237305, -0.7376687526702881, 7.193103313446045, -2.4346792697906494, -1.4058938026428223, -2.2291500568389893, 1.11669921875, -0.403076171875, 0.049560546875
161, 4260080360, -6.758184909820557, -0.7545241713523865, 7.168610572814941, -2.365807056427002, -1.4717059135437012, -2.2379610538482666, 1.115234375, -0.40234375, 0.05126953125
162, 4260097027, -6.757314682006836, -0.7492319941520691, 7.199645519256592, -2.326964855194092, -1.4157418012619019, -2.1329102516174316, 1.11572265625, -0.405029296875, 0.050537109375
163, 4260113694, -6.752024173736572, -0.7305595874786377, 7.209599018096924, -2.3128926753997803, -1.5119036436080933, -2.209141969680786, 1.11474609375, -0.403564453125, 0.048583984375
164, 4260130361, -6.7443342208862305, -0.7260351777076721, 7.200451374053955, -2.338273048400879, -1.6131006479263306, -2.1436805725097656, 1.115234375, -0.40185546875, 0.050537109375
165, 4260147028, -6.751894474029541, -0.7181310057640076, 7.197866439819336, -2.4723939895629883, -1.571582555770874, -2.2338502407073975, 1.11376953125, -0.403076171875, 0.049072265625
166, 4260163695, -6.75244140625, -0.7379747629165649, 7.1939215660095215, -2.509596586227417, -1.5259664058685303, -2.271129608154297, 1.11279296875, -0.404052734375, 0.050048828125
167, 4260180362, -6.752106189727783, -0.7523141503334045, 7.191394805908203, -2.381955146789551, -1.49323308467865, -2.140350818634033, 1.11474609375, -0.40087890625, 0.050048828125
168, 4260197029, -6.747322082519531, -0.7400296926498413, 7.185850620269775, -2.366126775741577, -1.5440871715545654, -2.104172706604004, 1.11474609375, -0.40185546875, 0.050048828125
169, 4260213696, -6.748417377471924, -0.7341869473457336, 7.19509744644165, -2.254737138748169, -1.6692308187484741, -2.015578269958496, 1.11328125, -0.40185546875, 0.051513671875
170, 4260230363, -6.750275611877441, -0.7228477001190186, 7.215200901031494, -2.3696482181549072, -1.7103006839752197, -2.195533275604248, 1.1142578125, -0.40185546875, 0.050537109375
171, 4260247030, -6.759414196014404, -0.7363400459289551, 7.1817145347595215, -2.368175506591797, -1.6020358800888062, -2.2519707679748535, 1.1142578125, -0.40234375, 0.051513671875
172, 4260263697, -6.750497817993164, -0.7405972480773926, 7.175858497619629, -2.453446865081787, -1.5917714834213257, -2.351597785949707, 1.11572265625, -0.405029296875, 0.050537109375
173, 4260280364, -6.756103992462158, -0.7291947603225708, 7.185022354125977, -2.369494915008545, -1.650776982307434, -2.312711715698242, 1.11279296875, -0.402587890625, 0.052734375
174, 4260297031, -6.754646301269531, -0.7381028532981873, 7.199830532073975, -2.3494019508361816, -1.619862675666809, -2.3187308311462402, 1.1142578125, -0.402587890625, 0.052734375
175, 4260313698, -6.748073101043701, -0.7431329488754272, 7.174801826477051, -2.3617210388183594, -1.6504822969436646, -2.363309383392334, 1.11572265625, -0.403564453125, 0.050537109375
176, 4260330365, -6.755893230438232, -0.7433981895446777, 7.193469524383545, -2.4604458808898926, -1.5463284254074097, -2.349977970123291, 1.115234375, -0.403076171875, 0.050048828125
177, 4260347032, -6.742669582366943, -0.7414620518684387, 7.177548885345459, -2.383249044418335, -1.571748971939087, -2.344317674636841, 1.1142578125, -0.403076171875, 0.048095703125
178, 4260363699, -6.754250526428223, -0.7432783246040344, 7.192735195159912, -2.396669864654541, -1.7260141372680664, -2.213923215866089, 1.112060546875, -0.40185546875, 0.052001953125
179, 4260380366, -6.73996114730835, -0.7182937264442444, 7.193562984466553, -2.366011381149292, -1.7161788940429688, -2.255492925643921, 1.115234375, -0.4013671875, 0.051025390625
180, 4260397033, -6.740849018096924, -0.7156116962432861, 7.188396453857422, -2.426111936569214, -1.654516339302063, -2.3124427795410156, 1.115234375, -0.403564453125, 0.050537109375
181, 4260413700, -6.745619773864746, -0.7599811553955078, 7.199559211730957, -2.4288012981414795, -1.6420173645019531, -2.381763219833374, 1.115234375, -0.40234375, 0.049072265625
182, 4260430367, -6.757070064544678, -0.7444441318511963, 7.203807353973389, -2.5042178630828857, -1.6961628198623657, -2.3917782306671143, 1.11376953125, -0.403564453125, 0.048095703125
183, 4260447034, -6.754657745361328, -0.7474719882011414, 7.197153568267822, -2.4620213508605957, -1.6121915578842163, -2.447460412979126, 1.11328125, -0.40185546875, 0.048095703125
184, 4260463701, -6.740043640136719, -0.7430077195167542, 7.20810079574585, -2.5221593379974365, -1.5797401666641235, -2.3462514877319336, 1.1162109375, -0.40185546875, 0.050537109375
185, 4260480368, -6.745819568634033, -0.759092390537262, 7.194764137268066, -2.58278489112854, -1.6147528886795044, -2.4300179481506348, 1.1142578125, -0.402587890625, 0.0517578125
186, 4260497035, -6.745312213897705, -0.743087649345398, 7.199763774871826, -2.530996084213257, -1.6633785963058472, -2.3189871311187744, 1.11474609375, -0.40234375, 0.05224609375
187, 4260513702, -6.747621536254883, -0.7380476593971252, 7.230316638946533, -2.4818193912506104, -1.5960426330566406, -2.332446336746216, 1.11474609375, -0.403076171875, 0.050048828125
188, 4260530369, -6.757054328918457, -0.7464107275009155, 7.202883720397949, -2.4122424125671387, -1.4840896129608154, -2.3503623008728027, 1.11376953125, -0.403076171875, 0.0517578125
189, 4260547036, -6.754037380218506, -0.7446502447128296, 7.184312343597412, -2.454157590866089, -1.5358912944793701, -2.3349051475524902, 1.1171875, -0.403564453125, 0.049560546875
190, 4260563703, -6.761704921722412, -0.7454800009727478, 7.206206798553467, -2.3472118377685547, -1.5456368923187256, -2.283179998397827, 1.115234375, -0.402587890625, 0.049560546875
191, 4260580370, -6.747237205505371, -0.7392535209655762, 7.177292346954346, -2.348121166229248, -1.6198495626449585, -2.1945347785949707, 1.115234375, -0.404052734375, 0.050048828125
192, 4260597037, -6.7484893798828125, -0.7369705438613892, 7.195194244384766, -2.3886148929595947, -1.5715057849884033, -2.21357798576355, 1.11376953125, -0.403076171875, 0.051513671875
193, 4260613704, -6.747023582458496, -0.743710458278656, 7.216761589050293, -2.4813072681427, -1.5422046184539795, -2.2248728275299072, 1.11328125, -0.403076171875, 0.048095703125
194, 4260630371, -6.75922155380249, -0.7213008999824524, 7.203038215637207, -2.469460964202881, -1.488020896911621, -2.2307379245758057, 1.11572265625, -0.40185546875, 0.051025390625
195, 4260647038, -6.754410266876221, -0.7573383450508118, 7.205787181854248, -2.458908796310425, -1.5323822498321533, -2.305232524871826, 1.11279296875, -0.40185546875, 0.051025390625
196, 4260663705, -6.754825592041016, -0.7556559443473816, 7.210270404815674, -2.4091176986694336, -1.4622416496276855, -2.2417898178100586, 1.1123046875, -0.403076171875, 0.050537109375
197, 4260680372, -6.742714881896973, -0.7386391758918762, 7.193118572235107, -2.402592420578003, -1.2811534404754639, -2.219730854034424, 1.11376953125, -0.40234375, 0.052734375
198, 4260697039, -6.750518321990967, -0.7509055137634277, 7.1691203117370605, -2.4298255443573, -1.4574265480041504, -2.2210817337036133, 1.11328125, -0.4013671875, 0.052734375
199, 4260713706, -6.752204418182373, -0.7381580471992493, 7.21232271194458, -2.3902900218963623, -1.4913125038146973, -2.2162363529205322, 1.11572265625, -0.40185546875, 0.049560546875
200, 4260730373, -6.749063014984131, -0.7379493117332458, 7.196384429931641, -2.349222183227539, -1.5002381801605225, -2.2551980018615723, 1.11376953125, -0.402587890625, 0.052734375
201, 4260747040, -6.754876613616943, -0.741623044013977, 7.20083475112915, -2.4063005447387695, -1.500981092453003, -2.2833850383758545, 1.11572265625, -0.4013671875, 0.049560546875
202, 4260763707, -6.75653076171875, -0.7529087066650391, 7.1797637939453125, -2.4258430004119873, -1.4696184396743774, -2.225090503692627, 1.115234375, -0.404541015625, 0.050537109375
203, 4260780374, -6.741375923156738, -0.747626543045044, 7.206804275512695, -2.2528162002563477, -1.5706733465194702, -2.3416926860809326, 1.1162109375, -0.40185546875, 0.051025390625
204, 4260797041, -6.743036270141602, -0.7585515975952148, 7.206596851348877, -2.295384407043457, -1.4375895261764526, -2.2575161457061768, 1.11376953125, -0.4013671875, 0.050537109375
205, 4260813708, -6.750164031982422, -0.741791844367981, 7.2041096687316895, -2.2916579246520996, -1.4185210466384888, -2.2643675804138184, 1.112548828125, -0.400390625, 0.052001953125
206, 4260830375, -6.752826690673828, -0.7425400018692017, 7.186086177825928, -2.3477494716644287, -1.3419644832611084, -2.2781598567962646, 1.11669921875, -0.40234375, 0.0537109375
207, 4260847042, -6.747351169586182, -0.7480176091194153, 7.176586151123047, -2.2575416564941406, -1.4079172611236572, -2.109577178955078, 1.1162109375, -0.40234375, 0.050537109375
208, 4260863709, -6.7494306564331055, -0.7333841919898987, 7.184806823730469, -2.257439136505127, -1.5659987926483154, -2.1490590572357178, 1.11474609375, -0.4013671875, 0.050537109375
209, 4260880376, -6.754486083984375, -0.7173459529876709, 7.227710247039795, -2.317065477371216, -1.5274900197982788, -2.1892197132110596, 1.1162109375, -0.40234375, 0.0537109375
210, 4260897043, -6.7447509765625, -0.7190210223197937, 7.2018561363220215, -2.3877439498901367, -1.501672387123108, -2.1356122493743896, 1.11474609375, -0.40234375, 0.052734375
211, 4260913710, -6.753218650817871, -0.7329303622245789, 7.205359935760498, -2.38800048828125, -1.4532647132873535, -2.246105909347534, 1.1142578125, -0.402587890625, 0.0517578125
212, 4260930377, -6.756484508514404, -0.7262616753578186, 7.200798034667969, -2.4393792152404785, -1.5467255115509033, -2.331268310546875, 1.1142578125, -0.403564453125, 0.050048828125
213, 4260947044, -6.751145839691162, -0.7532654404640198, 7.198615074157715, -2.4407238960266113, -1.574323058128357, -2.2618706226348877, 1.11474609375, -0.40087890625, 0.049560546875
214, 4260963711, -6.751246452331543, -0.7403261661529541, 7.204568386077881, -2.3243398666381836, -1.603803277015686, -2.266941785812378, 1.11474609375, -0.4013671875, 0.050537109375
215, 4260980378, -6.741198539733887, -0.7461382150650024, 7.1869025230407715, -2.3697381019592285, -1.557226538658142, -2.218456506729126, 1.1142578125, -0.404052734375, 0.050048828125
216, 4260997045, -6.744559288024902, -0.727787971496582, 7.195235252380371, -2.3458032608032227, -1.5709165334701538, -2.261370897293091, 1.11279296875, -0.403076171875, 0.051513671875
217, 4261013712, -6.757541179656982, -0.7387304902076721, 7.18388032913208, -2.440633773803711, -1.5085623264312744, -2.2539427280426025, 1.11376953125, -0.4013671875, 0.051513671875
218, 4261030379, -6.753085613250732, -0.7399799823760986, 7.183806419372559, -2.4457690715789795, -1.4936429262161255, -2.2275619506835938, 1.11474609375, -0.402587890625, 0.050537109375
219, 4261047046, -6.7556657791137695, -0.7322806715965271, 7.196303844451904, -2.388909339904785, -1.5837485790252686, -2.3105854988098145, 1.115234375, -0.40234375, 0.04541015625
220, 4261063713, -6.7491774559021, -0.7401562929153442, 7.218062877655029, -2.3780624866485596, -1.6467046737670898, -2.252406358718872, 1.1162109375, -0.403564453125, 0.050537109375
221, 4261080380, -6.7590718269348145, -0.7301980257034302, 7.195444107055664, -2.319460868835449, -1.6999150514602661, -2.2275238037109375, 1.115234375, -0.403076171875, 0.05126953125
222, 4261097047, -6.749736785888672, -0.7404831647872925, 7.1831746101379395, -2.286689043045044, -1.6289677619934082, -2.2623956203460693, 1.11328125, -0.403564453125, 0.050048828125
223, 4261113714, -6.749472618103027, -0.7379500865936279, 7.205163478851318, -2.3270163536071777, -1.776996374130249, -2.2359890937805176, 1.11376953125, -0.402587890625, 0.050537109375
224, 4261130381, -6.7503814697265625, -0.7255075573921204, 7.193381309509277, -2.3527443408966064, -1.7165504693984985, -2.2966909408569336, 1.115234375, -0.40234375, 0.049072265625
225, 4261147048, -6.7625203132629395, -0.7344915866851807, 7.196514129638672, -2.4479336738586426, -1.73802649974823, -2.3378500938415527, 1.1162109375, -0.40234375, 0.049560546875
226, 4261163715, -6.747929096221924, -0.7507727146148682, 7.203840732574463, -2.3640010356903076, -1.5917654037475586, -2.2405989170074463, 1.11279296875, -0.40185546875, 0.052001953125
227, 4261180382, -6.7619194984436035, -0.7473058700561523, 7.19317626953125, -2.41115403175354, -1.550362467765808, -2.202730655670166, 1.11474609375, -0.403076171875, 0.049072265625
228, 4261197049, -6.753511428833008, -0.7323277592658997, 7.190664768218994, -2.4068703651428223, -1.6585440635681152, -2.1694021224975586, 1.115234375, -0.404052734375, 0.050537109375
229, 4261213716, -6.741681098937988, -0.7291057705879211, 7.199638843536377, -2.275022506713867, -1.6562069654464722, -2.203998565673828, 1.11328125, -0.402587890625, 0.049072265625
230, 4261230383, -6.741706848144531, -0.733892560005188, 7.198462963104248, -2.3516175746917725, -1.625612735748291, -2.232966661453247, 1.115234375, -0.402587890625, 0.049072265625
231, 4261247050, -6.756354331970215, -0.7371253371238708, 7.207801342010498, -2.353551149368286, -1.558007836341858, -2.248833656311035, 1.11376953125, -0.4013671875, 0.049072265625
232, 4261263717, -6.7546772956848145, -0.7335633635520935, 7.214388370513916, -2.3547933101654053, -1.578600525856018, -2.272128105163574, 1.1142578125, -0.400390625, 0.051513671875
233, 4261280384, -6.739686489105225, -0.7360302805900574, 7.189434051513672, -2.394582509994507, -1.5471863746643066, -2.336339235305786, 1.11376953125, -0.405029296875, 0.05126953125
234, 4261297051, -6.744824409484863, -0.7371300458908081, 7.200985431671143, -2.294346809387207, -1.5257357358932495, -2.2121944427490234, 1.11474609375, -0.403076171875, 0.05126953125
235, 4261313718, -6.747925758361816, -0.7442418336868286, 7.214072227478027, -2.3000619411468506, -1.607587218284607, -2.1226916313171387, 1.115234375, -0.40185546875, 0.051025390625
236, 4261330385, -6.758854866027832, -0.7281420826911926, 7.178562164306641, -2.247143030166626, -1.6740460395812988, -2.1450634002685547, 1.11328125, -0.4013671875, 0.050048828125
237, 4261347052, -6.744563579559326, -0.7180872559547424, 7.207679271697998, -2.280439615249634, -1.623166561126709, -2.1860311031341553, 1.11474609375, -0.4013671875, 0.051513671875
238, 4261363719, -6.7401814460754395, -0.7355126738548279, 7.196079254150391, -2.3353147506713867, -1.5341236591339111, -2.1852242946624756, 1.1142578125, -0.4013671875, 0.050537109375
239, 4261380386, -6.737510681152344, -0.7288468480110168, 7.20495080947876, -2.426111936569214, -1.567612648010254, -2.247962713241577, 1.11376953125, -0.40234375, 0.052734375
240, 4261397053, -6.752901554107666, -0.7344512939453125, 7.202789306640625, -2.4889907836914062, -1.4943218231201172, -2.2619469165802, 1.11474609375, -0.40185546875, 0.0517578125
241, 4261413720, -6.749261856079102, -0.7325806617736816, 7.161412715911865, -2.4772984981536865, -1.4967676401138306, -2.305360794067383, 1.11572265625, -0.40185546875, 0.050048828125
242, 4261430387, -6.739074230194092, -0.7359576225280762, 7.1941609382629395, -2.4003069400787354, -1.6031501293182373, -2.253187417984009, 1.11572265625, -0.404052734375, 0.049560546875
243, 4261447054, -6.757973670959473, -0.7442001700401306, 7.218399524688721, -2.348172426223755, -1.656975269317627, -2.1469974517822266, 1.1162109375, -0.403564453125, 0.050048828125
244, 4261463721, -6.747347831726074, -0.744001567363739, 7.2089152336120605, -2.346405029296875, -1.6810767650604248, -2.113816022872925, 1.115234375, -0.402587890625, 0.05126953125
245, 4261480388, -6.751145839691162, -0.7343144416809082, 7.2155656814575195, -2.3931095600128174, -1.6691668033599854, -2.11061429977417, 1.11474609375, -0.404052734375, 0.05322265625
246, 4261497055, -6.74448299407959, -0.7376667261123657, 7.2014570236206055, -2.3294239044189453, -1.6191837787628174, -2.2320570945739746, 1.115234375, -0.403076171875, 0.0517578125
247, 4261513722, -6.747429847717285, -0.7287122011184692, 7.211162567138672, -2.36263108253479, -1.5241222381591797, -2.212745428085327, 1.11376953125, -0.403076171875, 0.051025390625
248, 4261530389, -6.739289283752441, -0.7264615893363953, 7.193968296051025, -2.369558811187744, -1.4986246824264526, -2.097987651824951, 1.11572265625, -0.403076171875, 0.050048828125
249, 4261547056, -6.745630264282227, -0.7392207980155945, 7.192380905151367, -2.3100476264953613, -1.4529058933258057, -2.0792646408081055, 1.11572265625, -0.402587890625, 0.048095703125
250, 4261563723, -6.750306129455566, -0.752433717250824, 7.2128496170043945, -2.3466227054595947, -1.5205106735229492, -2.145409107208252, 1.11328125, -0.403564453125, 0.050537109375
251, 4261580390, -6.75653600692749, -0.7268644571304321, 7.1925153732299805, -2.372312068939209, -1.4103375673294067, -2.0487213134765625, 1.1123046875, -0.404052734375, 0.051513671875
252, 4261597057, -6.752474308013916, -0.7141178846359253, 7.1859002113342285, -2.322777271270752, -1.5885379314422607, -2.1403892040252686, 1.1162109375, -0.405517578125, 0.049072265625
253, 4261613724, -6.759382724761963, -0.7234732508659363, 7.215930938720703, -2.386796712875366, -1.780761480331421, -2.2831547260284424, 1.11376953125, -0.403076171875, 0.050048828125
254, 4261630391, -6.748997688293457, -0.7242321372032166, 7.190747261047363, -2.421873092651367, -1.7671738862991333, -2.291837453842163, 1.11279296875, -0.403564453125, 0.050048828125
255, 4261647058, -6.752925395965576, -0.7272899746894836, 7.210867881774902, -2.471933126449585, -1.7551103830337524, -2.431567430496216, 1.11474609375, -0.402587890625, 0.049072265625
256, 4261663725, -6.740870475769043, -0.7307525873184204, 7.213456630706787, -2.6038129329681396, -1.506974697113037, -2.48785138130188, 1.11376953125, -0.402587890625, 0.0517578125
257, 4261680392, -6.756021022796631, -0.726127564907074, 7.224201679229736, -2.6438331604003906, -1.3942915201187134, -2.394672393798828, 1.1123046875, -0.403076171875, 0.050537109375
258, 4261697059, -6.748392105102539, -0.7489213943481445, 7.191425323486328, -2.4686672687530518, -1.4544428586959839, -2.3026204109191895, 1.11279296875, -0.404541015625, 0.051513671875
259, 4261713726, -6.742539405822754, -0.7610744833946228, 7.189393997192383, -2.4488818645477295, -1.4799658060073853, -2.1575753688812256, 1.112060546875, -0.403076171875, 0.051025390625
260, 4261730393, -6.751017093658447, -0.7377001047134399, 7.194368839263916, -2.2743306159973145, -1.6369203329086304, -2.0694546699523926, 1.11474609375, -0.403076171875, 0.049560546875
261, 4261747060, -6.756175994873047, -0.7245546579360962, 7.195540904998779, -2.243659496307373, -1.5773580074310303, -2.1156728267669678, 1.1171875, -0.403076171875, 0.049072265625
262, 4261763727, -6.750906467437744, -0.7210206985473633, 7.234055519104004, -2.2782366275787354, -1.5247751474380493, -2.1710219383239746, 1.11328125, -0.40185546875, 0.050537109375
263, 4261780394, -6.75725793838501, -0.7274644374847412, 7.20274543762207, -2.4045333862304688, -1.4161903858184814, -2.2463107109069824, 1.1162109375, -0.403076171875, 0.0517578125
264, 4261797061, -6.7412428855896, -0.7393528819084167, 7.208561897277832, -2.3823015689849854, -1.4711167812347412, -2.268888473510742, 1.11474609375, -0.405029296875, 0.0517578125
265, 4261813728, -6.743844985961914, -0.731197714805603, 7.206646919250488, -2.3342902660369873, -1.310845136642456, -2.1165056228637695, 1.1142578125, -0.403076171875, 0.051025390625
266, 4261830395, -6.762800216674805, -0.7284790277481079, 7.192017555236816, -2.3369922637939453, -1.3588178157806396, -2.1672444343566895, 1.11376953125, -0.402587890625, 0.048583984375
267, 4261847062, -6.749220371246338, -0.7358759641647339, 7.1914472579956055, -2.4015233516693115, -1.4294703006744385, -2.1568195819854736, 1.1162109375, -0.404541015625, 0.050048828125
268, 4261863729, -6.760310173034668, -0.733555793762207, 7.193892002105713, -2.339400053024292, -1.5568424463272095, -2.166668176651001, 1.11474609375, -0.402587890625, 0.05224609375
269, 4261880396, -6.750072479248047, -0.7143880724906921, 7.218152046203613, -2.303798198699951, -1.7260268926620483, -2.0764598846435547, 1.115234375, -0.402587890625, 0.051025390625
270, 4261897063, -6.742412567138672, -0.7223182320594788, 7.192808151245117, -2.3562145233154297, -1.5923157930374146, -2.168665647506714, 1.11376953125, -0.4013671875, 0.050537109375
271, 4261913730, -6.7434587478637695, -0.732370913028717, 7.187458515167236, -2.418910264968872, -1.5207396745681763, -2.245894193649292, 1.1142578125, -0.40234375, 0.050048828125
272, 4261930397, -6.750376224517822, -0.7414437532424927, 7.1888909339904785, -2.333803415298462, -1.4938222169876099, -2.132474899291992, 1.11572265625, -0.40234375, 0.052734375
273, 4261947064, -6.74494743347168, -0.7234104871749878, 7.196859359741211, -2.357994556427002, -1.43808913230896, -2.12495756149292, 1.11328125, -0.405029296875, 0.050537109375
274, 4261963731, -6.764959335327148, -0.7315755486488342, 7.203515529632568, -2.3544859886169434, -1.4389728307724, -2.123638868331909, 1.1123046875, -0.406005859375, 0.051513671875
275, 4261980398, -6.75410270690918, -0.7359442710876465, 7.215570449829102, -2.2788515090942383, -1.3902572393417358, -2.1165947914123535, 1.11572265625, -0.405029296875, 0.05322265625
276, 4261997065, -6.755185127258301, -0.7266850471496582, 7.203444004058838, -2.3682525157928467, -1.3573704957962036, -2.1449735164642334, 1.11328125, -0.4013671875, 0.051513671875
277, 4262013732, -6.7536540031433105, -0.7240841388702393, 7.186481952667236, -2.2738568782806396, -1.5379016399383545, -2.134831190109253, 1.115234375, -0.403564453125, 0.050537109375
278, 4262030399, -6.764592170715332, -0.7048479318618774, 7.20147180557251, -2.423614501953125, -1.506090760231018, -2.2575674057006836, 1.11474609375, -0.403076171875, 0.049560546875
279, 4262047066, -6.7488532066345215, -0.7248386144638062, 7.203230381011963, -2.372709035873413, -1.5862200260162354, -2.2650206089019775, 1.11376953125, -0.402587890625, 0.051513671875
280, 4262063733, -6.740658760070801, -0.7358494997024536, 7.217244625091553, -2.32710599899292, -1.4787236452102661, -2.19563627243042, 1.1142578125, -0.405029296875, 0.050537109375
281, 4262080400, -6.748134613037109, -0.7265211343765259, 7.2076239585876465, -2.3381385803222656, -1.5554529428482056, -2.1902124881744385, 1.115234375, -0.405029296875, 0.05224609375
282, 4262097067, -6.752086162567139, -0.7239975333213806, 7.213310718536377, -2.3871421813964844, -1.4569528102874756, -2.2274086475372314, 1.11474609375, -0.403564453125, 0.0517578125
283, 4262113734, -6.742981910705566, -0.733265221118927, 7.18448543548584, -2.340808629989624, -1.6259325742721558, -2.16341495513916, 1.11572265625, -0.40234375, 0.050048828125
284, 4262130401, -6.756483554840088, -0.723840594291687, 7.212421417236328, -2.3231360912323, -1.6398403644561768, -2.1870813369750977, 1.1162109375, -0.404052734375, 0.049560546875
285, 4262147068, -6.764917850494385, -0.7256577014923096, 7.19984245300293, -2.2614474296569824, -1.7282040119171143, -2.08628249168396, 1.11328125, -0.40234375, 0.052001953125
286, 4262163735, -6.749874591827393, -0.7090855836868286, 7.2105865478515625, -2.210862398147583, -1.6587295532226562, -2.162595510482788, 1.11279296875, -0.403564453125, 0.049560546875
287, 4262180402, -6.760638236999512, -0.7202590107917786, 7.216670513153076, -2.4029064178466797, -1.5296416282653809, -2.184340715408325, 1.11279296875, -0.403076171875, 0.052001953125
288, 4262197069, -6.7617011070251465, -0.734426736831665, 7.2039947509765625, -2.3082163333892822, -1.651071310043335, -2.176567316055298, 1.11279296875, -0.405029296875, 0.0517578125
289, 4262213736, -6.750259876251221, -0.7174358367919922, 7.212007522583008, -2.298778533935547, -1.6862761974334717, -2.1754915714263916, 1.11376953125, -0.404052734375, 0.050048828125
290, 4262230403, -6.754284381866455, -0.7199900150299072, 7.213030815124512, -2.256146192550659, -1.713950753211975, -2.224552631378174, 1.11474609375, -0.403564453125, 0.051025390625
291, 4262247070, -6.766739368438721, -0.7190223336219788, 7.192502975463867, -2.297830581665039, -1.7782641649246216, -2.181241750717163, 1.115234375, -0.405029296875, 0.050048828125
292, 4262263737, -6.738598346710205, -0.7255459427833557, 7.19785213470459, -2.218456745147705, -1.6896568536758423, -2.26157546043396, 1.11328125, -0.403076171875, 0.050048828125
293, 4262280404, -6.755208969116211, -0.7248373031616211, 7.204292297363281, -2.2745485305786133, -1.7456974983215332, -2.3146965503692627, 1.11474609375, -0.405517578125, 0.05078125
294, 4262297071, -6.755041122436523, -0.7285653352737427, 7.202760219573975, -2.221965789794922, -1.6797065734863281, -2.210017681121826, 1.1162109375, -0.406005859375, 0.05224609375
295, 4262313738, -6.747708797454834, -0.7247114777565002, 7.2068986892700195, -2.2977919578552246, -1.6032397747039795, -2.1093339920043945, 1.11474609375, -0.403076171875, 0.049560546875
296, 4262330405, -6.7546186447143555, -0.7172033786773682, 7.182535648345947, -2.334341287612915, -1.570007085800171, -2.1466896533966064, 1.11376953125, -0.403564453125, 0.051025390625
297, 4262347072, -6.749058723449707, -0.7314751744270325, 7.190952777862549, -2.28452467918396, -1.5749375820159912, -2.10465931892395, 1.115234375, -0.403076171875, 0.05126953125
298, 4262363739, -6.772729873657227, -0.7229586839675903, 7.192227363586426, -2.322098970413208, -1.7021431922912598, -2.2346699237823486, 1.115234375, -0.406005859375, 0.05126953125
299, 4262380406, -6.745053768157959, -0.7066081166267395, 7.179746627807617, -2.3514630794525146, -1.7050244808197021, -2.1807804107666016, 1.11376953125, -0.403564453125, 0.049560546875
300, 4262397073, -6.748069763183594, -0.7085975408554077, 7.214920520782471, -2.3747711181640625, -1.7978579998016357, -2.187516689300537, 1.11474609375, -0.403076171875, 0.050537109375
301, 4262413740, -6.744353294372559, -0.7217481732368469, 7.223960876464844, -2.3797783851623535, -1.736297845840454, -2.2697079181671143, 1.1142578125, -0.404541015625, 0.049072265625
302, 4262430407, -6.74716854095459, -0.7253656983375549, 7.191610336303711, -2.3862709999084473, -1.5979505777359009, -2.2954611778259277, 1.11328125, -0.404052734375, 0.048095703125
303, 4262447074, -6.753298759460449, -0.7250449657440186, 7.204090118408203, -2.394890069961548, -1.5947235822677612, -2.2625746726989746, 1.11474609375, -0.404052734375, 0.0517578125
304, 4262463741, -6.743067741394043, -0.7221936583518982, 7.216931343078613, -2.367919683456421, -1.6131134033203125, -2.2285354137420654, 1.1142578125, -0.406005859375, 0.051025390625
305, 4262480408, -6.753052234649658, -0.7112411260604858, 7.211434364318848, -2.4012033939361572, -1.5031837224960327, -2.1774511337280273, 1.11328125, -0.404052734375, 0.052734375
306, 4262497075, -6.735210418701172, -0.720055341720581, 7.216551303863525, -2.429769277572632, -1.4846020936965942, -2.316311836242676, 1.1142578125, -0.405029296875, 0.050048828125
307, 4262513742, -6.742247581481934, -0.7236533164978027, 7.201186180114746, -2.421001672744751, -1.5086007118225098, -2.229930877685547, 1.11376953125, -0.405029296875, 0.049560546875
308, 4262530409, -6.758340358734131, -0.7171732783317566, 7.183321952819824, -2.4016647338867188, -1.4604747295379639, -2.2775583267211914, 1.11328125, -0.404541015625, 0.050537109375
309, 4262547076, -6.749876022338867, -0.7212675213813782, 7.195361137390137, -2.4159693717956543, -1.4905823469161987, -2.3126220703125, 1.115234375, -0.405029296875, 0.05126953125
310, 4262563743, -6.754276752471924, -0.7254142761230469, 7.181936740875244, -2.5773932933807373, -1.4671210050582886, -2.3409881591796875, 1.115234375, -0.404052734375, 0.0517578125
311, 4262580410, -6.752067565917969, -0.7346220016479492, 7.179898262023926, -2.3473780155181885, -1.5851186513900757, -2.3490941524505615, 1.11572265625, -0.403076171875, 0.05224609375
312, 4262597077, -6.755480766296387, -0.7262299060821533, 7.199611186981201, -2.37967586517334, -1.6349483728408813, -2.2616140842437744, 1.11376953125, -0.405517578125, 0.0517578125
313, 4262613744, -6.747766971588135, -0.7241435050964355, 7.2082014083862305, -2.2744202613830566, -1.7711181640625, -2.192075729370117, 1.1142578125, -0.404541015625, 0.05126953125
314, 4262630411, -6.751908779144287, -0.7221181392669678, 7.20184326171875, -2.345393419265747, -1.6921030282974243, -2.199298620223999, 1.11376953125, -0.404052734375, 0.049560546875
315, 4262647078, -6.745535373687744, -0.7051411867141724, 7.198281288146973, -2.277096748352051, -1.6555662155151367, -2.1616733074188232, 1.11474609375, -0.405517578125, 0.05126953125
316, 4262663745, -6.746906280517578, -0.7296402454376221, 7.201940536499023, -2.3379783630371094, -1.6055065393447876, -2.16767954826355, 1.11279296875, -0.403564453125, 0.050048828125
317, 4262680412, -6.7448835372924805, -0.6986703872680664, 7.19085693359375, -2.4466145038604736, -1.5412441492080688, -2.2796709537506104, 1.1142578125, -0.406005859375, 0.05126953125
318, 4262697079, -6.759546756744385, -0.7261089086532593, 7.199344158172607, -2.308485507965088, -1.552245020866394, -2.240816593170166, 1.11376953125, -0.405029296875, 0.050537109375
319, 4262713746, -6.745419025421143, -0.7170467376708984, 7.202571392059326, -2.3601462841033936, -1.5177829265594482, -2.3267600536346436, 1.11181640625, -0.404541015625, 0.050537109375
320, 4262730413, -6.753363609313965, -0.7175979614257812, 7.198006629943848, -2.3883588314056396, -1.5285658836364746, -2.1947779655456543, 1.11572265625, -0.405517578125, 0.049560546875
321, 4262747080, -6.750134468078613, -0.7058257460594177, 7.2094550132751465, -2.34261417388916, -1.4870731830596924, -2.2772634029388428, 1.1142578125, -0.404541015625, 0.050048828125
322, 4262763747, -6.761003017425537, -0.7178481221199036, 7.186512470245361, -2.2717185020446777, -1.5295521020889282, -2.2212231159210205, 1.11474609375, -0.405029296875, 0.051025390625
323, 4262780414, -6.750002384185791, -0.7218729257583618, 7.212527275085449, -2.2098124027252197, -1.5709164142608643, -2.26444411277771, 1.1142578125, -0.406005859375, 0.05224609375
324, 4262797081, -6.754292964935303, -0.719782829284668, 7.190493106842041, -2.3014931678771973, -1.5814944505691528, -2.2788004875183105, 1.11572265625, -0.406005859375, 0.05078125
325, 4262813748, -6.745104789733887, -0.7166345119476318, 7.191642761230469, -2.343113899230957, -1.3894634246826172, -2.3025565147399902, 1.1162109375, -0.403076171875, 0.049560546875
326, 4262830415, -6.7465128898620605, -0.7130304574966431, 7.207475185394287, -2.392981767654419, -1.3297345638275146, -2.249845266342163, 1.11328125, -0.405517578125, 0.048583984375
327, 4262847082, -6.749082088470459, -0.7348737120628357, 7.1931891441345215, -2.3203439712524414, -1.4796967506408691, -2.1473686695098877, 1.11669921875, -0.404541015625, 0.05029296875
328, 4262863749, -6.7502665519714355, -0.7132307887077332, 7.2106170654296875, -2.2231438159942627, -1.5063084363937378, -2.0671112537384033, 1.115234375, -0.404052734375, 0.050537109375
329, 4262880416, -6.7404961585998535, -0.7037617564201355, 7.223259925842285, -2.184417724609375, -1.7075988054275513, -2.0804429054260254, 1.11474609375, -0.405517578125, 0.049560546875
330, 4262897083, -6.75728702545166, -0.7044957280158997, 7.181290149688721, -2.32092022895813, -1.5865401029586792, -2.0485036373138428, 1.11376953125, -0.403564453125, 0.051513671875
331, 4262913750, -6.745346546173096, -0.7132386565208435, 7.209112167358398, -2.408900260925293, -1.5633351802825928, -2.2191226482391357, 1.1123046875, -0.407470703125, 0.052734375
332, 4262930417, -6.748490333557129, -0.7159561514854431, 7.213061809539795, -2.3622336387634277, -1.4860103130340576, -2.1785261631011963, 1.1123046875, -0.403564453125, 0.050048828125
333, 4262947084, -6.748992919921875, -0.7346448302268982, 7.203460216522217, -2.4225902557373047, -1.490236520767212, -2.2437751293182373, 1.11572265625, -0.404541015625, 0.050537109375
334, 4262963751, -6.752377986907959, -0.7103897929191589, 7.211036205291748, -2.3392457962036133, -1.5171297788619995, -2.1282360553741455, 1.11669921875, -0.404541015625, 0.048583984375
335, 4262980418, -6.733752727508545, -0.7211933135986328, 7.198447227478027, -2.34555983543396, -1.4278439283370972, -2.066624641418457, 1.1142578125, -0.404541015625, 0.052734375
336, 4262997085, -6.741273880004883, -0.7268438339233398, 7.215100288391113, -2.3111233711242676, -1.5368003845214844, -2.1191303730010986, 1.11376953125, -0.404052734375, 0.05224609375
337, 4263013752, -6.742072582244873, -0.706106960773468, 7.2005228996276855, -2.3747451305389404, -1.4136289358139038, -2.1725971698760986, 1.1142578125, -0.405029296875, 0.050537109375
338, 4263030419, -6.737395286560059, -0.7119899392127991, 7.185367107391357, -2.487236738204956, -1.4743311405181885, -2.299265146255493, 1.11376953125, -0.403076171875, 0.050537109375
339, 4263047086, -6.760405540466309, -0.7245352268218994, 7.199468612670898, -2.489746332168579, -1.4404325485229492, -2.3013651371002197, 1.11474609375, -0.405517578125, 0.049072265625
340, 4263063753, -6.749451637268066, -0.7279795408248901, 7.191985130310059, -2.4758386611938477, -1.3774254322052002, -2.2382681369781494, 1.11474609375, -0.404052734375, 0.051025390625
341, 4263080420, -6.7556376457214355, -0.7040868401527405, 7.202939510345459, -2.4511611461639404, -1.4035120010375977, -2.2411112785339355, 1.11376953125, -0.405517578125, 0.051025390625
342, 4263097087, -6.741000175476074, -0.7106339931488037, 7.201720237731934, -2.4686474800109863, -1.3678538799285889, -2.348479747772217, 1.1142578125, -0.405029296875, 0.049560546875
343, 4263113754, -6.757198810577393, -0.7228822708129883, 7.189035415649414, -2.4846880435943604, -1.4278310537338257, -2.279235601425171, 1.1142578125, -0.404052734375, 0.051025390625
344, 4263130421, -6.748472213745117, -0.7274377346038818, 7.196212291717529, -2.4311063289642334, -1.4374616146087646, -2.233299493789673, 1.1162109375, -0.404541015625, 0.049072265625
345, 4263147088, -6.761219501495361, -0.7137070298194885, 7.207590103149414, -2.492577075958252, -1.3655027151107788, -2.294706106185913, 1.11669921875, -0.403564453125, 0.049560546875
346, 4263163755, -6.753093242645264, -0.7160664796829224, 7.209380626678467, -2.5246312618255615, -1.3293631076812744, -2.330986261367798, 1.11376953125, -0.406494140625, 0.05126953125
347, 4263180422, -6.7609429359436035, -0.7215749621391296, 7.21331262588501, -2.5748062133789062, -1.2458655834197998, -2.3538196086883545, 1.1142578125, -0.405517578125, 0.05224609375
348, 4263197089, -6.754444599151611, -0.7127818465232849, 7.188416004180908, -2.507291078567505, -1.4130911827087402, -2.29181170463562, 1.11474609375, -0.404541015625, 0.05224609375
349, 4263213756, -6.761526107788086, -0.7245239019393921, 7.206791400909424, -2.4308371543884277, -1.42345130443573, -2.2668135166168213, 1.11376953125, -0.403564453125, 0.05224609375
350, 4263230423, -6.7511186599731445, -0.7135931253433228, 7.204911708831787, -2.4569623470306396, -1.385788083076477, -2.3186028003692627, 1.115234375, -0.404541015625, 0.048583984375
351, 4263247090, -6.757404327392578, -0.7379178404808044, 7.184447288513184, -2.455143928527832, -1.3117800951004028, -2.3427042961120605, 1.115234375, -0.404052734375, 0.049560546875
352, 4263263757, -6.75903844833374, -0.7215263843536377, 7.212319850921631, -2.5811328887939453, -1.236248254776001, -2.2834105491638184, 1.1162109375, -0.404541015625, 0.05078125
353, 4263280424, -6.756594181060791, -0.7064088582992554, 7.196296215057373, -2.5444936752319336, -1.3176836967468262, -2.3560354709625244, 1.11572265625, -0.405029296875, 0.0517578125
354, 4263297091, -6.764155864715576, -0.7259029150009155, 7.204173564910889, -2.505011558532715, -1.371854543685913, -2.4150850772857666, 1.1142578125, -0.405517578125, 0.051025390625
355, 4263313758, -6.759461402893066, -0.714011549949646, 7.187593936920166, -2.449099063873291, -1.5342390537261963, -2.3121352195739746, 1.11328125, -0.402587890625, 0.0517578125
356, 4263330425, -6.75938606262207, -0.713206946849823, 7.193142890930176, -2.3430750370025635, -1.5314215421676636, -2.179922342300415, 1.1171875, -0.404541015625, 0.0517578125
357, 4263347092, -6.760189056396484, -0.7115796208381653, 7.191798686981201, -2.327195644378662, -1.5612989664077759, -2.200361490249634, 1.11474609375, -0.403564453125, 0.050537109375
358, 4263363759, -6.752100467681885, -0.7250970602035522, 7.187707901000977, -2.3988726139068604, -1.480849266052246, -2.2142434120178223, 1.1162109375, -0.403564453125, 0.047119140625
359, 4263380426, -6.759011268615723, -0.7168401479721069, 7.187668323516846, -2.4333600997924805, -1.467172384262085, -2.235886335372925, 1.11572265625, -0.406005859375, 0.050537109375
360, 4263397093, -6.748729705810547, -0.7171577215194702, 7.185420036315918, -2.285536050796509, -1.532881498336792, -2.2065083980560303, 1.1142578125, -0.405029296875, 0.051025390625
361, 4263413760, -6.757789134979248, -0.7164328694343567, 7.1826348304748535, -2.2586557865142822, -1.6748143434524536, -2.1664884090423584, 1.11474609375, -0.402587890625, 0.049072265625
362, 4263430427, -6.749594211578369, -0.699605405330658, 7.198780059814453, -2.345252275466919, -1.546942949295044, -2.16656494140625, 1.11376953125, -0.406494140625, 0.051025390625
363, 4263447094, -6.758389472961426, -0.7060701251029968, 7.199679374694824, -2.4146368503570557, -1.4087495803833008, -2.204421043395996, 1.11474609375, -0.405029296875, 0.05126953125
364, 4263463761, -6.766517162322998, -0.7115400433540344, 7.186023712158203, -2.4192347526550293, -1.4158315658569336, -2.307140588760376, 1.11376953125, -0.404052734375, 0.051025390625
365, 4263480428, -6.760626316070557, -0.7257609963417053, 7.188349723815918, -2.4472806453704834, -1.6248953342437744, -2.1967756748199463, 1.11572265625, -0.405517578125, 0.05078125
366, 4263497095, -6.770443916320801, -0.7118222117424011, 7.1852641105651855, -2.3855667114257812, -1.6667207479476929, -2.2615115642547607, 1.1162109375, -0.405029296875, 0.052734375
367, 4263513762, -6.772703170776367, -0.718580961227417, 7.182312488555908, -2.3791637420654297, -1.757825255393982, -2.295217990875244, 1.11279296875, -0.403076171875, 0.052001953125
368, 4263530429, -6.757575511932373, -0.7107081413269043, 7.171563625335693, -2.41475248336792, -1.7293567657470703, -2.3664984703063965, 1.11572265625, -0.40234375, 0.051025390625
369, 4263547096, -6.7598466873168945, -0.7110900282859802, 7.196910381317139, -2.498032331466675, -1.7898924350738525, -2.4453086853027344, 1.11669921875, -0.403564453125, 0.050537109375
370, 4263563763, -6.754046440124512, -0.7124804258346558, 7.203990936279297, -2.543123960494995, -1.7415742874145508, -2.447626829147339, 1.1142578125, -0.405517578125, 0.050048828125
371, 4263580430, -6.756923198699951, -0.7142757773399353, 7.196926593780518, -2.46513295173645, -1.8557043075561523, -2.4950613975524902, 1.11474609375, -0.404052734375, 0.05126953125
372, 4263597097, -6.755136489868164, -0.724602222442627, 7.185969352722168, -2.4675917625427246, -1.927445650100708, -2.4528515338897705, 1.11572265625, -0.404541015625, 0.050048828125
373, 4263613764, -6.733689785003662, -0.7340326905250549, 7.174737453460693, -2.4117305278778076, -2.016219139099121, -2.4133315086364746, 1.11572265625, -0.404052734375, 0.05224609375
374, 4263630431, -6.740520000457764, -0.7221909165382385, 7.18898868560791, -2.42836594581604, -1.9577580690383911, -2.292093515396118, 1.11474609375, -0.403564453125, 0.050048828125
375, 4263647098, -6.739259719848633, -0.7140209674835205, 7.198575496673584, -2.4218599796295166, -1.7435462474822998, -2.2850241661071777, 1.11572265625, -0.403076171875, 0.049560546875
376, 4263663765, -6.746995449066162, -0.716203510761261, 7.207326412200928, -2.5152056217193604, -1.6194143295288086, -2.23814058303833, 1.115234375, -0.403564453125, 0.050537109375
377, 4263680432, -6.752887725830078, -0.7292661666870117, 7.182701587677002, -2.62054443359375, -1.4679471254348755, -2.298093318939209, 1.1142578125, -0.403564453125, 0.049560546875
378, 4263697099, -6.750422477722168, -0.7248016595840454, 7.185229778289795, -2.494079351425171, -1.5123519897460938, -2.2305145263671875, 1.11572265625, -0.403564453125, 0.050537109375
379, 4263713766, -6.760470390319824, -0.7238799333572388, 7.194210052490234, -2.498429298400879, -1.5331761837005615, -2.243788003921509, 1.1171875, -0.404052734375, 0.0517578125
380, 4263730433, -6.748885631561279, -0.7284224033355713, 7.1758928298950195, -2.396977424621582, -1.4974466562271118, -2.2555952072143555, 1.11474609375, -0.403564453125, 0.049560546875
381, 4263747100, -6.753704071044922, -0.7382203936576843, 7.186369895935059, -2.3331634998321533, -1.5703787803649902, -2.1313226222991943, 1.11328125, -0.404052734375, 0.0439453125
382, 4263763767, -6.756673812866211, -0.7139241099357605, 7.197819232940674, -2.4136767387390137, -1.5439848899841309, -2.238217353820801, 1.1142578125, -0.405029296875, 0.05224609375
383, 4263780434, -6.755442142486572, -0.7138376832008362, 7.211092948913574, -2.4359471797943115, -1.4586433172225952, -2.2724995613098145, 1.115234375, -0.405517578125, 0.0517578125
384, 4263797101, -6.752806186676025, -0.7280933856964111, 7.179841041564941, -2.4097583293914795, -1.467287540435791, -2.3061931133270264, 1.1162109375, -0.403076171875, 0.05078125
385, 4263813768, -6.750140190124512, -0.7162839770317078, 7.200082302093506, -2.42615008354187, -1.5387853384017944, -2.2262685298919678, 1.11474609375, -0.403076171875, 0.0517578125
386, 4263830435, -6.751777648925781, -0.7248769998550415, 7.190967559814453, -2.4125242233276367, -1.4799658060073853, -2.2512664794921875, 1.11572265625, -0.404541015625, 0.05078125
387, 4263847102, -6.760403156280518, -0.7248234152793884, 7.201083183288574, -2.39792537689209, -1.4402533769607544, -2.2020263671875, 1.1162109375, -0.405029296875, 0.050048828125
388, 4263863769, -6.751072406768799, -0.7230629324913025, 7.198808193206787, -2.447075605392456, -1.4337860345840454, -2.1383144855499268, 1.1142578125, -0.404541015625, 0.050537109375
389, 4263880436, -6.744783401489258, -0.7149211168289185, 7.211228847503662, -2.41143536567688, -1.437781572341919, -2.188079833984375, 1.11572265625, -0.403564453125, 0.052734375
390, 4263897103, -6.745976448059082, -0.7018921971321106, 7.202815055847168, -2.4983909130096436, -1.367871880531311, -2.2455294132232666, 1.1142578125, -0.402587890625, 0.05224609375
391, 4263913770, -6.7553300857543945, -0.7284783720970154, 7.198477268218994, -2.432502031326294, -1.3302596807479858, -2.211900234222412, 1.1162109375, -0.404541015625, 0.049560546875
392, 4263930437, -6.750117778778076, -0.7081760168075562, 7.187496662139893, -2.3978610038757324, -1.372328519821167, -2.158113479614258, 1.1142578125, -0.403564453125, 0.05224609375
393, 4263947104, -6.746357440948486, -0.728644847869873, 7.186297416687012, -2.418607234954834, -1.4008609056472778, -2.1857621669769287, 1.115234375, -0.404052734375, 0.05126953125
394, 4263963771, -6.748836517333984, -0.7280264496803284, 7.199698448181152, -2.3314599990844727, -1.3493026494979858, -2.084425449371338, 1.11572265625, -0.404052734375, 0.049072265625
395, 4263980438, -6.758124351501465, -0.7050447463989258, 7.189720153808594, -2.4363183975219727, -1.4170482158660889, -2.180678129196167, 1.11376953125, -0.405029296875, 0.05322265625
396, 4263997105, -6.751381874084473, -0.7162248492240906, 7.178460597991943, -2.4482667446136475, -1.4312762022018433, -2.1536693572998047, 1.117431640625, -0.404052734375, 0.05078125
397, 4264013772, -6.765110492706299, -0.7066943049430847, 7.180004596710205, -2.363450288772583, -1.4658021926879883, -2.190462112426758, 1.1142578125, -0.403076171875, 0.0517578125
398, 4264030439, -6.762579441070557, -0.7155188322067261, 7.1729278564453125, -2.3169243335723877, -1.4683247804641724, -2.112189531326294, 1.1142578125, -0.405029296875, 0.050048828125
399, 4264047106, -6.76652193069458, -0.7126103043556213, 7.188985824584961, -2.400076389312744, -1.4309430122375488, -2.06268048286438, 1.11376953125, -0.403564453125, 0.051025390625
400, 4264063773, -6.750153541564941, -0.7089520692825317, 7.205644130706787, -2.4431698322296143, -1.2992169857025146, -2.2355406284332275, 1.11572265625, -0.405029296875, 0.050537109375
401, 4264080440, -6.762186527252197, -0.7056103348731995, 7.168765544891357, -2.428532361984253, -1.3149688243865967, -2.2597830295562744, 1.115234375, -0.404052734375, 0.05224609375
402, 4264097107, -6.773601531982422, -0.7341750264167786, 7.179780960083008, -2.4139716625213623, -1.4292272329330444, -2.328629970550537, 1.1142578125, -0.405029296875, 0.05224609375
403, 4264113774, -6.757676601409912, -0.7270194888114929, 7.181100368499756, -2.4442713260650635, -1.446707844734192, -2.193113327026367, 1.11572265625, -0.402587890625, 0.0537109375
404, 4264130441, -6.768081188201904, -0.7181894779205322, 7.198749542236328, -2.428365707397461, -1.4464772939682007, -2.3002638816833496, 1.11572265625, -0.403076171875, 0.050048828125
405, 4264147108, -6.769731044769287, -0.7212774753570557, 7.183875560760498, -2.529881715774536, -1.4938863515853882, -2.294398546218872, 1.1142578125, -0.404541015625, 0.0537109375
406, 4264163775, -6.745789051055908, -0.7039346098899841, 7.160148620605469, -2.4445018768310547, -1.3796154260635376, -2.345611095428467, 1.11328125, -0.404052734375, 0.050048828125
407, 4264180442, -6.7515740394592285, -0.7329069375991821, 7.1936869621276855, -2.593273162841797, -1.28249192237854, -2.31563138961792, 1.11669921875, -0.404052734375, 0.050048828125
408, 4264197109, -6.768637180328369, -0.7194991111755371, 7.184140205383301, -2.4420173168182373, -1.3348827362060547, -2.301826000213623, 1.11572265625, -0.403076171875, 0.05224609375
409, 4264213776, -6.758793354034424, -0.7094605565071106, 7.19303035736084, -2.4256505966186523, -1.4746894836425781, -2.3683676719665527, 1.11572265625, -0.405517578125, 0.049560546875
410, 4264230443, -6.770971775054932, -0.7138423323631287, 7.1918559074401855, -2.3763720989227295, -1.5963244438171387, -2.3057703971862793, 1.115234375, -0.403076171875, 0.050537109375
411, 4264247110, -6.767770767211914, -0.7178407311439514, 7.191988945007324, -2.3689184188842773, -1.6380985975265503, -2.399282455444336, 1.115234375, -0.403076171875, 0.05126953125
412, 4264263777, -6.767159461975098, -0.72783362865448, 7.192941665649414, -2.370826244354248, -1.673866629600525, -2.45975399017334, 1.115234375, -0.403076171875, 0.05322265625
413, 4264280444, -6.743010520935059, -0.7280112504959106, 7.194291591644287, -2.466784954071045, -1.571595549583435, -2.51608943939209, 1.1162109375, -0.405517578125, 0.05126953125
414, 4264297111, -6.761005878448486, -0.7339178919792175, 7.1832475662231445, -2.4264142513275146, -1.5684914588928223, -2.3955912590026855, 1.115234375, -0.404052734375, 0.05126953125
415, 4264313778, -6.761699199676514, -0.7304751873016357, 7.191879749298096, -2.241354465484619, -1.6545932292938232, -2.332318067550659, 1.11376953125, -0.404541015625, 0.050537109375
416, 4264330445, -6.755792617797852, -0.7101748585700989, 7.1975884437561035, -2.359915256500244, -1.3676539659500122, -2.2868425846099854, 1.11474609375, -0.403076171875, 0.051025390625
417, 4264347112, -6.7578911781311035, -0.7396748065948486, 7.176875591278076, -2.3360705375671387, -1.5140693187713623, -2.3246471881866455, 1.11572265625, -0.403564453125, 0.050537109375
418, 4264363779, -6.767117500305176, -0.7199870944023132, 7.181737422943115, -2.186184883117676, -1.7407928705215454, -2.231391429901123, 1.11474609375, -0.404541015625, 0.05224609375
419, 4264380446, -6.767144203186035, -0.7206991314888, 7.1808319091796875, -2.3163483142852783, -1.708213210105896, -2.1899240016937256, 1.115234375, -0.406005859375, 0.05322265625
420, 4264397113, -6.760793209075928, -0.7139018774032593, 7.195011138916016, -2.4178130626678467, -1.6301201581954956, -2.3068716526031494, 1.11376953125, -0.404052734375, 0.0537109375
421, 4264413780, -6.7610626220703125, -0.7198253870010376, 7.1873087882995605, -2.439110517501831, -1.5598134994506836, -2.319345235824585, 1.11572265625, -0.405029296875, 0.05224609375
422, 4264430447, -6.75712251663208, -0.7256981730461121, 7.199828147888184, -2.3680477142333984, -1.6711772680282593, -2.300327777862549, 1.1162109375, -0.403076171875, 0.052734375
423, 4264447114, -6.765518665313721, -0.7298842072486877, 7.20432186126709, -2.412165641784668, -1.6830872297286987, -2.3251209259033203, 1.1142578125, -0.404052734375, 0.051025390625
424, 4264463781, -6.763803482055664, -0.7171225547790527, 7.208866119384766, -2.41064190864563, -1.5952998399734497, -2.326427459716797, 1.1162109375, -0.405517578125, 0.05029296875
425, 4264480448, -6.770927429199219, -0.725997805595398, 7.2100348472595215, -2.435678243637085, -1.6752115488052368, -2.3562021255493164, 1.117431640625, -0.404052734375, 0.0517578125
426, 4264497115, -6.75562047958374, -0.7252099514007568, 7.190064430236816, -2.4372024536132812, -1.6710751056671143, -2.248270273208618, 1.1142578125, -0.404052734375, 0.0517578125
427, 4264513782, -6.752795219421387, -0.7152270674705505, 7.189361095428467, -2.3612091541290283, -1.547660231590271, -2.2783522605895996, 1.115234375, -0.404541015625, 0.05126953125
428, 4264530449, -6.778949737548828, -0.7233050465583801, 7.1776509284973145, -2.3600821495056152, -1.5813666582107544, -2.2213382720947266, 1.1162109375, -0.404541015625, 0.0517578125
429, 4264547116, -6.7624406814575195, -0.7286480069160461, 7.183451175689697, -2.37475848197937, -1.5826728343963623, -2.327169895172119, 1.1171875, -0.40185546875, 0.050537109375
430, 4264563783, -6.755507469177246, -0.7367132306098938, 7.19321870803833, -2.3561763763427734, -1.6021640300750732, -2.2541096210479736, 1.11669921875, -0.403076171875, 0.0517578125
431, 4264580450, -6.777650356292725, -0.7102925181388855, 7.1940765380859375, -2.3974127769470215, -1.529065489768982, -2.312711715698242, 1.11376953125, -0.404052734375, 0.050048828125
432, 4264597117, -6.751576900482178, -0.7355712652206421, 7.176292896270752, -2.382378339767456, -1.661137342453003, -2.2957303524017334, 1.1142578125, -0.403076171875, 0.05224609375
433, 4264613784, -6.763657569885254, -0.7282819747924805, 7.180213928222656, -2.3004817962646484, -1.7802236080169678, -2.2445690631866455, 1.115234375, -0.404541015625, 0.05126953125
434, 4264630451, -6.775421142578125, -0.7288756370544434, 7.178952693939209, -2.4016387462615967, -1.6967262029647827, -2.226806640625, 1.11669921875, -0.405029296875, 0.05322265625
435, 4264647118, -6.7599778175354, -0.730927586555481, 7.177708625793457, -2.4030988216400146, -1.6488431692123413, -2.306410551071167, 1.115234375, -0.404052734375, 0.05126953125
436, 4264663785, -6.74078369140625, -0.7166781425476074, 7.214504718780518, -2.4640188217163086, -1.5327537059783936, -2.353858470916748, 1.112548828125, -0.40234375, 0.051513671875
437, 4264680452, -6.754032135009766, -0.7238803505897522, 7.1619062423706055, -2.486083745956421, -1.5580461025238037, -2.315861701965332, 1.11572265625, -0.403564453125, 0.05322265625
438, 4264697119, -6.7619099617004395, -0.7279337644577026, 7.203210830688477, -2.4469351768493652, -1.7066127061843872, -2.309804677963257, 1.1142578125, -0.405517578125, 0.05322265625
439, 4264713786, -6.766304969787598, -0.7146465182304382, 7.192112922668457, -2.363732099533081, -1.7837965488433838, -2.290005922317505, 1.11572265625, -0.403564453125, 0.05322265625
440, 4264730453, -6.76804780960083, -0.725647509098053, 7.200850009918213, -2.4326300621032715, -1.7365667819976807, -2.305872917175293, 1.11328125, -0.403076171875, 0.051513671875
441, 4264747120, -6.754814624786377, -0.7090279459953308, 7.175057888031006, -2.4246907234191895, -1.7546623945236206, -2.393007755279541, 1.11669921875, -0.404541015625, 0.05126953125
442, 4264763787, -6.7565388679504395, -0.7257854342460632, 7.19016695022583, -2.4827160835266113, -1.7824904918670654, -2.431938886642456, 1.11474609375, -0.405029296875, 0.05224609375
443, 4264780454, -6.75588846206665, -0.7231215238571167, 7.174365520477295, -2.4463844299316406, -1.7253483533859253, -2.3676764965057373, 1.11474609375, -0.404052734375, 0.05322265625
444, 4264797121, -6.746718883514404, -0.7283193469047546, 7.187431335449219, -2.365384101867676, -1.7617950439453125, -2.367074728012085, 1.11376953125, -0.404052734375, 0.05224609375
445, 4264813788, -6.751158237457275, -0.7218217253684998, 7.193926811218262, -2.3760390281677246, -1.6720612049102783, -2.30680775642395, 1.1162109375, -0.404052734375, 0.05078125
446, 4264830455, -6.76253604888916, -0.7313183546066284, 7.194338321685791, -2.3971567153930664, -1.6653505563735962, -2.290428638458252, 1.11572265625, -0.403564453125, 0.050537109375
447, 4264847122, -6.755101203918457, -0.726309061050415, 7.198374271392822, -2.424651861190796, -1.6717026233673096, -2.233504295349121, 1.11572265625, -0.405517578125, 0.048095703125
448, 4264863789, -6.7577290534973145, -0.7250881791114807, 7.199707508087158, -2.4192605018615723, -1.6249465942382812, -2.2355148792266846, 1.11474609375, -0.40185546875, 0.05224609375
449, 4264880456, -6.743910789489746, -0.7183364629745483, 7.193248748779297, -2.4454362392425537, -1.5500420331954956, -2.2201340198516846, 1.115234375, -0.403076171875, 0.051025390625
450, 4264897123, -6.75811243057251, -0.7267109155654907, 7.191033840179443, -2.4479660987854004, -1.4938477277755737, -2.320934534072876, 1.11376953125, -0.404052734375, 0.050048828125
451, 4264913790, -6.761801242828369, -0.7152628302574158, 7.1967878341674805, -2.47005033493042, -1.464700698852539, -2.272486686706543, 1.115234375, -0.403076171875, 0.050537109375
452, 4264930457, -6.751889228820801, -0.7429710030555725, 7.204660892486572, -2.4773752689361572, -1.486484169960022, -2.260167121887207, 1.115234375, -0.404052734375, 0.05126953125
453, 4264947124, -6.76399564743042, -0.7276937961578369, 7.201445579528809, -2.500824213027954, -1.4684914350509644, -2.2506392002105713, 1.1142578125, -0.404541015625, 0.050048828125
454, 4264963791, -6.739749908447266, -0.7268776297569275, 7.179896831512451, -2.5563011169433594, -1.5054504871368408, -2.3162972927093506, 1.11328125, -0.403564453125, 0.051025390625
455, 4264980458, -6.744980812072754, -0.7271761894226074, 7.179697513580322, -2.426008939743042, -1.588294506072998, -2.162646770477295, 1.11572265625, -0.404052734375, 0.0517578125
456, 4264997125, -6.753118991851807, -0.7250927090644836, 7.22420072555542, -2.491885185241699, -1.5865916013717651, -2.2893402576446533, 1.11572265625, -0.404541015625, 0.05126953125
457, 4265013792, -6.759179592132568, -0.7307228446006775, 7.185446739196777, -2.4484591484069824, -1.4863947629928589, -2.1840720176696777, 1.11669921875, -0.405517578125, 0.05419921875
458, 4265030459, -6.753810882568359, -0.7236645221710205, 7.188939094543457, -2.40151047706604, -1.5761798620224, -2.2187511920928955, 1.1162109375, -0.404541015625, 0.0517578125
459, 4265047126, -6.756231307983398, -0.7417498230934143, 7.190942764282227, -2.2956533432006836, -1.7066380977630615, -2.0399234294891357, 1.11279296875, -0.402587890625, 0.051513671875
460, 4265063793, -6.750601768493652, -0.7269580960273743, 7.213686466217041, -2.335570812225342, -1.752600073814392, -2.147714376449585, 1.118896484375, -0.404052734375, 0.049072265625
461, 4265080460, -6.753860950469971, -0.7247293591499329, 7.186425685882568, -2.290966510772705, -1.717113971710205, -2.1177735328674316, 1.115234375, -0.404052734375, 0.0517578125
462, 4265097127, -6.743157386779785, -0.7354010343551636, 7.187628746032715, -2.229341983795166, -1.767532229423523, -2.061284303665161, 1.115234375, -0.40234375, 0.050537109375
463, 4265113794, -6.754103660583496, -0.7231631278991699, 7.194827556610107, -2.259296417236328, -1.8361998796463013, -2.0923399925231934, 1.115234375, -0.404052734375, 0.05126953125
464, 4265130461, -6.747381687164307, -0.7371616959571838, 7.196821689605713, -2.2451834678649902, -1.812930703163147, -1.999724268913269, 1.115234375, -0.404052734375, 0.05126953125
465, 4265147128, -6.750131607055664, -0.7210437059402466, 7.189533710479736, -2.2315831184387207, -1.7368738651275635, -2.010993719100952, 1.11376953125, -0.403564453125, 0.048583984375
466, 4265163795, -6.74715518951416, -0.7192153334617615, 7.206748962402344, -2.3046305179595947, -1.593173861503601, -2.0708250999450684, 1.116943359375, -0.405029296875, 0.05126953125
467, 4265180462, -6.761458396911621, -0.7150114178657532, 7.203269958496094, -2.3892805576324463, -1.5863226652145386, -2.095144510269165, 1.11376953125, -0.404541015625, 0.05322265625
468, 4265197129, -6.747278690338135, -0.7228139042854309, 7.201048374176025, -2.286522388458252, -1.5655633211135864, -2.024376630783081, 1.11474609375, -0.405029296875, 0.05126953125
469, 4265213796, -6.756860733032227, -0.7394154667854309, 7.174928665161133, -2.2715518474578857, -1.634909749031067, -2.057391405105591, 1.115234375, -0.405517578125, 0.05224609375
470, 4265230463, -6.763508319854736, -0.7007994055747986, 7.205595016479492, -2.239881753921509, -1.7829513549804688, -2.1260335445404053, 1.1162109375, -0.4013671875, 0.051025390625
471, 4265247130, -6.7555975914001465, -0.7106149792671204, 7.182567119598389, -2.235156297683716, -1.6461155414581299, -2.15474534034729, 1.11376953125, -0.40234375, 0.052734375
472, 4265263797, -6.756595611572266, -0.7328000068664551, 7.190518856048584, -2.2505111694335938, -1.7065484523773193, -2.1568195819854736, 1.11474609375, -0.403564453125, 0.05126953125
473, 4265280464, -6.758556842803955, -0.7084274888038635, 7.184383869171143, -2.3062825202941895, -1.5851444005966187, -2.1688833236694336, 1.11376953125, -0.404541015625, 0.049560546875
474, 4265297131, -6.752790451049805, -0.719089925289154, 7.186447620391846, -2.270962953567505, -1.722467064857483, -2.166642427444458, 1.1142578125, -0.405029296875, 0.05224609375
475, 4265313798, -6.76627779006958, -0.7080961465835571, 7.182373046875, -2.2023849487304688, -1.6276999711990356, -2.2123353481292725, 1.1162109375, -0.404052734375, 0.050537109375
476, 4265330465, -6.7639617919921875, -0.7145911455154419, 7.198939323425293, -2.184058904647827, -1.6993129253387451, -2.13598370552063, 1.11328125, -0.403076171875, 0.051513671875
477, 4265347132, -6.758883476257324, -0.7139084339141846, 7.177884101867676, -2.2686831951141357, -1.6138689517974854, -2.2098636627197266, 1.1142578125, -0.403076171875, 0.0517578125
478, 4265363799, -6.746096134185791, -0.7135475873947144, 7.188990116119385, -2.310342311859131, -1.640352487564087, -2.123356819152832, 1.1142578125, -0.405029296875, 0.05126953125
479, 4265380466, -6.745851516723633, -0.723914623260498, 7.180920600891113, -2.335570812225342, -1.5544730424880981, -2.1296446323394775, 1.11376953125, -0.405517578125, 0.051025390625
480, 4265397133, -6.749835014343262, -0.7231634855270386, 7.20573616027832, -2.3685853481292725, -1.537850260734558, -2.1589837074279785, 1.11572265625, -0.406494140625, 0.05078125
481, 4265413800, -6.754246711730957, -0.7083288431167603, 7.209245681762695, -2.4190938472747803, -1.4537895917892456, -2.1516075134277344, 1.115234375, -0.406005859375, 0.05078125
482, 4265430467, -6.759894847869873, -0.7061042189598083, 7.195078372955322, -2.429736375808716, -1.5126221179962158, -2.1463444232940674, 1.11376953125, -0.404052734375, 0.051025390625
483, 4265447134, -6.749996185302734, -0.7151597142219543, 7.200197219848633, -2.3956198692321777, -1.4876880645751953, -2.035454273223877, 1.11572265625, -0.403564453125, 0.050048828125
484, 4265463801, -6.75684118270874, -0.7266636490821838, 7.1743550300598145, -2.296729326248169, -1.5335732698440552, -2.0587103366851807, 1.11376953125, -0.406005859375, 0.050537109375
485, 4265480468, -6.748976707458496, -0.7127482891082764, 7.181832790374756, -2.336787223815918, -1.5260814428329468, -2.1098973751068115, 1.1142578125, -0.404541015625, 0.050048828125
486, 4265497135, -6.758777618408203, -0.7054052948951721, 7.190927028656006, -2.3733863830566406, -1.586380958557129, -2.060469388961792, 1.115234375, -0.404541015625, 0.05078125
487, 4265513802, -6.7500529289245605, -0.712234377861023, 7.200094699859619, -2.4749808311462402, -1.5139156579971313, -2.1531190872192383, 1.115234375, -0.404541015625, 0.050048828125
488, 4265530469, -6.764711380004883, -0.7187188267707825, 7.199848175048828, -2.323084831237793, -1.6882611513137817, -2.2074944972991943, 1.1142578125, -0.403564453125, 0.050048828125
489, 4265547136, -6.743984222412109, -0.7135024070739746, 7.191901683807373, -2.3368258476257324, -1.6997101306915283, -2.2359120845794678, 1.115234375, -0.405517578125, 0.049560546875
490, 4265563803, -6.759099006652832, -0.7186989188194275, 7.206239223480225, -2.333137273788452, -1.5639113187789917, -2.2391903400421143, 1.1142578125, -0.406005859375, 0.049560546875
491, 4265580470, -6.756424427032471, -0.7154079079627991, 7.187775611877441, -2.3295390605926514, -1.555382490158081, -2.2653024196624756, 1.1162109375, -0.405029296875, 0.05078125
492, 4265597137, -6.759796619415283, -0.7039610743522644, 7.206674098968506, -2.3106369972229004, -1.781901240348816, -2.3228414058685303, 1.1142578125, -0.406494140625, 0.0517578125
493, 4265613804, -6.754929065704346, -0.7006974816322327, 7.210954666137695, -2.3595187664031982, -1.563706636428833, -2.2867534160614014, 1.11474609375, -0.404052734375, 0.050048828125
494, 4265630471, -6.760980606079102, -0.7137895226478577, 7.203497886657715, -2.3707244396209717, -1.5824167728424072, -2.391803503036499, 1.1162109375, -0.403564453125, 0.050537109375
495, 4265647138, -6.751488208770752, -0.7209616899490356, 7.178718090057373, -2.385810136795044, -1.514863133430481, -2.3590447902679443, 1.11572265625, -0.404052734375, 0.050537109375
496, 4265663805, -6.747506141662598, -0.7121065855026245, 7.195582389831543, -2.3710575103759766, -1.4829626083374023, -2.267595052719116, 1.1171875, -0.403076171875, 0.05078125
497, 4265680472, -6.7639617919921875, -0.7220871448516846, 7.181235313415527, -2.3722994327545166, -1.6740204095840454, -2.3281173706054688, 1.11328125, -0.404052734375, 0.052734375
498, 4265697139, -6.764851093292236, -0.7015203833580017, 7.1975884437561035, -2.258451223373413, -1.7405239343643188, -2.263880968093872, 1.11279296875, -0.406005859375, 0.0517578125
499, 4265713806, -6.761078357696533, -0.6978384256362915, 7.211139678955078, -2.383479356765747, -1.7672761678695679, -2.3386569023132324, 1.11572265625, -0.406005859375, 0.049560546875
500, 4265730473, -6.748085975646973, -0.7025442719459534, 7.1953277587890625, -2.3365697860717773, -1.733775019645691, -2.37711501121521, 1.1142578125, -0.405029296875, 0.049072265625
501, 4265747140, -6.744456768035889, -0.7075286507606506, 7.208698272705078, -2.375206470489502, -1.613843321800232, -2.4740331172943115, 1.1142578125, -0.405517578125, 0.049560546875
502, 4265763807, -6.742671012878418, -0.7075740694999695, 7.206398963928223, -2.4422223567962646, -1.5753731727600098, -2.4813456535339355, 1.11328125, -0.404052734375, 0.0517578125
503, 4265780474, -6.755287170410156, -0.7138925790786743, 7.186644554138184, -2.5553154945373535, -1.4393699169158936, -2.5287423133850098, 1.1142578125, -0.404541015625, 0.05322265625
504, 4265797141, -6.751561164855957, -0.709980845451355, 7.210209369659424, -2.496380567550659, -1.4513182640075684, -2.5436103343963623, 1.11376953125, -0.406494140625, 0.0517578125
505, 4265813808, -6.7492780685424805, -0.7069998383522034, 7.200919151306152, -2.454362630844116, -1.4122202396392822, -2.504089832305908, 1.11474609375, -0.404541015625, 0.0517578125
506, 4265830475, -6.760533332824707, -0.7028308510780334, 7.197000980377197, -2.507816791534424, -1.5006996393203735, -2.470217227935791, 1.11474609375, -0.405029296875, 0.049560546875
507, 4265847142, -6.76027250289917, -0.6999770402908325, 7.21066951751709, -2.559157371520996, -1.5011732578277588, -2.5218780040740967, 1.115234375, -0.403564453125, 0.050048828125
508, 4265863809, -6.749325752258301, -0.7058964371681213, 7.1762166023254395, -2.6079370975494385, -1.5035297870635986, -2.588778495788574, 1.115234375, -0.403564453125, 0.050537109375
509, 4265880476, -6.73599910736084, -0.7118441462516785, 7.189512252807617, -2.590852975845337, -1.501096487045288, -2.6403493881225586, 1.11328125, -0.404541015625, 0.050048828125
510, 4265897143, -6.739700794219971, -0.743904709815979, 7.181297779083252, -2.6107029914855957, -1.6163023710250854, -2.5481693744659424, 1.11279296875, -0.404052734375, 0.0517578125
511, 4265913810, -6.756304740905762, -0.7216594219207764, 7.210840225219727, -2.6008293628692627, -1.5978100299835205, -2.580697536468506, 1.11279296875, -0.405029296875, 0.050537109375
512, 4265930477, -6.748279571533203, -0.706334114074707, 7.196744918823242, -2.5538556575775146, -1.565025806427002, -2.585538148880005, 1.11572265625, -0.402587890625, 0.048095703125
513, 4265947144, -6.754977226257324, -0.7038829326629639, 7.186151027679443, -2.5386412143707275, -1.4983813762664795, -2.5900204181671143, 1.115234375, -0.403076171875, 0.050048828125
514, 4265963811, -6.7406182289123535, -0.7266637682914734, 7.1937127113342285, -2.5850131511688232, -1.515273094177246, -2.450982093811035, 1.1171875, -0.40185546875, 0.05078125
515, 4265980478, -6.74128532409668, -0.7303724884986877, 7.195988178253174, -2.510019302368164, -1.5324208736419678, -2.580172538757324, 1.11328125, -0.402587890625, 0.050537109375
516, 4265997145, -6.745822429656982, -0.721005916595459, 7.185875415802002, -2.5113377571105957, -1.4835515022277832, -2.4103856086730957, 1.1162109375, -0.404541015625, 0.05224609375
517, 4266013812, -6.7519707679748535, -0.7211966514587402, 7.175992012023926, -2.4870829582214355, -1.554396390914917, -2.396106719970703, 1.1162109375, -0.403564453125, 0.050048828125
518, 4266030479, -6.762824058532715, -0.7117505073547363, 7.204202651977539, -2.5542776584625244, -1.6155084371566772, -2.4196577072143555, 1.11328125, -0.403076171875, 0.050048828125
519, 4266047146, -6.747589588165283, -0.7326297163963318, 7.213611602783203, -2.5360801219940186, -1.5170788764953613, -2.485238790512085, 1.1142578125, -0.403076171875, 0.046630859375
520, 4266063813, -6.7431793212890625, -0.7223002910614014, 7.187789440155029, -2.51249098777771, -1.5960042476654053, -2.429377794265747, 1.1162109375, -0.403564453125, 0.05078125
521, 4266080480, -6.751258373260498, -0.7410071492195129, 7.186513900756836, -2.53778338432312, -1.4377816915512085, -2.417262554168701, 1.11572265625, -0.403076171875, 0.05126953125
522, 4266097147, -6.734701156616211, -0.7330288290977478, 7.210450649261475, -2.5048742294311523, -1.5487838983535767, -2.3868322372436523, 1.11328125, -0.404541015625, 0.05322265625
523, 4266113814, -6.752000331878662, -0.7228934168815613, 7.18182373046875, -2.5631654262542725, -1.4275367259979248, -2.4920389652252197, 1.1142578125, -0.40234375, 0.050048828125
524, 4266130481, -6.744901180267334, -0.7444621920585632, 7.202646732330322, -2.466195821762085, -1.4690933227539062, -2.4279558658599854, 1.11669921875, -0.404052734375, 0.049072265625
525, 4266147148, -6.752754211425781, -0.7385985255241394, 7.215780735015869, -2.5599892139434814, -1.4135137796401978, -2.411064386367798, 1.11572265625, -0.40185546875, 0.050537109375
526, 4266163815, -6.747506141662598, -0.737440288066864, 7.184670448303223, -2.550128698348999, -1.386377215385437, -2.41917085647583, 1.11376953125, -0.404052734375, 0.051025390625
527, 4266180482, -6.761632919311523, -0.7179297208786011, 7.1928181648254395, -2.548950672149658, -1.4618066549301147, -2.4681811332702637, 1.11474609375, -0.403564453125, 0.050537109375
528, 4266197149, -6.751069068908691, -0.730243444442749, 7.208286762237549, -2.4822676181793213, -1.3145462274551392, -2.5135281085968018, 1.1142578125, -0.403076171875, 0.051025390625
529, 4266213816, -6.7539286613464355, -0.7180851697921753, 7.181624412536621, -2.5206615924835205, -1.4687221050262451, -2.585230827331543, 1.11328125, -0.403076171875, 0.051513671875
530, 4266230483, -6.753016471862793, -0.7394053339958191, 7.201653480529785, -2.511594295501709, -1.4878674745559692, -2.497981071472168, 1.1142578125, -0.40234375, 0.049072265625
531, 4266247150, -6.756033420562744, -0.7405816316604614, 7.197077751159668, -2.579263210296631, -1.5121996402740479, -2.5456464290618896, 1.11376953125, -0.405029296875, 0.049560546875
532, 4266263817, -6.750072002410889, -0.7446057200431824, 7.1780195236206055, -2.4841246604919434, -1.529219150543213, -2.4964699745178223, 1.11474609375, -0.40234375, 0.051025390625
533, 4266280484, -6.754367828369141, -0.7372198104858398, 7.187678337097168, -2.5462870597839355, -1.5340728759765625, -2.53536319732666, 1.115234375, -0.403564453125, 0.049560546875
534, 4266297151, -6.754968166351318, -0.758465588092804, 7.199289321899414, -2.584667682647705, -1.465469241142273, -2.4816277027130127, 1.115234375, -0.4013671875, 0.0517578125
535, 4266313818, -6.752730846405029, -0.7523808479309082, 7.187601089477539, -2.5314698219299316, -1.4765211343765259, -2.470947027206421, 1.11474609375, -0.403564453125, 0.052734375
536, 4266330485, -6.740806579589844, -0.7302810549736023, 7.18128776550293, -2.5595285892486572, -1.5376585721969604, -2.439277172088623, 1.112548828125, -0.4013671875, 0.050048828125
537, 4266347152, -6.749007701873779, -0.7333537936210632, 7.174675941467285, -2.5208659172058105, -1.5526546239852905, -2.474238157272339, 1.11279296875, -0.40234375, 0.049560546875
538, 4266363819, -6.770900249481201, -0.7491658926010132, 7.200845718383789, -2.479834794998169, -1.5985784530639648, -2.4321820735931396, 1.112060546875, -0.40234375, 0.049560546875
539, 4266380486, -6.752984523773193, -0.750586986541748, 7.183834075927734, -2.467655658721924, -1.5298210382461548, -2.393404483795166, 1.1142578125, -0.402587890625, 0.05224609375
540, 4266397153, -6.737074851989746, -0.7528934478759766, 7.178102493286133, -2.4954710006713867, -1.5056809186935425, -2.3709163665771484, 1.115234375, -0.402587890625, 0.051025390625
541, 4266413820, -6.739388465881348, -0.7548350691795349, 7.188022136688232, -2.405365467071533, -1.5548062324523926, -2.352680206298828, 1.11474609375, -0.404052734375, 0.050537109375
542, 4266430487, -6.758885860443115, -0.7418428659439087, 7.180380821228027, -2.3686883449554443, -1.5984503030776978, -2.2991113662719727, 1.11376953125, -0.403076171875, 0.0517578125
543, 4266447154, -6.756326198577881, -0.7428735494613647, 7.202908515930176, -2.310009479522705, -1.5841840505599976, -2.2348105907440186, 1.11279296875, -0.403076171875, 0.050048828125
544, 4266463821, -6.76314640045166, -0.7474992871284485, 7.186598777770996, -2.363591432571411, -1.624152660369873, -2.2810544967651367, 1.1142578125, -0.39990234375, 0.050048828125
545, 4266480488, -6.76447057723999, -0.7292765974998474, 7.214287281036377, -2.3620543479919434, -1.6072864532470703, -2.233529567718506, 1.11474609375, -0.403076171875, 0.051025390625
546, 4266497155, -6.7482686042785645, -0.7788335084915161, 7.196251392364502, -2.3699686527252197, -1.6921286582946777, -2.2069568634033203, 1.1142578125, -0.40185546875, 0.051025390625
547, 4266513822, -6.748885154724121, -0.7279419898986816, 7.2002668380737305, -2.309445858001709, -1.7286394834518433, -2.1990036964416504, 1.11376953125, -0.402587890625, 0.0517578125
548, 4266530489, -6.7378387451171875, -0.7467052936553955, 7.187681198120117, -2.3963370323181152, -1.7014517784118652, -2.245683193206787, 1.1142578125, -0.40087890625, 0.050537109375
549, 4266547156, -6.730976581573486, -0.7452712059020996, 7.181856632232666, -2.274689197540283, -1.6762486696243286, -2.22694730758667, 1.11572265625, -0.400390625, 0.05126953125
550, 4266563823, -6.735887050628662, -0.7459471821784973, 7.191673755645752, -2.21747088432312, -1.8202563524246216, -2.176797866821289, 1.11376953125, -0.40234375, 0.052734375
551, 4266580490, -6.746633052825928, -0.7612093091011047, 7.1666107177734375, -2.114354133605957, -1.8618000745773315, -1.9927194118499756, 1.1142578125, -0.402587890625, 0.052734375
552, 4266597157, -6.752375602722168, -0.726384699344635, 7.202377796173096, -2.008855104446411, -1.8873614072799683, -1.765662670135498, 1.11474609375, -0.404541015625, 0.0517578125
553, 4266613824, -6.747647285461426, -0.7086564302444458, 7.207653045654297, -2.172494888305664, -1.730317234992981, -2.0673675537109375, 1.11328125, -0.405029296875, 0.049560546875
554, 4266630491, -6.7631449699401855, -0.719110369682312, 7.18243932723999, -2.222759962081909, -1.6845089197158813, -2.057084083557129, 1.11279296875, -0.402587890625, 0.048583984375
555, 4266647158, -6.7591118812561035, -0.7176073789596558, 7.197781562805176, -2.3229308128356934, -1.540795922279358, -2.137366771697998, 1.1142578125, -0.402587890625, 0.050048828125
556, 4266663825, -6.745311737060547, -0.7535232901573181, 7.1876935958862305, -2.2514586448669434, -1.6652607917785645, -2.1046082973480225, 1.11572265625, -0.403076171875, 0.05224609375
557, 4266680492, -6.7363715171813965, -0.7334737777709961, 7.201502799987793, -2.2050869464874268, -1.7671608924865723, -2.0711326599121094, 1.11376953125, -0.40185546875, 0.051025390625
558, 4266697159, -6.748819828033447, -0.7348700165748596, 7.198544979095459, -2.1892168521881104, -1.8086220026016235, -2.0957744121551514, 1.11376953125, -0.404052734375, 0.051025390625
559, 4266713826, -6.743862628936768, -0.716949999332428, 7.2170634269714355, -2.2281386852264404, -1.7601432800292969, -2.138827323913574, 1.11376953125, -0.404052734375, 0.05322265625
560, 4266730493, -6.751377582550049, -0.7265826463699341, 7.210713863372803, -2.2788259983062744, -1.7855638265609741, -2.1996185779571533, 1.115234375, -0.40234375, 0.049560546875
561, 4266747160, -6.7422637939453125, -0.729692280292511, 7.20188570022583, -2.2587201595306396, -1.8117399215698242, -2.2274341583251953, 1.11376953125, -0.4013671875, 0.050048828125
562, 4266763827, -6.755043983459473, -0.7307368516921997, 7.209528923034668, -2.2189559936523438, -1.7303555011749268, -2.240445137023926, 1.11328125, -0.40185546875, 0.051025390625
563, 4266780494, -6.747604846954346, -0.7268038392066956, 7.196070671081543, -2.2582974433898926, -1.663148045539856, -2.2055225372314453, 1.11328125, -0.4013671875, 0.050537109375
564, 4266797161, -6.74730920791626, -0.7123881578445435, 7.191093921661377, -2.2498836517333984, -1.660560965538025, -2.2868812084198, 1.1142578125, -0.404541015625, 0.051025390625
565, 4266813828, -6.750699520111084, -0.7347941398620605, 7.183265209197998, -2.2890710830688477, -1.5925592184066772, -2.273562431335449, 1.11279296875, -0.404541015625, 0.049560546875
566, 4266830495, -6.751997470855713, -0.7262263298034668, 7.187748908996582, -2.312199354171753, -1.6813329458236694, -2.144641160964966, 1.11279296875, -0.4013671875, 0.050537109375
567, 4266847162, -6.740877151489258, -0.7268122434616089, 7.19796085357666, -2.262753963470459, -1.6813842058181763, -2.0729639530181885, 1.11474609375, -0.403076171875, 0.05126953125
568, 4266863829, -6.732186317443848, -0.7112529873847961, 7.199842929840088, -2.361286163330078, -1.713412880897522, -2.209082841873169, 1.11474609375, -0.403564453125, 0.04443359375
569, 4266880496, -6.738562107086182, -0.7460507154464722, 7.2091546058654785, -2.355741024017334, -1.6528644561767578, -2.25732421875, 1.1142578125, -0.40234375, 0.051513671875
570, 4266897163, -6.750600814819336, -0.7234432101249695, 7.202625274658203, -2.365921974182129, -1.6657602787017822, -2.313467264175415, 1.11376953125, -0.403076171875, 0.051025390625
571, 4266913830, -6.7425079345703125, -0.7369207143783569, 7.192826271057129, -2.471407890319824, -1.6156619787216187, -2.3194990158081055, 1.11328125, -0.405029296875, 0.049560546875
572, 4266930497, -6.746025562286377, -0.7292472124099731, 7.214866638183594, -2.38586163520813, -1.600115180015564, -2.3712494373321533, 1.11669921875, -0.403564453125, 0.049072265625
573, 4266947164, -6.744963645935059, -0.720477819442749, 7.18660306930542, -2.4088873863220215, -1.6107444763183594, -2.343677520751953, 1.11279296875, -0.40185546875, 0.049072265625
574, 4266963831, -6.751385688781738, -0.7353217601776123, 7.207225322723389, -2.5832459926605225, -1.639366626739502, -2.391458034515381, 1.112060546875, -0.40234375, 0.052001953125
575, 4266980498, -6.736281394958496, -0.7251956462860107, 7.199707508087158, -2.5179977416992188, -1.5810080766677856, -2.4560019969940186, 1.11376953125, -0.404052734375, 0.051025390625
576, 4266997165, -6.749658584594727, -0.7276468276977539, 7.198850631713867, -2.604478597640991, -1.5335732698440552, -2.502450704574585, 1.11474609375, -0.404541015625, 0.050048828125
577, 4267013832, -6.754899024963379, -0.7262686491012573, 7.204940319061279, -2.6112918853759766, -1.5491459369659424, -2.490579128265381, 1.11572265625, -0.402587890625, 0.050537109375
578, 4267030499, -6.753881454467773, -0.7420439720153809, 7.20701265335083, -2.6309242248535156, -1.467761516571045, -2.555917501449585, 1.11474609375, -0.402587890625, 0.050537109375
579, 4267047166, -6.750881195068359, -0.7384228110313416, 7.20028829574585, -2.498096466064453, -1.642196774482727, -2.4473962783813477, 1.11474609375, -0.40087890625, 0.049072265625
580, 4267063833, -6.747547149658203, -0.7356467247009277, 7.2213239669799805, -2.4321436882019043, -1.695471167564392, -2.4543755054473877, 1.11572265625, -0.403564453125, 0.047607421875
581, 4267080500, -6.742265701293945, -0.739183247089386, 7.213196277618408, -2.4856996536254883, -1.6140995025634766, -2.3380424976348877, 1.11181640625, -0.404052734375, 0.050537109375
582, 4267097167, -6.72952127456665, -0.734837532043457, 7.215357780456543, -2.4552078247070312, -1.5226110219955444, -2.3636295795440674, 1.1123046875, -0.404052734375, 0.050537109375
583, 4267113834, -6.739060878753662, -0.7327964305877686, 7.194902420043945, -2.475172996520996, -1.5098943710327148, -2.356355667114258, 1.112060546875, -0.402587890625, 0.050537109375
584, 4267130501, -6.738595485687256, -0.7520244121551514, 7.196345806121826, -2.4887473583221436, -1.3510825634002686, -2.283704996109009, 1.11474609375, -0.402587890625, 0.048095703125
585, 4267147168, -6.729008674621582, -0.7454303503036499, 7.18567419052124, -2.385925769805908, -1.4653154611587524, -2.243211507797241, 1.1142578125, -0.4013671875, 0.050537109375
586, 4267163835, -6.743300914764404, -0.7520489692687988, 7.193807125091553, -2.352231740951538, -1.4136033058166504, -2.1968908309936523, 1.1142578125, -0.403076171875, 0.051025390625
587, 4267180502, -6.750314712524414, -0.7425351142883301, 7.2052435874938965, -2.3342132568359375, -1.4756755828857422, -2.110614538192749, 1.11376953125, -0.402587890625, 0.049072265625
588, 4267197169, -6.7461323738098145, -0.7401397228240967, 7.206007957458496, -2.314542770385742, -1.4440439939498901, -2.1167359352111816, 1.11572265625, -0.4013671875, 0.049560546875
589, 4267213836, -6.750109672546387, -0.7302011847496033, 7.218623161315918, -2.296652317047119, -1.3735066652297974, -2.123663902282715, 1.11279296875, -0.403076171875, 0.052001953125
590, 4267230503, -6.751526832580566, -0.7110973596572876, 7.2096967697143555, -2.405839204788208, -1.3316426277160645, -2.146228790283203, 1.11474609375, -0.403564453125, 0.048583984375
591, 4267247170, -6.751195430755615, -0.734094500541687, 7.194856643676758, -2.411243438720703, -1.1864057779312134, -2.173250436782837, 1.11376953125, -0.403076171875, 0.048583984375
592, 4267263837, -6.743773937225342, -0.7370128035545349, 7.207462310791016, -2.391265392303467, -1.2170257568359375, -2.2132959365844727, 1.115234375, -0.403564453125, 0.0517578125
593, 4267280504, -6.745860576629639, -0.7524137496948242, 7.192024230957031, -2.275777816772461, -1.324637532234192, -2.0025289058685303, 1.11376953125, -0.40185546875, 0.051025390625
594, 4267297171, -6.753842353820801, -0.7295199036598206, 7.191298484802246, -2.2419626712799072, -1.4716558456420898, -1.9589595794677734, 1.115234375, -0.404052734375, 0.0517578125
595, 4267313838, -6.754821300506592, -0.7401449680328369, 7.183263778686523, -2.223182201385498, -1.384199857711792, -1.8850562572479248, 1.11474609375, -0.4013671875, 0.049560546875
596, 4267330505, -6.757784366607666, -0.7348026037216187, 7.2112717628479, -2.2468101978302, -1.258569598197937, -1.959051489830017, 1.11376953125, -0.403076171875, 0.0517578125
597, 4267347172, -6.747244834899902, -0.6986293792724609, 7.201731204986572, -2.2768666744232178, -1.3566278219223022, -2.1025848388671875, 1.1142578125, -0.403076171875, 0.049560546875
598, 4267363839, -6.751368045806885, -0.7216198444366455, 7.226451873779297, -2.4489965438842773, -1.3086936473846436, -2.114161729812622, 1.11474609375, -0.405029296875, 0.048095703125
599, 4267380506, -6.7469587326049805, -0.7388514280319214, 7.185206413269043, -2.49725079536438, -1.2612717151641846, -2.214653253555298, 1.1142578125, -0.403564453125, 0.051025390625
600, 4267397173, -6.7561445236206055, -0.7333132028579712, 7.187314987182617, -2.4739818572998047, -1.2994346618652344, -2.2450554370880127, 1.11572265625, -0.403076171875, 0.05224609375
601, 4267413840, -6.758046627044678, -0.7345855236053467, 7.200915813446045, -2.5039873123168945, -1.3303622007369995, -2.2771995067596436, 1.115234375, -0.40234375, 0.0517578125
602, 4267430507, -6.744641304016113, -0.7474205493927002, 7.18347692489624, -2.4603562355041504, -1.4699513912200928, -2.2428016662597656, 1.1162109375, -0.40185546875, 0.050537109375
603, 4267447174, -6.75921106338501, -0.7388046383857727, 7.194512367248535, -2.373400926589966, -1.5086778402328491, -2.3146071434020996, 1.11474609375, -0.403076171875, 0.050048828125
604, 4267463841, -6.755456924438477, -0.7285641431808472, 7.205079078674316, -2.4121527671813965, -1.5894089937210083, -2.2721409797668457, 1.11474609375, -0.402587890625, 0.048583984375
605, 4267480508, -6.754846096038818, -0.7234780788421631, 7.181124687194824, -2.4338340759277344, -1.5569065809249878, -2.233747720718384, 1.115234375, -0.403076171875, 0.050537109375
606, 4267497175, -6.744015216827393, -0.7472535967826843, 7.186787128448486, -2.3938143253326416, -1.7073042392730713, -2.199605941772461, 1.11376953125, -0.405029296875, 0.050537109375
607, 4267513842, -6.760213851928711, -0.7343190908432007, 7.205295085906982, -2.4070563316345215, -1.7357087135314941, -2.200284957885742, 1.11474609375, -0.404052734375, 0.049560546875
608, 4267530509, -6.749497890472412, -0.7280628681182861, 7.203810214996338, -2.3890888690948486, -1.7792118787765503, -2.2940144538879395, 1.11328125, -0.403076171875, 0.049560546875
609, 4267547176, -6.753703594207764, -0.7167322039604187, 7.191898345947266, -2.334251880645752, -1.8128412961959839, -2.303900718688965, 1.11474609375, -0.405517578125, 0.05224609375
610, 4267563843, -6.74367094039917, -0.7283222079277039, 7.200566291809082, -2.280298948287964, -1.9013075828552246, -2.302671432495117, 1.1162109375, -0.403076171875, 0.05078125
611, 4267580510, -6.742443561553955, -0.7366542220115662, 7.204832077026367, -2.3342134952545166, -1.746619701385498, -2.2495124340057373, 1.11376953125, -0.403076171875, 0.049072265625
612, 4267597177, -6.744987487792969, -0.7327731251716614, 7.197041988372803, -2.3400917053222656, -1.5923672914505005, -2.2942960262298584, 1.1142578125, -0.404052734375, 0.05126953125
613, 4267613844, -6.7457756996154785, -0.7343866229057312, 7.203640937805176, -2.4365620613098145, -1.57486093044281, -2.2318267822265625, 1.1142578125, -0.403564453125, 0.0517578125
614, 4267630511, -6.7548675537109375, -0.7358658909797668, 7.190568923950195, -2.415315866470337, -1.508242130279541, -2.1598165035247803, 1.1162109375, -0.404052734375, 0.050048828125
615, 4267647178, -6.760116100311279, -0.7365235686302185, 7.191117763519287, -2.2783780097961426, -1.7167681455612183, -2.1730711460113525, 1.11328125, -0.403076171875, 0.049560546875
616, 4267663845, -6.754820823669434, -0.7164239883422852, 7.197606086730957, -2.22055721282959, -1.6997997760772705, -2.210273504257202, 1.115234375, -0.402587890625, 0.047607421875
617, 4267680512, -6.74538516998291, -0.7214402556419373, 7.216029167175293, -2.4251129627227783, -1.785307765007019, -2.2608842849731445, 1.11279296875, -0.403076171875, 0.048583984375
618, 4267697179, -6.759209156036377, -0.7186337113380432, 7.180696964263916, -2.3431396484375, -1.697520136833191, -2.3907535076141357, 1.11572265625, -0.403564453125, 0.050537109375
619, 4267713846, -6.74531364440918, -0.728067934513092, 7.185636520385742, -2.4169557094573975, -1.8606349229812622, -2.309497594833374, 1.11572265625, -0.402587890625, 0.049560546875
620, 4267730513, -6.7501091957092285, -0.7176475524902344, 7.205088138580322, -2.3648462295532227, -1.75523841381073, -2.3209078311920166, 1.11328125, -0.403564453125, 0.0517578125
621, 4267747180, -6.729187488555908, -0.7306445837020874, 7.207431793212891, -2.355484962463379, -1.707381010055542, -2.334469795227051, 1.11279296875, -0.402587890625, 0.049072265625
622, 4267763847, -6.738234043121338, -0.7318480610847473, 7.191261291503906, -2.4085288047790527, -1.5540376901626587, -2.242673873901367, 1.1123046875, -0.403564453125, 0.051025390625
623, 4267780514, -6.744200229644775, -0.7461409568786621, 7.196532249450684, -2.3846449851989746, -1.6343464851379395, -2.1999387741088867, 1.115234375, -0.404052734375, 0.051025390625
624, 4267797181, -6.7315592765808105, -0.7374180555343628, 7.185932159423828, -2.404661178588867, -1.5138771533966064, -2.219071388244629, 1.11279296875, -0.402587890625, 0.050537109375
625, 4267813848, -6.7385077476501465, -0.7396648526191711, 7.188429355621338, -2.4973409175872803, -1.2805325984954834, -2.2306101322174072, 1.11669921875, -0.403564453125, 0.05078125
626, 4267830515, -6.7432942390441895, -0.7260472178459167, 7.208689212799072, -2.4731879234313965, -1.2341606616973877, -2.235860586166382, 1.11474609375, -0.40087890625, 0.052734375
627, 4267847182, -6.740902900695801, -0.7342737317085266, 7.210072994232178, -2.835005521774292, -1.7769193649291992, -2.3661651611328125, 1.11474609375, -0.404052734375, 0.050048828125
628, 4267863849, -6.7343974113464355, -0.7447426915168762, 7.204046249389648, -2.5214931964874268, -1.132657527923584, -2.181920289993286, 1.11328125, -0.4013671875, 0.048583984375
629, 4267880516, -6.749098777770996, -0.7056020498275757, 7.213531017303467, -2.8153223991394043, -1.0263649225234985, -2.316566228866577, 1.11474609375, -0.40234375, 0.0517578125
630, 4267897183, -6.746487617492676, -0.7599263191223145, 7.187106609344482, -2.5509870052337646, -1.2320250272750854, -2.243051290512085, 1.1162109375, -0.405517578125, 0.048583984375
631, 4267913850, -6.752538681030273, -0.7217705249786377, 7.208957195281982, -2.5451722145080566, -1.3431298732757568, -2.0749359130859375, 1.11572265625, -0.400390625, 0.05126953125
632, 4267930517, -6.758661270141602, -0.7573095560073853, 7.213041305541992, -2.632089138031006, -1.3202195167541504, -2.110589027404785, 1.11474609375, -0.40234375, 0.050048828125
633, 4267947184, -6.74906587600708, -0.727518618106842, 7.198254585266113, -2.5709259510040283, -1.2521408796310425, -2.167846202850342, 1.1142578125, -0.402587890625, 0.049560546875
634, 4267963851, -6.7653608322143555, -0.7284113168716431, 7.1923441886901855, -2.6419882774353027, -1.2937103509902954, -2.108078956604004, 1.115234375, -0.40234375, 0.050537109375
635, 4267980518, -6.754538059234619, -0.7237939834594727, 7.202939987182617, -2.6689586639404297, -1.2292431592941284, -2.1388654708862305, 1.11328125, -0.403564453125, 0.050048828125
636, 4267997185, -6.734596252441406, -0.7264866828918457, 7.204342842102051, -2.9226906299591064, -0.7849010825157166, -2.257669687271118, 1.11474609375, -0.40234375, 0.05224609375
637, 4268013852, -6.746555328369141, -0.736853837966919, 7.203718185424805, -3.0093770027160645, -0.6006947159767151, -2.3873345851898193, 1.115234375, -0.404052734375, 0.0537109375
638, 4268030519, -6.771798610687256, -0.7388515472412109, 7.182396411895752, -3.1892809867858887, -0.10660006105899811, -2.2817206382751465, 1.11669921875, -0.40185546875, 0.0517578125
639, 4268047186, -6.757894515991211, -0.7681509256362915, 7.164048194885254, -3.0310323238372803, -0.16107827425003052, -2.0795974731445312, 1.11572265625, -0.403076171875, 0.05126953125
640, 4268063853, -6.7639851570129395, -0.7653169631958008, 7.1661458015441895, -2.86667537689209, -0.3109893798828125, -1.7434436082839966, 1.11474609375, -0.4013671875, 0.051025390625
641, 4268080520, -6.759379863739014, -0.752049446105957, 7.197139739990234, -2.853907823562622, -0.08488048613071442, -1.3755685091018677, 1.11669921875, -0.40234375, 0.0537109375
642, 4268097187, -6.766394138336182, -0.7154250144958496, 7.197482109069824, -3.0984833240509033, 0.6196287870407104, -1.4000924825668335, 1.1142578125, -0.403076171875, 0.05322265625
643, 4268113854, -6.77077054977417, -0.7317137122154236, 7.164133071899414, -3.2490994930267334, 0.8597351312637329, -1.589216947555542, 1.11328125, -0.403076171875, 0.05615234375
644, 4268130521, -6.79578161239624, -0.7524315118789673, 7.14784049987793, -3.10566782951355, 0.36749738454818726, -1.5684961080551147, 1.1162109375, -0.40283203125, 0.05517578125
645, 4268147188, -6.778579235076904, -0.7489103078842163, 7.1609625816345215, -2.916069746017456, -0.10328320413827896, -1.7321867942810059, 1.1142578125, -0.403564453125, 0.05517578125
646, 4268163855, -6.789458751678467, -0.7443801760673523, 7.166393756866455, -2.8557517528533936, -0.07932252436876297, -1.6727523803710938, 1.117431640625, -0.403076171875, 0.056396484375
647, 4268180522, -6.774828910827637, -0.7185943722724915, 7.203404903411865, -3.0659422874450684, 0.34456121921539307, -1.6129084825515747, 1.117919921875, -0.404541015625, 0.057373046875
648, 4268197189, -6.794294834136963, -0.7287402749061584, 7.19277811050415, -3.244168758392334, 0.9474330544471741, -1.5160285234451294, 1.11767578125, -0.40283203125, 0.057373046875
649, 4268213856, -6.7848663330078125, -0.7005972266197205, 7.206358909606934, -3.3956546783447266, 2.138615608215332, -1.4773659706115723, 1.117431640625, -0.405029296875, 0.0595703125
650, 4268230523, -6.780540466308594, -0.6610974669456482, 7.178886413574219, -3.71842622756958, 3.126868963241577, -1.4716033935546875, 1.118896484375, -0.404052734375, 0.058837890625
651, 4268247190, -6.828866004943848, -0.6815478801727295, 7.11867094039917, -4.179813861846924, 4.038847923278809, -2.1264431476593018, 1.118896484375, -0.40283203125, 0.058837890625
