sep=,
DeviceTag:,B,,,,,,,,,,,,,,,,,
FirmwareVersion:,2.2.1,,,,,,,,,,,,,,,,,
AppVersion:,2023.6.1,,,,,,,,,,,,,,,,,
SyncStatus:,Synced,,,,,,,,,,,,,,,,,
OutputRate:,60Hz,,,,,,,,,,,,,,,,,
FilterProfile:,General,,,,,,,,,,,,,,,,,
Measurement Mode:,Inertial Mode - Rate quantities (with mag),,,,,,,,,,,,,,,,,
StartTime:,2023-12-07 13:36:58.772 +0200,,,,,,,,,,,,,,,,,
 2023,,,,,,,,,,,,,,,,,,,

PacketCounter,SampleTimeFine,Acc_X,Acc_Y,Acc_Z,Gyr_X,Gyr_Y,Gyr_Z,Mag_X,Mag_Y,Mag_Z
1, 4257413640, -6.303262233734131, 1.7498390674591064, 7.124795913696289, -0.17301377654075623, -0.882191002368927, -1.3102304935455322, 0.597900390625, 0.195556640625, -0.705810546875
2, 4257430307, -6.303763389587402, 1.7478591203689575, 7.112738609313965, -0.1680065095424652, -0.773106575012207, -1.2153738737106323, 0.597412109375, 0.197021484375, -0.70458984375
3, 4257446974, -6.2932634353637695, 1.7443954944610596, 7.107341289520264, -0.07367492467164993, -0.8557971119880676, -1.264601469039917, 0.598388671875, 0.196044921875, -0.704833984375
4, 4257463641, -6.301271915435791, 1.7560418844223022, 7.102390766143799, -0.1317773461341858, -0.7999101877212524, -1.1765449047088623, 0.597900390625, 0.1943359375, -0.7041015625
5, 4257480308, -6.299875259399414, 1.7458630800247192, 7.107626914978027, -0.06195712089538574, -0.7812386155128479, -1.2453408241271973, 0.598876953125, 0.19482421875, -0.705078125
6, 4257496975, -6.303877830505371, 1.7624205350875854, 7.1138386726379395, 0.01977940835058689, -0.8529797792434692, -1.1733561754226685, 0.599365234375, 0.1943359375, -0.705810546875
7, 4257513642, -6.314414024353027, 1.7536184787750244, 7.10210657119751, -0.01233251579105854, -0.8791558742523193, -1.149293065071106, 0.597900390625, 0.19580078125, -0.707275390625
8, 4257530309, -6.301303863525391, 1.738861083984375, 7.145968914031982, 0.06393569707870483, -0.8068000078201294, -1.0882835388183594, 0.598876953125, 0.195556640625, -0.706298828125
9, 4257546976, -6.31312370300293, 1.7524296045303345, 7.120138168334961, 0.1281467229127884, -0.645119845867157, -0.9914932250976562, 0.596923828125, 0.19482421875, -0.70458984375
10, 4257563643, -6.309589385986328, 1.7399073839187622, 7.143350601196289, 0.18413609266281128, -0.5696520805358887, -1.0939184427261353, 0.598876953125, 0.1943359375, -0.705810546875
11, 4257580310, -6.314911365509033, 1.7656056880950928, 7.125492095947266, 0.20786626636981964, -0.61602383852005, -1.0642716884613037, 0.597412109375, 0.19287109375, -0.706298828125
12, 4257596977, -6.305099964141846, 1.7562910318374634, 7.12475061416626, 0.19768521189689636, -0.5414395928382874, -0.9976401925086975, 0.599365234375, 0.19384765625, -0.706298828125
13, 4257613644, -6.297062873840332, 1.7507350444793701, 7.128983497619629, 0.18440505862236023, -0.5552321672439575, -0.9074451923370361, 0.596923828125, 0.19580078125, -0.704833984375
14, 4257630311, -6.303565979003906, 1.7563492059707642, 7.135178565979004, 0.08294032514095306, -0.5521457195281982, -1.0291181802749634, 0.598876953125, 0.196533203125, -0.7041015625
15, 4257646978, -6.2994561195373535, 1.7506544589996338, 7.1245245933532715, 0.20992808043956757, -0.5191053748130798, -0.9038209319114685, 0.598388671875, 0.1953125, -0.70458984375
16, 4257663645, -6.295847415924072, 1.7818328142166138, 7.122130870819092, 0.25896358489990234, -0.4935566782951355, -0.9354398846626282, 0.599853515625, 0.1943359375, -0.703125
17, 4257680312, -6.310924053192139, 1.7733798027038574, 7.135322570800781, 0.24135485291481018, -0.5190669298171997, -1.029246211051941, 0.599853515625, 0.19482421875, -0.706298828125
18, 4257696979, -6.30859899520874, 1.7676799297332764, 7.134206771850586, 0.08651328831911087, -0.7552672624588013, -1.0721988677978516, 0.599853515625, 0.1943359375, -0.706298828125
19, 4257713646, -6.294643402099609, 1.7660164833068848, 7.118171215057373, 0.07993083447217941, -0.7475834488868713, -1.036149024963379, 0.597900390625, 0.19384765625, -0.705810546875
20, 4257730313, -6.306930065155029, 1.7784814834594727, 7.122035980224609, 0.24390330910682678, -0.6848708391189575, -1.0619537830352783, 0.598388671875, 0.19384765625, -0.70361328125
21, 4257746980, -6.301611423492432, 1.7894384860992432, 7.119593620300293, 0.17572233080863953, -0.5140981674194336, -0.9952199459075928, 0.598388671875, 0.19287109375, -0.705810546875
22, 4257763647, -6.306097030639648, 1.7860866785049438, 7.11339807510376, 0.07017238438129425, -0.5522353649139404, -1.1941664218902588, 0.599853515625, 0.19384765625, -0.705078125
23, 4257780314, -6.306949138641357, 1.7640900611877441, 7.104360580444336, -0.020387709140777588, -0.6844097971916199, -1.23638916015625, 0.596923828125, 0.19140625, -0.703125
24, 4257796981, -6.310173511505127, 1.7577130794525146, 7.1204400062561035, -0.02385822869837284, -0.777716875076294, -1.1853045225143433, 0.597900390625, 0.1923828125, -0.70361328125
25, 4257813648, -6.322780132293701, 1.7827448844909668, 7.104706287384033, 0.09716817736625671, -0.7333171963691711, -1.222327709197998, 0.598388671875, 0.19140625, -0.703125
26, 4257830315, -6.295312404632568, 1.7739566564559937, 7.113964557647705, 0.11373960971832275, -0.65135657787323, -1.1128334999084473, 0.598876953125, 0.19482421875, -0.705322265625
27, 4257846982, -6.303226470947266, 1.780646800994873, 7.140847206115723, 0.18408487737178802, -0.5980437397956848, -1.0316667556762695, 0.599365234375, 0.193359375, -0.70361328125
28, 4257863649, -6.321410179138184, 1.775166630744934, 7.135315895080566, 0.23500293493270874, -0.5573707818984985, -1.1076468229293823, 0.596923828125, 0.19384765625, -0.705078125
29, 4257880316, -6.297854900360107, 1.7948992252349854, 7.098299026489258, 0.01541244238615036, -0.7088571190834045, -1.0285805463790894, 0.598876953125, 0.19384765625, -0.701171875
30, 4257896983, -6.299930095672607, 1.7791777849197388, 7.111772537231445, 0.10556915402412415, -0.6223245859146118, -1.035111665725708, 0.597412109375, 0.193359375, -0.707763671875
31, 4257913650, -6.298133373260498, 1.773127555847168, 7.116754531860352, 0.13953156769275665, -0.4298194646835327, -1.0643739700317383, 0.596923828125, 0.19287109375, -0.70361328125
32, 4257930317, -6.316317081451416, 1.7826783657073975, 7.110818386077881, 0.22666598856449127, -0.5096799731254578, -1.0585473775863647, 0.597412109375, 0.19287109375, -0.706787109375
33, 4257946984, -6.308908939361572, 1.8019767999649048, 7.107687473297119, 0.06713729351758957, -0.6435062885284424, -1.2009282112121582, 0.599853515625, 0.19482421875, -0.70361328125
34, 4257963651, -6.3045220375061035, 1.7842413187026978, 7.096800804138184, 0.04208806902170181, -0.6921319961547852, -1.1983028650283813, 0.599365234375, 0.1943359375, -0.703125
35, 4257980318, -6.302143096923828, 1.7701421976089478, 7.090198516845703, 0.12873582541942596, -0.6381276249885559, -1.199276328086853, 0.599853515625, 0.1923828125, -0.706298828125
36, 4257996985, -6.293406009674072, 1.7964595556259155, 7.109847545623779, 6.595270242542028E-4, -0.48993250727653503, -1.1931933164596558, 0.597412109375, 0.1923828125, -0.7041015625
37, 4258013652, -6.309999942779541, 1.784164309501648, 7.122093200683594, 0.20892919600009918, -0.4635770618915558, -1.1440041065216064, 0.596923828125, 0.1923828125, -0.703125
38, 4258030319, -6.287778377532959, 1.8283836841583252, 7.120001792907715, 0.3362627327442169, -0.23669977486133575, -1.234224796295166, 0.598876953125, 0.193359375, -0.70361328125
39, 4258046986, -6.328438758850098, 1.7356281280517578, 7.118585109710693, 0.12781377136707306, -0.24150212109088898, -1.1076852083206177, 0.597412109375, 0.1923828125, -0.705078125
40, 4258063653, -6.335381031036377, 1.8132929801940918, 7.108262538909912, -0.0547727532684803, -0.36094698309898376, -1.2822484970092773, 0.601318359375, 0.19384765625, -0.70556640625
41, 4258080320, -6.312882900238037, 1.8062703609466553, 7.113701820373535, -0.06724614650011063, -0.48762744665145874, -1.3152250051498413, 0.597412109375, 0.19140625, -0.70556640625
42, 4258096987, -6.306790351867676, 1.7933238744735718, 7.102791786193848, -0.10164399445056915, -0.6760472059249878, -1.402961254119873, 0.599853515625, 0.18994140625, -0.7060546875
43, 4258113654, -6.311312198638916, 1.792334794998169, 7.107551574707031, -0.18443705141544342, -0.6821046471595764, -1.4454270601272583, 0.598876953125, 0.19189453125, -0.70458984375
44, 4258130321, -6.313294887542725, 1.7769560813903809, 7.106801986694336, -0.19779404997825623, -0.7593268156051636, -1.3892711400985718, 0.598876953125, 0.193359375, -0.70263671875
45, 4258146988, -6.300537586212158, 1.78140127658844, 7.118537902832031, -0.1493220329284668, -0.7279385924339294, -1.380191445350647, 0.599853515625, 0.1923828125, -0.70361328125
46, 4258163655, -6.309924125671387, 1.7919213771820068, 7.1153483390808105, -0.15254923701286316, -0.7230592370033264, -1.2849891185760498, 0.598876953125, 0.19189453125, -0.70263671875
47, 4258180322, -6.306528091430664, 1.7876341342926025, 7.101559162139893, -0.11870204657316208, -0.7024154663085938, -1.3097182512283325, 0.598876953125, 0.1923828125, -0.70458984375
48, 4258196989, -6.315605163574219, 1.804090142250061, 7.106445789337158, -0.1359650194644928, -0.7854005694389343, -1.4282537698745728, 0.6005859375, 0.19091796875, -0.7041015625
49, 4258213656, -6.316725730895996, 1.77346932888031, 7.114802360534668, -0.20801354944705963, -0.730640709400177, -1.3154939413070679, 0.6005859375, 0.1904296875, -0.7041015625
50, 4258230323, -6.304971218109131, 1.7799965143203735, 7.121685981750488, -0.12091755867004395, -0.6431477069854736, -1.335087537765503, 0.600341796875, 0.1923828125, -0.70361328125
51, 4258246990, -6.313253402709961, 1.795609712600708, 7.098404407501221, -0.1869470626115799, -0.7457392811775208, -1.3887587785720825, 0.600830078125, 0.1923828125, -0.7021484375
52, 4258263657, -6.311814308166504, 1.801522970199585, 7.090409278869629, -0.2678576409816742, -0.7476987242698669, -1.3176325559616089, 0.599853515625, 0.19091796875, -0.7021484375
53, 4258280324, -6.317838191986084, 1.7884399890899658, 7.111201763153076, -0.22309941053390503, -0.8770556449890137, -1.3723411560058594, 0.600341796875, 0.19189453125, -0.7021484375
54, 4258296991, -6.317011833190918, 1.774518370628357, 7.097696781158447, -0.18575610220432281, -0.8509691953659058, -1.3124970197677612, 0.60107421875, 0.19140625, -0.70458984375
55, 4258313658, -6.316630840301514, 1.7755886316299438, 7.124310493469238, -0.19466930627822876, -0.8864554762840271, -1.2881137132644653, 0.599365234375, 0.19287109375, -0.705078125
56, 4258330325, -6.310305118560791, 1.7960681915283203, 7.106185436248779, -0.16036111116409302, -0.8900668621063232, -1.306260585784912, 0.601318359375, 0.194580078125, -0.70361328125
57, 4258346992, -6.315723896026611, 1.7979729175567627, 7.126821517944336, -0.21544121205806732, -0.8635193109512329, -1.3370212316513062, 0.598876953125, 0.19384765625, -0.7041015625
58, 4258363659, -6.296851634979248, 1.8005706071853638, 7.108240127563477, -0.176036074757576, -0.8322334885597229, -1.311600685119629, 0.599853515625, 0.19384765625, -0.70458984375
59, 4258380326, -6.309047222137451, 1.7863863706588745, 7.097239017486572, -0.18188859522342682, -0.7546398043632507, -1.383508324623108, 0.600830078125, 0.1923828125, -0.703125
60, 4258396993, -6.319611072540283, 1.792575716972351, 7.107101917266846, -0.21381480991840363, -0.7865020036697388, -1.2970527410507202, 0.598876953125, 0.1923828125, -0.7041015625
61, 4258413660, -6.302927017211914, 1.7916908264160156, 7.108693599700928, -0.15548190474510193, -0.7570345997810364, -1.351863980293274, 0.598876953125, 0.19189453125, -0.705078125
62, 4258430327, -6.317971706390381, 1.8097339868545532, 7.109939098358154, -0.16812174022197723, -0.8408521413803101, -1.3843663930892944, 0.598876953125, 0.190185546875, -0.70556640625
63, 4258446994, -6.320773124694824, 1.7921946048736572, 7.110805511474609, -0.17221978306770325, -0.904397189617157, -1.367820382118225, 0.598388671875, 0.19287109375, -0.7041015625
64, 4258463661, -6.313182830810547, 1.7874984741210938, 7.109515190124512, -0.22741517424583435, -0.8693335056304932, -1.3756837844848633, 0.600830078125, 0.193359375, -0.70263671875
65, 4258480328, -6.31102180480957, 1.783125400543213, 7.117623805999756, -0.1392434537410736, -0.9881380796432495, -1.4161903858184814, 0.599853515625, 0.1904296875, -0.7041015625
66, 4258496995, -6.30468225479126, 1.7918602228164673, 7.102419376373291, -0.19796057045459747, -0.8725863099098206, -1.3420031070709229, 0.598876953125, 0.19287109375, -0.7041015625
67, 4258513662, -6.321921348571777, 1.7910672426223755, 7.118870735168457, -0.2383645921945572, -0.8887734413146973, -1.3552062511444092, 0.600341796875, 0.1943359375, -0.7041015625
68, 4258530329, -6.311914920806885, 1.7883743047714233, 7.1136932373046875, -0.22382938861846924, -0.8509563207626343, -1.3661301136016846, 0.599853515625, 0.1943359375, -0.703125
69, 4258546996, -6.301710605621338, 1.7786915302276611, 7.095444679260254, -0.2672300934791565, -0.8838942050933838, -1.320910930633545, 0.599853515625, 0.1923828125, -0.70263671875
70, 4258563663, -6.314778804779053, 1.7735316753387451, 7.1174445152282715, -0.18343815207481384, -0.9020408987998962, -1.3578060865402222, 0.598876953125, 0.19091796875, -0.70458984375
71, 4258580330, -6.304496765136719, 1.7894206047058105, 7.113552093505859, -0.19235137104988098, -0.7901646494865417, -1.4195839166641235, 0.600341796875, 0.19287109375, -0.70458984375
72, 4258596997, -6.308981895446777, 1.7914326190948486, 7.099026203155518, -0.15062829852104187, -0.8352813720703125, -1.241550087928772, 0.6015625, 0.193359375, -0.7021484375
73, 4258613664, -6.308528900146484, 1.7823899984359741, 7.113030910491943, -0.1552385836839676, -0.9012469053268433, -1.2755764722824097, 0.60009765625, 0.18994140625, -0.70361328125
74, 4258630331, -6.31304407119751, 1.7780438661575317, 7.109203338623047, -0.1386159360408783, -0.7841071486473083, -1.2606955766677856, 0.599853515625, 0.1904296875, -0.70361328125
75, 4258646998, -6.307268142700195, 1.7948192358016968, 7.09299898147583, -0.1974739283323288, -0.861867368221283, -1.2432661056518555, 0.597900390625, 0.19287109375, -0.70458984375
76, 4258663665, -6.312690258026123, 1.7916874885559082, 7.124741077423096, -0.0929228812456131, -1.0055162906646729, -1.302444338798523, 0.596435546875, 0.19091796875, -0.7021484375
77, 4258680332, -6.311191558837891, 1.7910569906234741, 7.086575508117676, -0.17720147967338562, -0.8865708112716675, -1.2390527725219727, 0.599365234375, 0.1923828125, -0.70361328125
78, 4258696999, -6.303648948669434, 1.8005317449569702, 7.102337837219238, -0.20099566876888275, -0.9525618553161621, -1.2797513008117676, 0.598876953125, 0.1904296875, -0.705078125
79, 4258713666, -6.316746234893799, 1.7814183235168457, 7.113041400909424, -0.10140066593885422, -0.8254075646400452, -1.2665222883224487, 0.599365234375, 0.19189453125, -0.705078125
80, 4258730333, -6.296159744262695, 1.7916779518127441, 7.111228942871094, -0.1515759527683258, -0.7258766889572144, -1.3192332983016968, 0.597412109375, 0.19287109375, -0.705078125
81, 4258747000, -6.3014349937438965, 1.787767767906189, 7.135147571563721, -0.2672429084777832, -0.8102321624755859, -1.4218761920928955, 0.596923828125, 0.19287109375, -0.70263671875
82, 4258763667, -6.313364028930664, 1.7747677564620972, 7.129639625549316, -0.37631455063819885, -0.956685483455658, -1.3973904848098755, 0.598388671875, 0.19287109375, -0.705810546875
83, 4258780334, -6.301169395446777, 1.7988789081573486, 7.121256351470947, -0.4716322422027588, -1.097734808921814, -1.5252618789672852, 0.597900390625, 0.189697265625, -0.701171875
84, 4258797001, -6.299986362457275, 1.77944815158844, 7.112418174743652, -0.4487856328487396, -1.0771291255950928, -1.5872186422348022, 0.599853515625, 0.1943359375, -0.70361328125
85, 4258813668, -6.2912468910217285, 1.7717537879943848, 7.11089563369751, -0.33489879965782166, -1.1025753021240234, -1.5347126722335815, 0.597900390625, 0.19091796875, -0.70263671875
86, 4258830335, -6.309616565704346, 1.769031286239624, 7.121494770050049, -0.23728886246681213, -0.8884789943695068, -1.4042164087295532, 0.598388671875, 0.19384765625, -0.703125
87, 4258847002, -6.308322906494141, 1.7614446878433228, 7.126357555389404, -0.16558609902858734, -0.7391952872276306, -1.314751148223877, 0.599853515625, 0.19384765625, -0.705810546875
88, 4258863669, -6.313206195831299, 1.7871816158294678, 7.105899810791016, -0.10519136488437653, -0.7362499237060547, -1.2417421340942383, 0.599365234375, 0.19140625, -0.70263671875
89, 4258880336, -6.308229923248291, 1.7793655395507812, 7.111250400543213, -0.08196064084768295, -0.7098047733306885, -1.2652161121368408, 0.596923828125, 0.19287109375, -0.70361328125
90, 4258897003, -6.312494277954102, 1.7826262712478638, 7.095302104949951, -0.06713088601827621, -0.7002127766609192, -1.294350504875183, 0.598388671875, 0.19189453125, -0.7021484375
91, 4258913670, -6.315471649169922, 1.7845975160598755, 7.117053031921387, -0.08044949918985367, -0.7158237099647522, -1.209342122077942, 0.599365234375, 0.19091796875, -0.7041015625
92, 4258930337, -6.308842658996582, 1.779313325881958, 7.109491348266602, -0.07220219820737839, -0.7500165700912476, -1.2699543237686157, 0.598876953125, 0.19287109375, -0.7041015625
93, 4258947004, -6.312323093414307, 1.7890760898590088, 7.119647979736328, -0.21259823441505432, -0.8619826436042786, -1.1960105895996094, 0.599365234375, 0.1923828125, -0.70458984375
94, 4258963671, -6.3111724853515625, 1.7800747156143188, 7.111670017242432, -0.05604058876633644, -0.8724838495254517, -1.186405897140503, 0.597412109375, 0.193359375, -0.70263671875
95, 4258980338, -6.298492908477783, 1.7887053489685059, 7.089898586273193, -0.07226623594760895, -0.8146247267723083, -1.1941792964935303, 0.598876953125, 0.19091796875, -0.703125
96, 4258997005, -6.311609745025635, 1.7982850074768066, 7.128693103790283, -0.11261904239654541, -0.8159437775611877, -1.2527172565460205, 0.598876953125, 0.190185546875, -0.7041015625
97, 4259013672, -6.3099870681762695, 1.787244200706482, 7.120524883270264, -0.06631127744913101, -0.8673356175422668, -1.1869053840637207, 0.598876953125, 0.19189453125, -0.705078125
98, 4259030339, -6.304811477661133, 1.8064743280410767, 7.119449138641357, -0.07400789111852646, -0.8368949890136719, -1.3278135061264038, 0.600341796875, 0.19287109375, -0.70556640625
99, 4259047006, -6.3092498779296875, 1.7850735187530518, 7.124727249145508, -0.13554240763187408, -0.8439385294914246, -1.345819354057312, 0.596435546875, 0.19189453125, -0.703125
100, 4259063673, -6.308807849884033, 1.773624062538147, 7.113925457000732, -0.12660357356071472, -0.9039617776870728, -1.3252010345458984, 0.599853515625, 0.18994140625, -0.70458984375
101, 4259080340, -6.299840927124023, 1.7858234643936157, 7.112440586090088, -0.10524258017539978, -0.8089001774787903, -1.2553550004959106, 0.597900390625, 0.19140625, -0.7021484375
102, 4259097007, -6.315075874328613, 1.7789310216903687, 7.124825477600098, -0.15740282833576202, -0.8642877340316772, -1.2179222106933594, 0.599853515625, 0.19140625, -0.706787109375
103, 4259113674, -6.310337543487549, 1.7779549360275269, 7.1036272048950195, -0.05969039723277092, -0.8798218965530396, -1.178939700126648, 0.600341796875, 0.193359375, -0.707275390625
104, 4259130341, -6.315336227416992, 1.7994459867477417, 7.108816146850586, 0.09453006833791733, -0.7779985666275024, -1.0632984638214111, 0.598876953125, 0.1923828125, -0.705810546875
105, 4259147008, -6.3229660987854, 1.7808480262756348, 7.10310173034668, 0.11536598950624466, -0.7518735527992249, -1.0354572534561157, 0.596923828125, 0.19091796875, -0.70458984375
106, 4259163675, -6.31262731552124, 1.7852797508239746, 7.084343910217285, 0.16175059974193573, -0.6164336204528809, -0.9960266351699829, 0.599365234375, 0.19091796875, -0.705078125
107, 4259180342, -6.285375595092773, 1.8404810428619385, 7.131668567657471, 0.1573324054479599, -0.7585456371307373, -0.9925177693367004, 0.598876953125, 0.190185546875, -0.7041015625
108, 4259197009, -6.2998738288879395, 1.7538987398147583, 7.115370273590088, 0.3581615686416626, -0.5611998438835144, -0.8870701789855957, 0.597412109375, 0.19189453125, -0.70458984375
109, 4259213676, -6.322470664978027, 1.8062912225723267, 7.090234756469727, 0.3204980790615082, -0.48708951473236084, -0.8644285798072815, 0.598388671875, 0.19091796875, -0.705078125
110, 4259230343, -6.2912983894348145, 1.8174115419387817, 7.120116710662842, 0.3673180937767029, -0.5489313006401062, -0.7936094403266907, 0.598876953125, 0.190185546875, -0.705078125
111, 4259247010, -6.306273937225342, 1.7773101329803467, 7.098996162414551, 0.628068208694458, -0.28533828258514404, -0.696755051612854, 0.600830078125, 0.19287109375, -0.705810546875
112, 4259263677, -6.329527378082275, 1.823300838470459, 7.111575126647949, 0.6560372710227966, -0.2164401113986969, -0.6374232769012451, 0.6005859375, 0.19091796875, -0.70361328125
113, 4259280344, -6.3268046379089355, 1.8293949365615845, 7.074163436889648, 0.49366554617881775, -0.35816800594329834, -0.7784979939460754, 0.599365234375, 0.1923828125, -0.7041015625
114, 4259297011, -6.31212854385376, 1.8031338453292847, 7.109006881713867, 0.25128617882728577, -0.6631896495819092, -0.9036160111427307, 0.598876953125, 0.19091796875, -0.70556640625
115, 4259313678, -6.296652317047119, 1.8370331525802612, 7.0950469970703125, 0.08172371983528137, -0.7995645403862, -1.0375193357467651, 0.597900390625, 0.189697265625, -0.705810546875
116, 4259330345, -6.292886257171631, 1.8262642621994019, 7.0928730964660645, 0.02919207513332367, -0.7440361380577087, -1.1254476308822632, 0.6015625, 0.189453125, -0.7041015625
117, 4259347012, -6.299198150634766, 1.824022889137268, 7.086919784545898, 0.1855960190296173, -0.5203732252120972, -1.088847041130066, 0.6005859375, 0.1904296875, -0.70263671875
118, 4259363679, -6.311933517456055, 1.8050320148468018, 7.109174728393555, 0.32017794251441956, -0.29645416140556335, -1.0316282510757446, 0.60107421875, 0.19140625, -0.699951171875
119, 4259380346, -6.305185794830322, 1.8298840522766113, 7.099996566772461, 0.23887044191360474, -0.3427363634109497, -1.0479308366775513, 0.6005859375, 0.187255859375, -0.705078125
120, 4259397013, -6.317447185516357, 1.826401710510254, 7.1102776527404785, 0.13681663572788239, -0.3854455351829529, -1.2130942344665527, 0.599853515625, 0.1904296875, -0.703125
121, 4259413680, -6.313613414764404, 1.8169119358062744, 7.117092609405518, 0.1338839828968048, -0.543988049030304, -1.2539080381393433, 0.599853515625, 0.189208984375, -0.70556640625
122, 4259430347, -6.310278415679932, 1.81599760055542, 7.094358921051025, -0.028442902490496635, -0.6513693332672119, -1.268865942955017, 0.600341796875, 0.18994140625, -0.7060546875
123, 4259447014, -6.307530403137207, 1.8325018882751465, 7.09182596206665, -0.0433494932949543, -0.5266355276107788, -1.316864252090454, 0.6005859375, 0.19091796875, -0.70263671875
124, 4259463681, -6.303582191467285, 1.8246989250183105, 7.1161112785339355, 0.006640092935413122, -0.6172148585319519, -1.4279848337173462, 0.598388671875, 0.187255859375, -0.70361328125
125, 4259480348, -6.3249101638793945, 1.8272361755371094, 7.092530250549316, -0.16407494246959686, -0.519195020198822, -1.481451392173767, 0.60009765625, 0.188720703125, -0.70263671875
126, 4259497015, -6.317245960235596, 1.8177850246429443, 7.093833923339844, -0.23792919516563416, -0.5774511694908142, -1.5045284032821655, 0.599609375, 0.189208984375, -0.7041015625
127, 4259513682, -6.329983711242676, 1.8051241636276245, 7.093563079833984, -0.32041487097740173, -0.6023210883140564, -1.6040467023849487, 0.6005859375, 0.189208984375, -0.705078125
128, 4259530349, -6.317416667938232, 1.8071733713150024, 7.10578727722168, -0.27930647134780884, -0.5962380170822144, -1.4743181467056274, 0.597900390625, 0.189208984375, -0.70361328125
129, 4259547016, -6.319675922393799, 1.8106777667999268, 7.100465774536133, -0.1808640956878662, -0.7379915714263916, -1.582045316696167, 0.59912109375, 0.189208984375, -0.700439453125
130, 4259563683, -6.318222999572754, 1.8146098852157593, 7.118103981018066, -0.2590084373950958, -0.6388576030731201, -1.4879697561264038, 0.598876953125, 0.189697265625, -0.70068359375
131, 4259580350, -6.315384864807129, 1.8088476657867432, 7.096774578094482, -0.19641098380088806, -0.7292320132255554, -1.5286684036254883, 0.599365234375, 0.19189453125, -0.70166015625
132, 4259597017, -6.333815097808838, 1.8026585578918457, 7.122202396392822, -0.22965624928474426, -0.6221836805343628, -1.43404221534729, 0.600341796875, 0.188720703125, -0.70654296875
133, 4259613684, -6.32087516784668, 1.8089559078216553, 7.111653804779053, -0.22656995058059692, -0.6971008777618408, -1.3636075258255005, 0.599365234375, 0.19189453125, -0.7041015625
134, 4259630351, -6.32698917388916, 1.8081432580947876, 7.08482551574707, -0.29277876019477844, -0.8206180930137634, -1.3302979469299316, 0.598876953125, 0.189697265625, -0.70361328125
135, 4259647018, -6.309293746948242, 1.820963740348816, 7.094753265380859, -0.14897626638412476, -0.8666185736656189, -1.438358187675476, 0.600341796875, 0.1904296875, -0.7041015625
136, 4259663685, -6.336390972137451, 1.8143872022628784, 7.11337423324585, -0.13070160150527954, -0.7922264337539673, -1.2659205198287964, 0.5986328125, 0.187744140625, -0.70361328125
137, 4259680352, -6.325271129608154, 1.824169397354126, 7.101651191711426, -0.024536965414881706, -0.7448044419288635, -1.2334179878234863, 0.598876953125, 0.1904296875, -0.703125
138, 4259697019, -6.311485767364502, 1.8251111507415771, 7.121568202972412, 0.08840863406658173, -0.6325440406799316, -1.1222331523895264, 0.598876953125, 0.19189453125, -0.70556640625
139, 4259713686, -6.320658206939697, 1.8119920492172241, 7.097636699676514, 0.1837519109249115, -0.672615110874176, -1.1920279264450073, 0.599365234375, 0.189697265625, -0.70361328125
140, 4259730353, -6.316918849945068, 1.8077510595321655, 7.088825225830078, 0.12258878350257874, -0.6724997758865356, -1.0929707288742065, 0.59912109375, 0.188720703125, -0.703125
141, 4259747020, -6.319218635559082, 1.8309296369552612, 7.124515056610107, 0.03651730716228485, -0.788666307926178, -1.048417568206787, 0.599609375, 0.189208984375, -0.703125
142, 4259763687, -6.324277877807617, 1.8255951404571533, 7.092895984649658, 0.0027085428591817617, -0.8692565560340881, -1.176506519317627, 0.59912109375, 0.189208984375, -0.70263671875
143, 4259780354, -6.3102545738220215, 1.8283731937408447, 7.095820903778076, -0.042875658720731735, -0.8704604506492615, -1.1581295728683472, 0.60107421875, 0.188720703125, -0.70166015625
144, 4259797021, -6.302387714385986, 1.835083246231079, 7.114083290100098, 0.02438969351351261, -0.8762873411178589, -1.1364611387252808, 0.599365234375, 0.189208984375, -0.7041015625
145, 4259813688, -6.329771041870117, 1.8223607540130615, 7.096989154815674, -0.015149910002946854, -0.8315033912658691, -1.1550942659378052, 0.60107421875, 0.189208984375, -0.701171875
146, 4259830355, -6.303936004638672, 1.8273351192474365, 7.098219394683838, -0.15124298632144928, -0.9635881781578064, -1.318426489830017, 0.599365234375, 0.189697265625, -0.70361328125
147, 4259847022, -6.3024468421936035, 1.8303542137145996, 7.073233127593994, -0.2921896278858185, -0.9412153363227844, -1.3443081378936768, 0.599609375, 0.188720703125, -0.7021484375
148, 4259863689, -6.311899185180664, 1.8226871490478516, 7.087690353393555, -0.22370129823684692, -0.8787332773208618, -1.3117032051086426, 0.598388671875, 0.188720703125, -0.70166015625
149, 4259880356, -6.316365718841553, 1.81937837600708, 7.093522548675537, -0.27392783761024475, -0.7945828437805176, -1.3759143352508545, 0.6005859375, 0.1904296875, -0.699951171875
150, 4259897023, -6.308905601501465, 1.8178848028182983, 7.089723110198975, -0.39981427788734436, -0.9617953300476074, -1.4039857387542725, 0.59912109375, 0.188720703125, -0.70263671875
151, 4259913690, -6.316225528717041, 1.808156967163086, 7.067129611968994, -0.3385359048843384, -0.9262706637382507, -1.4492948055267334, 0.598876953125, 0.189697265625, -0.70166015625
152, 4259930357, -6.326939582824707, 1.8145499229431152, 7.088120460510254, -0.31877562403678894, -0.9110310077667236, -1.3471382856369019, 0.597900390625, 0.188720703125, -0.7021484375
153, 4259947024, -6.313601970672607, 1.830202341079712, 7.093789100646973, -0.2521570026874542, -0.9358751773834229, -1.3033405542373657, 0.60009765625, 0.188720703125, -0.70263671875
154, 4259963691, -6.310929298400879, 1.80152428150177, 7.092650890350342, -0.12183961272239685, -0.8557074666023254, -1.2311640977859497, 0.60205078125, 0.19091796875, -0.7041015625
155, 4259980358, -6.315095901489258, 1.8211373090744019, 7.087060451507568, -0.07023002207279205, -0.8278536796569824, -1.2031182050704956, 0.597900390625, 0.188720703125, -0.7021484375
156, 4259997025, -6.308618068695068, 1.8103913068771362, 7.103394031524658, -0.06108628585934639, -0.7873599529266357, -1.1917332410812378, 0.6005859375, 0.189208984375, -0.70361328125
157, 4260013692, -6.315450668334961, 1.8274602890014648, 7.090156555175781, -0.031900614500045776, -0.9160382151603699, -1.273629903793335, 0.6005859375, 0.189208984375, -0.700927734375
158, 4260030359, -6.308833122253418, 1.8025143146514893, 7.10508394241333, 0.05050184205174446, -0.7337141633033752, -1.129660964012146, 0.598876953125, 0.189697265625, -0.7021484375
159, 4260047026, -6.31512975692749, 1.8296270370483398, 7.077530860900879, 0.05987609550356865, -0.6762905716896057, -1.1971248388290405, 0.598388671875, 0.189208984375, -0.70361328125
160, 4260063693, -6.302083969116211, 1.8327158689498901, 7.086490631103516, -0.06784804910421371, -0.6576317548751831, -1.3261104822158813, 0.600341796875, 0.189697265625, -0.705078125
161, 4260080360, -6.308513641357422, 1.8006659746170044, 7.095287322998047, 0.056200671941041946, -0.5844818353652954, -1.20072340965271, 0.60009765625, 0.188720703125, -0.70361328125
162, 4260097027, -6.310354232788086, 1.8304061889648438, 7.0974931716918945, 0.03654291853308678, -0.722764790058136, -1.2752562761306763, 0.60107421875, 0.1904296875, -0.70361328125
163, 4260113694, -6.316075801849365, 1.8293019533157349, 7.078279972076416, -0.025727957487106323, -0.6348363757133484, -1.3070930242538452, 0.598876953125, 0.189208984375, -0.70166015625
164, 4260130361, -6.308205604553223, 1.83515465259552, 7.111550331115723, -0.03599864989519119, -0.796452522277832, -1.2308824062347412, 0.598876953125, 0.188232421875, -0.7041015625
165, 4260147028, -6.313482761383057, 1.8341847658157349, 7.10474157333374, -0.11625602096319199, -0.7970543503761292, -1.2949652671813965, 0.598876953125, 0.188720703125, -0.70263671875
166, 4260163695, -6.329601764678955, 1.8206989765167236, 7.094427585601807, -0.10694582015275955, -0.7173348665237427, -1.2918531894683838, 0.599609375, 0.188720703125, -0.70166015625
167, 4260180362, -6.309588432312012, 1.832664132118225, 7.0831379890441895, -0.12860135734081268, -0.5255597829818726, -1.347855567932129, 0.60205078125, 0.188232421875, -0.70166015625
168, 4260197029, -6.3169355392456055, 1.8436298370361328, 7.08997106552124, -0.03775312006473541, -0.4813779294490814, -1.3210774660110474, 0.6015625, 0.188232421875, -0.703125
169, 4260213696, -6.324314117431641, 1.8366862535476685, 7.087330341339111, -0.06373720616102219, -0.6030253767967224, -1.4343369007110596, 0.598388671875, 0.187744140625, -0.70361328125
170, 4260230363, -6.314709186553955, 1.8277537822723389, 7.091164588928223, -0.17364127933979034, -0.7177318930625916, -1.4674283266067505, 0.595947265625, 0.189697265625, -0.70068359375
171, 4260247030, -6.3141326904296875, 1.8185503482818604, 7.084722995758057, -0.2819445729255676, -0.8166096210479736, -1.4512795209884644, 0.60107421875, 0.189208984375, -0.70166015625
172, 4260263697, -6.341986179351807, 1.8140853643417358, 7.113214015960693, -0.29879772663116455, -0.8132544755935669, -1.434669852256775, 0.6015625, 0.189453125, -0.700927734375
173, 4260280364, -6.321233749389648, 1.8173246383666992, 7.105123996734619, -0.34725695848464966, -0.8127293586730957, -1.3956999778747559, 0.599609375, 0.187744140625, -0.700927734375
174, 4260297031, -6.320724964141846, 1.8286186456680298, 7.098394393920898, -0.4118521809577942, -0.8347561955451965, -1.505539894104004, 0.6005859375, 0.187744140625, -0.70556640625
175, 4260313698, -6.327065467834473, 1.8186719417572021, 7.109650611877441, -0.40192729234695435, -0.8959577679634094, -1.4726917743682861, 0.599609375, 0.189697265625, -0.70263671875
176, 4260330365, -6.320151329040527, 1.8273274898529053, 7.071558475494385, -0.39867451786994934, -0.9319949150085449, -1.4712703227996826, 0.599609375, 0.187744140625, -0.70361328125
177, 4260347032, -6.319090366363525, 1.8170174360275269, 7.110865592956543, -0.528710126876831, -0.9835405349731445, -1.6184022426605225, 0.6015625, 0.187255859375, -0.7021484375
178, 4260363699, -6.297245502471924, 1.8313266038894653, 7.101712226867676, -0.7260944843292236, -1.2360434532165527, -1.711133360862732, 0.598388671875, 0.189208984375, -0.70166015625
179, 4260380366, -6.3085174560546875, 1.826759696006775, 7.10214376449585, -0.8833051919937134, -1.254689335823059, -1.8261469602584839, 0.599365234375, 0.1904296875, -0.70361328125
180, 4260397033, -6.319596767425537, 1.824728012084961, 7.085142135620117, -1.0579197406768799, -1.419020414352417, -1.9840365648269653, 0.599365234375, 0.18994140625, -0.70263671875
181, 4260413700, -6.303304195404053, 1.8488008975982666, 7.079731464385986, -1.2869229316711426, -1.529360055923462, -2.247706413269043, 0.60107421875, 0.19091796875, -0.703125
182, 4260430367, -6.321313381195068, 1.805383563041687, 7.102874279022217, -1.4664421081542969, -1.692269206047058, -2.383479356765747, 0.599609375, 0.189208984375, -0.70361328125
183, 4260447034, -6.298226356506348, 1.778303861618042, 7.115756988525391, -1.0280296802520752, -1.3452812433242798, -2.083643913269043, 0.600341796875, 0.1904296875, -0.705078125
184, 4260463701, -6.314146518707275, 1.805884599685669, 7.109655857086182, -0.6782370805740356, -0.7990906834602356, -1.881163239479065, 0.599365234375, 0.189697265625, -0.703125
185, 4260480368, -6.315298557281494, 1.802574872970581, 7.122745037078857, -0.47386056184768677, -0.7345465421676636, -1.8250327110290527, 0.598388671875, 0.19189453125, -0.701171875
186, 4260497035, -6.316755771636963, 1.795915126800537, 7.1067352294921875, -0.5420286655426025, -0.8008321523666382, -1.8070781230926514, 0.599853515625, 0.19091796875, -0.70166015625
187, 4260513702, -6.314327716827393, 1.795309066772461, 7.1149821281433105, -0.6081991791725159, -0.9412538409233093, -1.7374117374420166, 0.600341796875, 0.19189453125, -0.70458984375
188, 4260530369, -6.322216033935547, 1.7973252534866333, 7.098895072937012, -0.591256320476532, -0.9867677092552185, -1.766251802444458, 0.597900390625, 0.19140625, -0.703125
189, 4260547036, -6.30814790725708, 1.798506736755371, 7.1025543212890625, -0.40242668986320496, -0.7934685945510864, -1.6433619260787964, 0.596923828125, 0.19287109375, -0.70361328125
190, 4260563703, -6.302789211273193, 1.7902755737304688, 7.107903957366943, -0.36083170771598816, -0.6518688797950745, -1.5903310775756836, 0.597412109375, 0.193359375, -0.7041015625
191, 4260580370, -6.32304048538208, 1.7815415859222412, 7.10269021987915, -0.24023433029651642, -0.6574652194976807, -1.614573359489441, 0.596923828125, 0.190673828125, -0.7001953125
192, 4260597037, -6.318485260009766, 1.7874882221221924, 7.104583263397217, -0.18000604212284088, -0.7658708691596985, -1.4380378723144531, 0.595947265625, 0.19091796875, -0.701171875
193, 4260613704, -6.30005407333374, 1.7980461120605469, 7.093129634857178, -0.08440665155649185, -0.717309296131134, -1.4563125371932983, 0.598388671875, 0.1923828125, -0.70556640625
194, 4260630371, -6.320074081420898, 1.7726646661758423, 7.111357688903809, -0.1820806860923767, -0.7208182215690613, -1.384468913078308, 0.60107421875, 0.19140625, -0.70263671875
195, 4260647038, -6.327132225036621, 1.774207592010498, 7.100467681884766, -0.10389791429042816, -0.6440185308456421, -1.3309767246246338, 0.60009765625, 0.19140625, -0.70068359375
196, 4260663705, -6.302823543548584, 1.7739558219909668, 7.0883870124816895, -0.011743423528969288, -0.5977107286453247, -1.2468518018722534, 0.6005859375, 0.1923828125, -0.70068359375
197, 4260680372, -6.3296427726745605, 1.8050639629364014, 7.112792491912842, 0.08659014105796814, -0.4550352692604065, -1.2332772016525269, 0.600341796875, 0.19189453125, -0.703125
198, 4260697039, -6.316823482513428, 1.8008309602737427, 7.09636926651001, 0.11247178167104721, -0.6173685193061829, -1.1212983131408691, 0.599365234375, 0.1923828125, -0.7021484375
199, 4260713706, -6.310890197753906, 1.785407543182373, 7.1156487464904785, 0.1591508984565735, -0.5896170735359192, -1.0400420427322388, 0.599365234375, 0.1923828125, -0.70361328125
200, 4260730373, -6.339792728424072, 1.8121058940887451, 7.1088104248046875, 0.05591892823576927, -0.6874321103096008, -1.0051192045211792, 0.598388671875, 0.19189453125, -0.703125
201, 4260747040, -6.312217712402344, 1.8107101917266846, 7.079843997955322, -0.05463189259171486, -0.8983398675918579, -1.084416151046753, 0.599853515625, 0.1904296875, -0.703125
202, 4260763707, -6.315608501434326, 1.7694385051727295, 7.122720718383789, 0.04552017152309418, -0.9206229448318481, -1.0979012250900269, 0.598876953125, 0.19189453125, -0.70068359375
203, 4260780374, -6.327740669250488, 1.779908299446106, 7.090595722198486, 0.23490047454833984, -0.7221500277519226, -0.8458081483840942, 0.599365234375, 0.19287109375, -0.7021484375
204, 4260797041, -6.312158584594727, 1.783578634262085, 7.1266374588012695, 0.4457697868347168, -0.6120794415473938, -0.6270500421524048, 0.6005859375, 0.1923828125, -0.70068359375
205, 4260813708, -6.33726692199707, 1.7809144258499146, 7.110118389129639, 0.6234323978424072, -0.4815060496330261, -0.5544125437736511, 0.598876953125, 0.190185546875, -0.703125
206, 4260830375, -6.320564270019531, 1.8168712854385376, 7.092626571655273, 0.7436711192131042, -0.2856968641281128, -0.435723215341568, 0.600341796875, 0.19189453125, -0.70361328125
207, 4260847042, -6.340451240539551, 1.8382110595703125, 7.094648838043213, 0.7505480647087097, -0.31472882628440857, -0.46433258056640625, 0.599853515625, 0.19091796875, -0.70166015625
208, 4260863709, -6.308229446411133, 1.8331750631332397, 7.092996120452881, 0.5519984364509583, -0.5801020264625549, -0.7048101425170898, 0.6015625, 0.188232421875, -0.7021484375
209, 4260880376, -6.313587188720703, 1.8407188653945923, 7.0824809074401855, 0.3147096335887909, -0.7596470713615417, -0.8591267466545105, 0.60009765625, 0.189697265625, -0.70263671875
210, 4260897043, -6.321166038513184, 1.839625597000122, 7.101693630218506, 0.09410747140645981, -0.9213912487030029, -1.1135377883911133, 0.599853515625, 0.18994140625, -0.7041015625
211, 4260913710, -6.317551612854004, 1.80596923828125, 7.107056140899658, 0.05210263282060623, -0.8831130266189575, -1.0993354320526123, 0.60107421875, 0.19091796875, -0.703125
212, 4260930377, -6.3225297927856445, 1.8167392015457153, 7.101008892059326, 0.08058394491672516, -0.9567495584487915, -1.085965633392334, 0.60107421875, 0.18994140625, -0.701171875
213, 4260947044, -6.335347652435303, 1.813125491142273, 7.084988594055176, -0.05866588279604912, -0.8902589678764343, -1.1707820892333984, 0.598388671875, 0.189697265625, -0.7041015625
214, 4260963711, -6.3229660987854, 1.811014175415039, 7.075336933135986, 0.04572506994009018, -0.8553488850593567, -1.1918741464614868, 0.599609375, 0.189208984375, -0.7021484375
215, 4260980378, -6.3144755363464355, 1.8357352018356323, 7.100070953369141, -0.030351046472787857, -0.9089178442955017, -1.176762580871582, 0.60009765625, 0.18994140625, -0.700439453125
216, 4260997045, -6.320405006408691, 1.8241019248962402, 7.097105026245117, -0.112093985080719, -0.831580400466919, -1.26631760597229, 0.599853515625, 0.189697265625, -0.705078125
217, 4261013712, -6.318216323852539, 1.8364040851593018, 7.10795783996582, -0.2173493653535843, -0.7767819762229919, -1.3771436214447021, 0.6005859375, 0.189697265625, -0.705078125
218, 4261030379, -6.312789440155029, 1.827540636062622, 7.08831787109375, -0.28454428911209106, -0.9140918254852295, -1.423630714416504, 0.597412109375, 0.188720703125, -0.701171875
219, 4261047046, -6.306250095367432, 1.8290005922317505, 7.1023783683776855, -0.31389641761779785, -0.937347948551178, -1.4623057842254639, 0.59814453125, 0.186767578125, -0.70263671875
220, 4261063713, -6.321320056915283, 1.8145273923873901, 7.0898051261901855, -0.2114456444978714, -0.858255922794342, -1.4245655536651611, 0.598876953125, 0.189208984375, -0.70263671875
221, 4261080380, -6.319461345672607, 1.8287206888198853, 7.083252906799316, -0.2601354122161865, -0.9640108942985535, -1.4597190618515015, 0.60009765625, 0.1904296875, -0.701171875
222, 4261097047, -6.299445152282715, 1.8327562808990479, 7.092096328735352, -0.30320316553115845, -0.9102626442909241, -1.4720900058746338, 0.599609375, 0.187744140625, -0.70166015625
223, 4261113714, -6.320054054260254, 1.8254826068878174, 7.107353687286377, -0.33156922459602356, -0.9305222630500793, -1.5214327573776245, 0.5986328125, 0.187744140625, -0.70361328125
224, 4261130381, -6.3118205070495605, 1.820713758468628, 7.11863374710083, -0.4274888038635254, -0.8819221258163452, -1.5217018127441406, 0.597412109375, 0.190185546875, -0.70166015625
225, 4261147048, -6.309412479400635, 1.8129167556762695, 7.098618030548096, -0.3211832046508789, -0.8730599284172058, -1.625010371208191, 0.599365234375, 0.18994140625, -0.7021484375
226, 4261163715, -6.305872440338135, 1.796815037727356, 7.095016956329346, -0.275797575712204, -0.6831932067871094, -1.5385676622390747, 0.599609375, 0.18994140625, -0.70263671875
227, 4261180382, -6.316015720367432, 1.8120566606521606, 7.100287437438965, -0.11644814908504486, -0.5763241648674011, -1.4241174459457397, 0.598876953125, 0.188720703125, -0.703125
228, 4261197049, -6.318532466888428, 1.8057448863983154, 7.087165355682373, -0.28722083568573, -0.7405784130096436, -1.4601929187774658, 0.6005859375, 0.18994140625, -0.7021484375
229, 4261213716, -6.328394412994385, 1.8161557912826538, 7.105295658111572, -0.2057211846113205, -0.6460803747177124, -1.3882979154586792, 0.598388671875, 0.1904296875, -0.7041015625
230, 4261230383, -6.313289165496826, 1.8303570747375488, 7.084994792938232, -0.13503015041351318, -0.8350251317024231, -1.3041088581085205, 0.599609375, 0.189208984375, -0.7021484375
231, 4261247050, -6.318264961242676, 1.8181301355361938, 7.101102352142334, -0.24270592629909515, -0.7867580652236938, -1.3004721403121948, 0.601318359375, 0.19140625, -0.705078125
232, 4261263717, -6.304177761077881, 1.81003999710083, 7.093957901000977, -0.20590049028396606, -0.927384614944458, -1.3253804445266724, 0.6005859375, 0.189453125, -0.701171875
233, 4261280384, -6.303402423858643, 1.8007712364196777, 7.073424816131592, -0.21935997903347015, -0.7700970768928528, -1.2616560459136963, 0.598876953125, 0.189208984375, -0.703125
234, 4261297051, -6.30539083480835, 1.8411725759506226, 7.102038383483887, -0.15020568668842316, -0.9044229388237, -1.2159501314163208, 0.60107421875, 0.189453125, -0.703125
235, 4261313718, -6.298553943634033, 1.8208619356155396, 7.096240997314453, -0.1381293088197708, -0.8235763907432556, -1.3802685737609863, 0.598876953125, 0.189697265625, -0.70361328125
236, 4261330385, -6.318411827087402, 1.8178342580795288, 7.106714725494385, -0.09425473213195801, -0.7277976274490356, -1.3255852460861206, 0.599365234375, 0.19091796875, -0.703125
237, 4261347052, -6.30692195892334, 1.8308663368225098, 7.098212242126465, -0.13590098917484283, -0.6916965842247009, -1.3367140293121338, 0.598876953125, 0.189697265625, -0.70166015625
238, 4261363719, -6.308123588562012, 1.8140051364898682, 7.101153373718262, -0.22618573904037476, -0.6857928037643433, -1.395110845565796, 0.599365234375, 0.19091796875, -0.701171875
239, 4261380386, -6.3108625411987305, 1.8177915811538696, 7.1181488037109375, -0.08928587287664413, -0.7003793120384216, -1.338545322418213, 0.60009765625, 0.19189453125, -0.701171875
240, 4261397053, -6.307117462158203, 1.8231602907180786, 7.1040873527526855, -0.08635321259498596, -0.7837870717048645, -1.4167152643203735, 0.6005859375, 0.188232421875, -0.70166015625
241, 4261413720, -6.314309120178223, 1.8030433654785156, 7.078812599182129, -0.09775086492300034, -0.7549087405204773, -1.3615583181381226, 0.598876953125, 0.188232421875, -0.703125
242, 4261430387, -6.3131103515625, 1.8337526321411133, 7.0948991775512695, -0.053914736956357956, -0.7187308073043823, -1.367590069770813, 0.599853515625, 0.18994140625, -0.70458984375
243, 4261447054, -6.320077896118164, 1.8254823684692383, 7.112255573272705, -0.12072546035051346, -0.6976003050804138, -1.4001182317733765, 0.597900390625, 0.190185546875, -0.70263671875
244, 4261463721, -6.324512958526611, 1.814018964767456, 7.084107398986816, -0.21618397533893585, -0.7025947570800781, -1.50470769405365, 0.59912109375, 0.189697265625, -0.700439453125
245, 4261480388, -6.315735816955566, 1.826818823814392, 7.092727184295654, -0.24565140902996063, -0.8568856120109558, -1.591086506843567, 0.597900390625, 0.190185546875, -0.70166015625
246, 4261497055, -6.3150858879089355, 1.7957924604415894, 7.1087646484375, -0.18688306212425232, -0.700123131275177, -1.5693285465240479, 0.597900390625, 0.189697265625, -0.70263671875
247, 4261513722, -6.327147006988525, 1.8014271259307861, 7.101443767547607, -0.14399459958076477, -0.6282923817634583, -1.532881498336792, 0.599365234375, 0.189697265625, -0.70458984375
248, 4261530389, -6.325621604919434, 1.8143101930618286, 7.103215217590332, -0.2555251121520996, -0.6556083559989929, -1.5439592599868774, 0.60009765625, 0.188232421875, -0.700927734375
249, 4261547056, -6.326905250549316, 1.8190845251083374, 7.1013641357421875, -0.27210932970046997, -0.687470555305481, -1.6210150718688965, 0.6015625, 0.189453125, -0.70263671875
250, 4261563723, -6.325632095336914, 1.812640905380249, 7.117782115936279, -0.34472134709358215, -0.5494308471679688, -1.6170450448989868, 0.597900390625, 0.189697265625, -0.70068359375
251, 4261580390, -6.319063663482666, 1.8011900186538696, 7.086452960968018, -0.2631576657295227, -0.5612766742706299, -1.5938013792037964, 0.6005859375, 0.18994140625, -0.70263671875
252, 4261597057, -6.332229137420654, 1.8063360452651978, 7.096976280212402, -0.35755327343940735, -0.6277673244476318, -1.539771556854248, 0.597900390625, 0.1904296875, -0.703125
253, 4261613724, -6.323221683502197, 1.7997621297836304, 7.0888671875, -0.25427010655403137, -0.8458594679832458, -1.5047205686569214, 0.599853515625, 0.19091796875, -0.70166015625
254, 4261630391, -6.341350078582764, 1.7920663356781006, 7.094109058380127, -0.3005010187625885, -1.0363155603408813, -1.3442697525024414, 0.60107421875, 0.1904296875, -0.70361328125
255, 4261647058, -6.321168422698975, 1.8145606517791748, 7.140509128570557, -0.16621361672878265, -0.9162431955337524, -1.2827609777450562, 0.599609375, 0.189208984375, -0.70166015625
256, 4261663725, -6.321089267730713, 1.7824867963790894, 7.102633476257324, 0.05340887978672981, -0.757354736328125, -1.1403158903121948, 0.60107421875, 0.189453125, -0.700927734375
257, 4261680392, -6.311269760131836, 1.8285902738571167, 7.086252689361572, 0.01811458170413971, -0.6993675827980042, -1.0858376026153564, 0.60009765625, 0.189697265625, -0.701171875
258, 4261697059, -6.322568893432617, 1.829365611076355, 7.099585056304932, -0.028378868475556374, -0.7525651454925537, -1.2157068252563477, 0.6005859375, 0.188232421875, -0.7021484375
259, 4261713726, -6.3186140060424805, 1.825513243675232, 7.105686664581299, -0.21751582622528076, -0.8309655785560608, -1.4428400993347168, 0.6005859375, 0.189208984375, -0.7021484375
260, 4261730393, -6.318211555480957, 1.817545771598816, 7.085474014282227, -0.24090026319026947, -0.8665162324905396, -1.4417645931243896, 0.599853515625, 0.189697265625, -0.70458984375
261, 4261747060, -6.316025257110596, 1.815130352973938, 7.107051372528076, -0.23983734846115112, -0.8725094795227051, -1.5512205362319946, 0.599853515625, 0.189208984375, -0.70556640625
262, 4261763727, -6.322334289550781, 1.8141690492630005, 7.109414577484131, -0.24891704320907593, -0.783659040927887, -1.4672235250473022, 0.599365234375, 0.19189453125, -0.698974609375
263, 4261780394, -6.3282084465026855, 1.8101716041564941, 7.1014790534973145, -0.2471497505903244, -0.7695848345756531, -1.3961611986160278, 0.6005859375, 0.189697265625, -0.70166015625
264, 4261797061, -6.30500602722168, 1.8119860887527466, 7.101223945617676, -0.14364883303642273, -0.6467975378036499, -1.4184826612472534, 0.598876953125, 0.189208984375, -0.70166015625
265, 4261813728, -6.32447624206543, 1.8218148946762085, 7.095550060272217, -0.1279098242521286, -0.6226831078529358, -1.3411961793899536, 0.599609375, 0.189208984375, -0.703125
266, 4261830395, -6.318524360656738, 1.8274904489517212, 7.093254566192627, -0.1367846131324768, -0.5473818182945251, -1.4010018110275269, 0.59912109375, 0.187744140625, -0.70263671875
267, 4261847062, -6.3328657150268555, 1.8157703876495361, 7.09365177154541, -0.04400261864066124, -0.570279598236084, -1.360597848892212, 0.6005859375, 0.1904296875, -0.699462890625
268, 4261863729, -6.340381622314453, 1.8164371252059937, 7.0903215408325195, -0.08774910122156143, -0.6425841450691223, -1.3828551769256592, 0.6025390625, 0.19140625, -0.7021484375
269, 4261880396, -6.309695720672607, 1.8311387300491333, 7.0749831199646, -0.15997691452503204, -0.5982101559638977, -1.4074690341949463, 0.599609375, 0.18994140625, -0.7021484375
270, 4261897063, -6.313361167907715, 1.8105136156082153, 7.10542631149292, -0.2210376113653183, -0.7900364995002747, -1.4611021280288696, 0.60107421875, 0.189208984375, -0.700927734375
271, 4261913730, -6.319357395172119, 1.8061634302139282, 7.085449695587158, -0.20180246233940125, -0.7828906178474426, -1.4125276803970337, 0.60107421875, 0.188720703125, -0.70361328125
272, 4261930397, -6.325389385223389, 1.805371642112732, 7.101696968078613, -0.14398178458213806, -0.6148328185081482, -1.464547038078308, 0.59912109375, 0.189208984375, -0.70166015625
273, 4261947064, -6.321236610412598, 1.8092224597930908, 7.098048210144043, -0.09390896558761597, -0.5200274586677551, -1.4153193235397339, 0.601318359375, 0.19189453125, -0.7041015625
274, 4261963731, -6.316551685333252, 1.8307386636734009, 7.086782932281494, -0.024831512942910194, -0.4240567088127136, -1.381485104560852, 0.599609375, 0.18994140625, -0.70068359375
275, 4261980398, -6.343775749206543, 1.8030126094818115, 7.111746311187744, -0.08681425452232361, -0.36591583490371704, -1.4725124835968018, 0.60107421875, 0.19189453125, -0.698974609375
276, 4261997065, -6.3400349617004395, 1.8141632080078125, 7.088285446166992, -0.12988199293613434, -0.4136066734790802, -1.4405990839004517, 0.60302734375, 0.18994140625, -0.700439453125
277, 4262013732, -6.350575923919678, 1.7844724655151367, 7.088654518127441, -0.06746385246515274, -0.46935272216796875, -1.3059660196304321, 0.60107421875, 0.18994140625, -0.700439453125
278, 4262030399, -6.336090564727783, 1.8116720914840698, 7.104285717010498, 0.08446428924798965, -0.4093293845653534, -1.2059355974197388, 0.598876953125, 0.19140625, -0.70361328125
279, 4262047066, -6.328795433044434, 1.797921895980835, 7.120678901672363, 0.141119584441185, -0.43355900049209595, -1.1181095838546753, 0.60009765625, 0.1904296875, -0.70166015625
280, 4262063733, -6.32595157623291, 1.8157373666763306, 7.098565101623535, 0.15708909928798676, -0.4810320734977722, -1.1359360218048096, 0.6025390625, 0.19091796875, -0.700927734375
281, 4262080400, -6.321042060852051, 1.8205102682113647, 7.0881733894348145, 0.053434498608112335, -0.5473049879074097, -1.1151641607284546, 0.60009765625, 0.188232421875, -0.698486328125
282, 4262097067, -6.328614711761475, 1.8205790519714355, 7.10618257522583, 0.05284539982676506, -0.5447309017181396, -1.1562212705612183, 0.599609375, 0.19091796875, -0.699951171875
283, 4262113734, -6.348662376403809, 1.8239089250564575, 7.0806660652160645, 0.04201123118400574, -0.6587842106819153, -1.2609772682189941, 0.6015625, 0.189453125, -0.70263671875
284, 4262130401, -6.319821834564209, 1.8140732049942017, 7.068944931030273, -0.06059964746236801, -0.7057579159736633, -1.1648911237716675, 0.59912109375, 0.18994140625, -0.70068359375
285, 4262147068, -6.324228286743164, 1.8178973197937012, 7.094541072845459, -0.09125804156064987, -0.7705324292182922, -1.2245302200317383, 0.599365234375, 0.18994140625, -0.7021484375
286, 4262163735, -6.3356428146362305, 1.8046677112579346, 7.098632335662842, 0.02227664552628994, -0.6222605109214783, -1.2278088331222534, 0.599609375, 0.189697265625, -0.7021484375
287, 4262180402, -6.327419281005859, 1.8354097604751587, 7.066381931304932, -0.004123644437640905, -0.5883365273475647, -1.133349061012268, 0.599609375, 0.189208984375, -0.70166015625
288, 4262197069, -6.332212448120117, 1.8321181535720825, 7.0719313621521, -0.07133136689662933, -0.7222396731376648, -1.22579824924469, 0.60009765625, 0.188232421875, -0.700927734375
289, 4262213736, -6.337282180786133, 1.8331025838851929, 7.106004238128662, -0.08512380719184875, -0.7884997725486755, -1.3106915950775146, 0.6005859375, 0.188720703125, -0.699462890625
290, 4262230403, -6.330604076385498, 1.8279165029525757, 7.082275390625, -0.07916885614395142, -0.8652865886688232, -1.2259390354156494, 0.60107421875, 0.189453125, -0.700927734375
291, 4262247070, -6.336370468139648, 1.8247958421707153, 7.058659553527832, -0.035601649433374405, -1.0170034170150757, -1.1609981060028076, 0.60107421875, 0.189208984375, -0.70166015625
292, 4262263737, -6.333970546722412, 1.7973154783248901, 7.070918560028076, -0.060971032828092575, -0.9658036828041077, -1.0992202758789062, 0.599365234375, 0.1923828125, -0.7001953125
293, 4262280404, -6.336402893066406, 1.8166450262069702, 7.092651844024658, -0.10986566543579102, -0.9748194217681885, -1.1318507194519043, 0.60009765625, 0.1904296875, -0.703125
294, 4262297071, -6.328238010406494, 1.8130563497543335, 7.082355499267578, -0.06419823318719864, -0.9396147131919861, -1.1435046195983887, 0.599365234375, 0.19140625, -0.703125
295, 4262313738, -6.348261833190918, 1.8313090801239014, 7.0719451904296875, -0.09389615058898926, -0.8719204068183899, -1.2067934274673462, 0.60107421875, 0.1904296875, -0.70166015625
296, 4262330405, -6.336805820465088, 1.8366272449493408, 7.098475456237793, -0.10264289379119873, -0.8521088361740112, -1.1570537090301514, 0.6025390625, 0.189453125, -0.701171875
297, 4262347072, -6.340577602386475, 1.8230247497558594, 7.087804794311523, -0.1613471955060959, -0.9495395421981812, -1.2128509283065796, 0.60205078125, 0.188232421875, -0.700927734375
298, 4262363739, -6.335059642791748, 1.8228819370269775, 7.094377517700195, -0.12122491747140884, -0.9266675710678101, -1.1919766664505005, 0.6005859375, 0.189453125, -0.699951171875
299, 4262380406, -6.332261085510254, 1.8129857778549194, 7.0716753005981445, -0.2347019463777542, -1.095877766609192, -1.109196424484253, 0.6005859375, 0.18994140625, -0.699951171875
300, 4262397073, -6.3410491943359375, 1.814841628074646, 7.082406044006348, -0.1300612837076187, -1.1845617294311523, -1.073620319366455, 0.6015625, 0.189453125, -0.703125
301, 4262413740, -6.3229899406433105, 1.806647777557373, 7.092270374298096, -0.23275542259216309, -1.2137986421585083, -1.1283162832260132, 0.59814453125, 0.188720703125, -0.700439453125
302, 4262430407, -6.310901165008545, 1.8555258512496948, 7.084794998168945, -0.30075716972351074, -1.1258702278137207, -1.2732586860656738, 0.6005859375, 0.188720703125, -0.70263671875
303, 4262447074, -6.3174262046813965, 1.812828779220581, 7.083858489990234, -0.1634090095758438, -1.1394193172454834, -1.2174227237701416, 0.599609375, 0.189697265625, -0.7021484375
304, 4262463741, -6.328171253204346, 1.8228708505630493, 7.094791412353516, -0.1179080605506897, -0.9124139547348022, -1.1540313959121704, 0.5986328125, 0.189208984375, -0.70068359375
305, 4262480408, -6.319393634796143, 1.8334331512451172, 7.085015296936035, -0.1019001305103302, -0.8566423654556274, -1.072519063949585, 0.6015625, 0.189453125, -0.701171875
306, 4262497075, -6.322701454162598, 1.8181307315826416, 7.0977349281311035, -0.045027121901512146, -0.7553824186325073, -1.1036126613616943, 0.598876953125, 0.188720703125, -0.70361328125
307, 4262513742, -6.320773601531982, 1.8257763385772705, 7.075537204742432, -0.02234707958996296, -0.8686547875404358, -1.1126925945281982, 0.599609375, 0.189208984375, -0.7021484375
308, 4262530409, -6.31859016418457, 1.830176591873169, 7.0681610107421875, -0.06544045358896255, -0.860868513584137, -1.1137043237686157, 0.599609375, 0.188720703125, -0.70263671875
309, 4262547076, -6.33355712890625, 1.8395668268203735, 7.090695858001709, 0.008868398144841194, -0.878272294998169, -1.1259983777999878, 0.60009765625, 0.189697265625, -0.70263671875
310, 4262563743, -6.3213114738464355, 1.8233368396759033, 7.085105895996094, 0.20183449983596802, -0.650972306728363, -1.1806045770645142, 0.598876953125, 0.189697265625, -0.7021484375
311, 4262580410, -6.323983192443848, 1.8229589462280273, 7.0779829025268555, 0.2880212068557739, -0.7065520286560059, -1.1523921489715576, 0.60107421875, 0.19140625, -0.701171875
312, 4262597077, -6.306635856628418, 1.8222874402999878, 7.088255405426025, 0.23775626718997955, -0.7359424829483032, -1.0578172206878662, 0.60205078125, 0.188232421875, -0.7021484375
313, 4262613744, -6.304137229919434, 1.8547258377075195, 7.086250305175781, 0.07082551717758179, -0.8653891682624817, -1.1331443786621094, 0.60009765625, 0.186767578125, -0.703125
314, 4262630411, -6.3173089027404785, 1.8203269243240356, 7.091969013214111, 0.08680784702301025, -0.9177669882774353, -1.0594565868377686, 0.599609375, 0.188232421875, -0.703125
315, 4262647078, -6.322099208831787, 1.8284542560577393, 7.087392330169678, 0.19362559914588928, -0.8099887371063232, -1.1085047721862793, 0.598876953125, 0.188720703125, -0.7041015625
316, 4262663745, -6.329390525817871, 1.8314056396484375, 7.088824272155762, 0.4128575026988983, -0.49842312932014465, -1.186213731765747, 0.59912109375, 0.189208984375, -0.70166015625
317, 4262680412, -6.33256721496582, 1.8444570302963257, 7.086411476135254, 0.5757415294647217, -0.22325308620929718, -1.1567336320877075, 0.60009765625, 0.186767578125, -0.70166015625
318, 4262697079, -6.323554992675781, 1.8463715314865112, 7.106222152709961, 0.7015126347541809, -0.16999147832393646, -1.1987384557724, 0.60107421875, 0.188232421875, -0.701171875
319, 4262713746, -6.323358058929443, 1.8324787616729736, 7.081821918487549, 0.9613664150238037, -0.05595094710588455, -1.1811680793762207, 0.60009765625, 0.187255859375, -0.700439453125
320, 4262730413, -6.321918487548828, 1.8355357646942139, 7.110537052154541, 0.6929452419281006, -0.2836862802505493, -1.1097854375839233, 0.60009765625, 0.186767578125, -0.70166015625
321, 4262747080, -6.331722736358643, 1.8462401628494263, 7.0679779052734375, 0.6657573580741882, -0.5958410501480103, -1.019347071647644, 0.60302734375, 0.186279296875, -0.700439453125
322, 4262763747, -6.346202373504639, 1.8370181322097778, 7.070933818817139, 0.941939115524292, -0.38162922859191895, -0.9306247234344482, 0.60302734375, 0.184814453125, -0.701416015625
323, 4262780414, -6.340585231781006, 1.8121085166931152, 7.086106300354004, 1.3459280729293823, -0.2626326084136963, -0.6080454587936401, 0.599609375, 0.185302734375, -0.700439453125
324, 4262797081, -6.32946252822876, 1.84198796749115, 7.0800323486328125, 1.3470550775527954, -0.30562350153923035, -0.5243047475814819, 0.60205078125, 0.185791015625, -0.698974609375
325, 4262813748, -6.331826210021973, 1.8766236305236816, 7.046195030212402, 0.9136242270469666, -0.5523250699043274, -0.5615456700325012, 0.6025390625, 0.186767578125, -0.699462890625
326, 4262830415, -6.319610595703125, 1.884170413017273, 7.074884414672852, 0.9559236168861389, -0.5316044092178345, -0.40325915813446045, 0.60107421875, 0.185302734375, -0.700927734375
327, 4262847082, -6.320549011230469, 1.9006038904190063, 7.080950736999512, 0.8627061247825623, -0.43148431181907654, -0.5003312826156616, 0.60107421875, 0.186279296875, -0.699951171875
328, 4262863749, -6.332057476043701, 1.9087055921554565, 7.062281608581543, 0.6454464197158813, -0.5978131890296936, -0.767228364944458, 0.60205078125, 0.184814453125, -0.700927734375
329, 4262880416, -6.339229583740234, 1.900557041168213, 7.064751148223877, 0.13552320003509521, -0.7520913481712341, -0.9535353183746338, 0.601806640625, 0.184326171875, -0.697509765625
330, 4262897083, -6.324418067932129, 1.8700027465820312, 7.05307674407959, -0.02702139876782894, -0.8488048911094666, -0.9992411136627197, 0.60107421875, 0.18359375, -0.700439453125
331, 4262913750, -6.323525428771973, 1.8636188507080078, 7.042102336883545, -0.04114680364727974, -0.8355631232261658, -1.1222972869873047, 0.6005859375, 0.18359375, -0.698974609375
332, 4262930417, -6.327993392944336, 1.8906974792480469, 7.064823150634766, 0.06517792493104935, -0.8459746837615967, -1.0953398942947388, 0.6005859375, 0.18359375, -0.700439453125
333, 4262947084, -6.324840545654297, 1.9024879932403564, 7.067829132080078, 0.05611101910471916, -0.8386109471321106, -1.0707646608352661, 0.60107421875, 0.185302734375, -0.699951171875
334, 4262963751, -6.329202175140381, 1.8913081884384155, 7.070549488067627, 0.03775952383875847, -0.7811489701271057, -1.1045604944229126, 0.6005859375, 0.18310546875, -0.697998046875
335, 4262980418, -6.319260597229004, 1.8691380023956299, 7.06393575668335, 0.04933646321296692, -0.824255108833313, -0.9916340708732605, 0.60107421875, 0.1826171875, -0.700927734375
336, 4262997085, -6.328159332275391, 1.9070234298706055, 7.086531639099121, -0.051840104162693024, -0.8742254376411438, -1.092099905014038, 0.6015625, 0.181640625, -0.701416015625
337, 4263013752, -6.335933685302734, 1.8807710409164429, 7.060499668121338, -0.12983079254627228, -0.9674045443534851, -1.1315562725067139, 0.60107421875, 0.1826171875, -0.701416015625
338, 4263030419, -6.3294267654418945, 1.884339451789856, 7.079647064208984, -0.08562324941158295, -0.8982630372047424, -1.1498949527740479, 0.6025390625, 0.18359375, -0.701416015625
339, 4263047086, -6.321932792663574, 1.8949345350265503, 7.069545269012451, -0.11191469430923462, -0.9314826130867004, -1.1318252086639404, 0.60107421875, 0.185791015625, -0.700439453125
340, 4263063753, -6.317339897155762, 1.895904302597046, 7.084020137786865, -0.08320286124944687, -0.8796682357788086, -1.1957546472549438, 0.6015625, 0.18212890625, -0.700927734375
341, 4263080420, -6.336085796356201, 1.8507002592086792, 7.090567588806152, -0.09782771021127701, -0.8532358407974243, -1.1296864748001099, 0.6015625, 0.18359375, -0.701416015625
342, 4263097087, -6.334582328796387, 1.889602780342102, 7.075522422790527, -0.02079751342535019, -0.7588018774986267, -1.0471752882003784, 0.60205078125, 0.18359375, -0.701416015625
343, 4263113754, -6.330561637878418, 1.911734700202942, 7.081929683685303, 0.06248858943581581, -0.804366946220398, -0.9909298419952393, 0.60107421875, 0.18408203125, -0.699462890625
344, 4263130421, -6.336373805999756, 1.9010124206542969, 7.056565761566162, -0.046423010528087616, -0.8667593598365784, -1.188493251800537, 0.602783203125, 0.18212890625, -0.700927734375
345, 4263147088, -6.32994270324707, 1.8811856508255005, 7.046168327331543, 0.030472712591290474, -0.66301029920578, -1.2211495637893677, 0.60009765625, 0.18310546875, -0.700439453125
346, 4263163755, -6.334197521209717, 1.860667109489441, 7.060115814208984, 0.3427427411079407, -0.4453408122062683, -0.9946179389953613, 0.602294921875, 0.184326171875, -0.698974609375
347, 4263180422, -6.322371006011963, 1.8741847276687622, 7.051348686218262, 0.34935081005096436, -0.2018536776304245, -0.9682624340057373, 0.60107421875, 0.18212890625, -0.699951171875
348, 4263197089, -6.334951877593994, 1.8946679830551147, 7.067474842071533, 0.23799960315227509, -0.25414201617240906, -0.9683905243873596, 0.6005859375, 0.18408203125, -0.699951171875
349, 4263213756, -6.3460211753845215, 1.8980751037597656, 7.090583801269531, 0.10854022204875946, -0.43673497438430786, -1.0038899183273315, 0.60107421875, 0.18310546875, -0.699951171875
350, 4263230423, -6.33612060546875, 1.9030051231384277, 7.066579341888428, -0.031093815341591835, -0.502149760723114, -1.082661509513855, 0.6005859375, 0.18310546875, -0.699462890625
351, 4263247090, -6.339433193206787, 1.8994169235229492, 7.077089786529541, -0.243166983127594, -0.7180905342102051, -1.1148312091827393, 0.602783203125, 0.183837890625, -0.697509765625
352, 4263263757, -6.350027084350586, 1.8847078084945679, 7.073376655578613, -0.3491395115852356, -0.6721925139427185, -1.3196942806243896, 0.60205078125, 0.18310546875, -0.700439453125
353, 4263280424, -6.343552589416504, 1.8831437826156616, 7.0569329261779785, -0.38490766286849976, -0.7473401427268982, -1.3684097528457642, 0.599609375, 0.18212890625, -0.697021484375
354, 4263297091, -6.337553977966309, 1.900648593902588, 7.082383632659912, -0.3297507166862488, -0.8016903400421143, -1.333935022354126, 0.600830078125, 0.18115234375, -0.699462890625
355, 4263313758, -6.337756156921387, 1.897033452987671, 7.061373233795166, -0.35802707076072693, -0.8490225076675415, -1.3790004253387451, 0.60009765625, 0.18310546875, -0.700927734375
356, 4263330425, -6.340859889984131, 1.9034292697906494, 7.065227031707764, -0.40284934639930725, -0.8058139085769653, -1.3637993335723877, 0.602294921875, 0.18359375, -0.700439453125
357, 4263347092, -6.332331657409668, 1.8807497024536133, 7.034616947174072, -0.3910546898841858, -0.6868301630020142, -1.4153834581375122, 0.602294921875, 0.181640625, -0.698486328125
358, 4263363759, -6.336630821228027, 1.876761794090271, 7.056609153747559, -0.40874022245407104, -0.5769387483596802, -1.342809796333313, 0.601318359375, 0.18115234375, -0.699951171875
359, 4263380426, -6.335968971252441, 1.899139165878296, 7.0494384765625, -0.2636571526527405, -0.557895839214325, -1.37705397605896, 0.603759765625, 0.184814453125, -0.698486328125
360, 4263397093, -6.328891754150391, 1.8977439403533936, 7.055554389953613, -0.34347909688949585, -0.5118569731712341, -1.4372822046279907, 0.602294921875, 0.181640625, -0.698486328125
361, 4263413760, -6.327211856842041, 1.8968790769577026, 7.052757263183594, -0.43449386954307556, -0.7350972890853882, -1.5262095928192139, 0.601806640625, 0.18310546875, -0.699951171875
362, 4263430427, -6.330544471740723, 1.8874188661575317, 7.056610107421875, -0.3510860800743103, -0.7863227128982544, -1.4399973154067993, 0.60107421875, 0.18359375, -0.699951171875
363, 4263447094, -6.334676265716553, 1.8873686790466309, 7.064581871032715, -0.4330083429813385, -0.6452479958534241, -1.5997052192687988, 0.602294921875, 0.18310546875, -0.699951171875
364, 4263463761, -6.347678184509277, 1.9200520515441895, 7.040261745452881, -0.5423873066902161, -0.7460210919380188, -1.6891318559646606, 0.60107421875, 0.18359375, -0.699951171875
365, 4263480428, -6.334909915924072, 1.8891578912734985, 7.041077136993408, -0.6894810795783997, -0.8417870402336121, -1.8378649950027466, 0.601806640625, 0.18359375, -0.697509765625
366, 4263497095, -6.344285011291504, 1.8894497156143188, 7.054335117340088, -0.9749218821525574, -1.0467270612716675, -2.010558605194092, 0.6015625, 0.18212890625, -0.700439453125
367, 4263513762, -6.340348720550537, 1.8801847696304321, 7.076230525970459, -1.0743247270584106, -1.1590899229049683, -2.1638121604919434, 0.603271484375, 0.18212890625, -0.699951171875
368, 4263530429, -6.341624736785889, 1.8585114479064941, 7.064148902893066, -1.1443755626678467, -1.2485551834106445, -2.13055419921875, 0.60205078125, 0.18310546875, -0.701416015625
369, 4263547096, -6.324420928955078, 1.8888816833496094, 7.070920944213867, -1.297372817993164, -1.463240623474121, -2.271026849746704, 0.60009765625, 0.185302734375, -0.699462890625
370, 4263563763, -6.346996784210205, 1.8948618173599243, 7.08149528503418, -1.4893144369125366, -1.6992746591567993, -2.408426284790039, 0.59912109375, 0.1845703125, -0.7021484375
371, 4263580430, -6.332112789154053, 1.8547430038452148, 7.059715270996094, -1.5281047821044922, -1.6849697828292847, -2.4296462535858154, 0.599609375, 0.186279296875, -0.700439453125
372, 4263597097, -6.332245349884033, 1.8776729106903076, 7.064758777618408, -1.459962248802185, -1.5536150932312012, -2.3895623683929443, 0.6005859375, 0.186279296875, -0.700439453125
373, 4263613764, -6.3223137855529785, 1.8664026260375977, 7.073797702789307, -1.277920126914978, -1.5171939134597778, -2.3749122619628906, 0.60107421875, 0.188232421875, -0.700927734375
374, 4263630431, -6.319089412689209, 1.8564801216125488, 7.089019298553467, -1.231343388557434, -1.4160749912261963, -2.2972030639648438, 0.6005859375, 0.184814453125, -0.701416015625
375, 4263647098, -6.336730480194092, 1.838200569152832, 7.105838298797607, -1.1005135774612427, -1.08983314037323, -2.26886248588562, 0.60107421875, 0.188232421875, -0.700927734375
376, 4263663765, -6.316054344177246, 1.8481335639953613, 7.096242904663086, -0.9255788922309875, -0.7640908360481262, -2.2705914974212646, 0.60205078125, 0.188720703125, -0.698974609375
377, 4263680432, -6.340452194213867, 1.820227026939392, 7.108819007873535, -0.8638268113136292, -0.6736780405044556, -2.189847469329834, 0.60107421875, 0.186767578125, -0.699951171875
378, 4263697099, -6.333456039428711, 1.838710069656372, 7.07231330871582, -0.7310633063316345, -0.597633957862854, -2.1064014434814453, 0.6025390625, 0.186279296875, -0.699951171875
379, 4263713766, -6.335475444793701, 1.815409541130066, 7.088568210601807, -0.7611069679260254, -0.5994012355804443, -2.0390398502349854, 0.60107421875, 0.187744140625, -0.700927734375
380, 4263730433, -6.335274696350098, 1.8273046016693115, 7.070011615753174, -0.6611918807029724, -0.6029741168022156, -1.912179946899414, 0.60009765625, 0.189208984375, -0.698486328125
381, 4263747100, -6.332169055938721, 1.823604941368103, 7.08220911026001, -0.6761112809181213, -0.6968703269958496, -1.869816780090332, 0.60009765625, 0.189697265625, -0.699951171875
382, 4263763767, -6.3255462646484375, 1.8322396278381348, 7.081639766693115, -0.6162158250808716, -0.7016726732254028, -1.7773674726486206, 0.60205078125, 0.187744140625, -0.700927734375
383, 4263780434, -6.3330206871032715, 1.8146867752075195, 7.076588153839111, -0.4899197518825531, -0.6639067530632019, -1.7362592220306396, 0.59814453125, 0.187255859375, -0.700439453125
384, 4263797101, -6.3407883644104, 1.8367722034454346, 7.065184116363525, -0.3860474228858948, -0.6389856934547424, -1.6165200471878052, 0.59814453125, 0.188720703125, -0.70068359375
385, 4263813768, -6.340366363525391, 1.8226696252822876, 7.07689094543457, -0.33906090259552, -0.5772973895072937, -1.5791254043579102, 0.60205078125, 0.18994140625, -0.700927734375
386, 4263830435, -6.346760272979736, 1.8230117559432983, 7.081951141357422, -0.34881940484046936, -0.5568841695785522, -1.5956072807312012, 0.6015625, 0.188720703125, -0.700927734375
387, 4263847102, -6.351250171661377, 1.819510817527771, 7.081274032592773, -0.2598280608654022, -0.5980693697929382, -1.6280969381332397, 0.60009765625, 0.189208984375, -0.700439453125
388, 4263863769, -6.344539642333984, 1.8205283880233765, 7.0824713706970215, -0.3937183916568756, -0.5769773125648499, -1.536774754524231, 0.6005859375, 0.189453125, -0.700439453125
389, 4263880436, -6.3328399658203125, 1.8113994598388672, 7.0863237380981445, -0.28189337253570557, -0.6647263765335083, -1.5587888956069946, 0.6015625, 0.18994140625, -0.700439453125
390, 4263897103, -6.339064598083496, 1.807847261428833, 7.087031364440918, -0.21253417432308197, -0.7036833167076111, -1.4444154500961304, 0.6005859375, 0.186767578125, -0.701171875
391, 4263913770, -6.335052013397217, 1.808463454246521, 7.052064895629883, -0.10887958109378815, -0.6547630429267883, -1.3255853652954102, 0.6015625, 0.187255859375, -0.698486328125
392, 4263930437, -6.3422770500183105, 1.8192260265350342, 7.081539630889893, -0.057321224361658096, -0.6739854216575623, -1.2676877975463867, 0.5986328125, 0.189697265625, -0.699951171875
393, 4263947104, -6.331544876098633, 1.8278958797454834, 7.076952934265137, -0.09923640638589859, -0.6023594737052917, -1.3150712251663208, 0.60205078125, 0.188232421875, -0.701171875
394, 4263963771, -6.349886894226074, 1.827478289604187, 7.058679580688477, -0.02726471796631813, -0.5194639563560486, -1.20528244972229, 0.60107421875, 0.188232421875, -0.698486328125
395, 4263980438, -6.3438849449157715, 1.819757103919983, 7.081981182098389, -0.005993371829390526, -0.640253484249115, -1.2934285402297974, 0.599609375, 0.188232421875, -0.699462890625
396, 4263997105, -6.346626281738281, 1.8245967626571655, 7.075681686401367, -0.011820261366665363, -0.5566664338111877, -1.4051254987716675, 0.59912109375, 0.18994140625, -0.699462890625
397, 4264013772, -6.341451644897461, 1.8030058145523071, 7.0669169425964355, -0.13456913828849792, -0.6807599663734436, -1.2969757318496704, 0.60205078125, 0.1904296875, -0.700927734375
398, 4264030439, -6.341033458709717, 1.8108018636703491, 7.096851825714111, -0.09895467013120651, -0.6808496117591858, -1.2652289867401123, 0.6015625, 0.1904296875, -0.701171875
399, 4264047106, -6.33912992477417, 1.8037240505218506, 7.071352005004883, -0.08791559189558029, -0.7537433505058289, -1.1972273588180542, 0.6005859375, 0.1904296875, -0.697998046875
400, 4264063773, -6.344316005706787, 1.8192540407180786, 7.069758415222168, 0.12575195729732513, -0.7281562685966492, -1.1239365339279175, 0.60107421875, 0.188232421875, -0.696044921875
401, 4264080440, -6.357027530670166, 1.8179595470428467, 7.048786163330078, 0.05007923021912575, -0.8891577124595642, -1.025468349456787, 0.60205078125, 0.189453125, -0.697998046875
402, 4264097107, -6.354450702667236, 1.8228569030761719, 7.060150623321533, 0.0690966546535492, -1.0811376571655273, -0.9788278341293335, 0.60205078125, 0.187744140625, -0.700927734375
403, 4264113774, -6.348893642425537, 1.8323301076889038, 7.09218168258667, 0.03209911286830902, -1.1106818914413452, -0.9675965309143066, 0.6005859375, 0.185791015625, -0.70166015625
404, 4264130441, -6.329948425292969, 1.846442699432373, 7.073719501495361, 0.23694950342178345, -0.8730985522270203, -0.8916037082672119, 0.6005859375, 0.189453125, -0.700439453125
405, 4264147108, -6.364745140075684, 1.8179560899734497, 7.049272537231445, 0.23775626718997955, -0.7673948407173157, -0.7621698975563049, 0.60009765625, 0.189697265625, -0.701171875
406, 4264163775, -6.32230806350708, 1.828072428703308, 7.081095218658447, 0.16346663236618042, -0.8246648907661438, -0.7834924459457397, 0.599609375, 0.188720703125, -0.699951171875
407, 4264180442, -6.334633827209473, 1.8291434049606323, 7.082161903381348, 0.15669208765029907, -0.8355247378349304, -0.8616752624511719, 0.60009765625, 0.188232421875, -0.699951171875
408, 4264197109, -6.336778163909912, 1.8222447633743286, 7.058269023895264, 0.12803147733211517, -0.9508971571922302, -0.8867117166519165, 0.603515625, 0.185791015625, -0.700439453125
409, 4264213776, -6.350310802459717, 1.8322489261627197, 7.110592365264893, 0.2905312478542328, -0.8042131662368774, -0.8166096806526184, 0.60107421875, 0.188720703125, -0.700439453125
410, 4264230443, -6.338024616241455, 1.8354005813598633, 7.06459903717041, 0.3353150486946106, -0.7353917956352234, -0.8305813670158386, 0.60107421875, 0.189453125, -0.700439453125
411, 4264247110, -6.344823360443115, 1.8409843444824219, 7.060908794403076, 0.19248583912849426, -0.9670073986053467, -0.8235635161399841, 0.60107421875, 0.189208984375, -0.697509765625
412, 4264263777, -6.32112455368042, 1.8408740758895874, 7.067224025726318, 0.13548476994037628, -1.023521900177002, -0.8917316794395447, 0.60107421875, 0.188232421875, -0.698974609375
413, 4264280444, -6.330199241638184, 1.8493335247039795, 7.059760093688965, 0.2957562804222107, -0.8260735869407654, -0.822462260723114, 0.60107421875, 0.186767578125, -0.701416015625
414, 4264297111, -6.325850486755371, 1.8524404764175415, 7.088169097900391, 0.359659880399704, -0.6998541951179504, -0.8977250456809998, 0.6025390625, 0.187255859375, -0.698974609375
415, 4264313778, -6.33388090133667, 1.8516874313354492, 7.064197063446045, 0.284025639295578, -0.6397668719291687, -0.9300740361213684, 0.599609375, 0.186767578125, -0.701171875
416, 4264330445, -6.335056304931641, 1.8653753995895386, 7.066082000732422, 0.07653713971376419, -0.6425585746765137, -1.0023784637451172, 0.60107421875, 0.186279296875, -0.70166015625
417, 4264347112, -6.327252388000488, 1.8539602756500244, 7.061314105987549, 0.06535720825195312, -0.6014886498451233, -1.144413948059082, 0.599609375, 0.186767578125, -0.699951171875
418, 4264363779, -6.329897880554199, 1.8603885173797607, 7.0631890296936035, -0.258163183927536, -0.9811071753501892, -1.2954776287078857, 0.60107421875, 0.187255859375, -0.698974609375
419, 4264380446, -6.335453510284424, 1.8583366870880127, 7.072054386138916, -0.26536038517951965, -1.0122523307800293, -1.4381020069122314, 0.6015625, 0.188232421875, -0.698974609375
420, 4264397113, -6.34030818939209, 1.853832721710205, 7.073686122894287, -0.23120585083961487, -0.8767483830451965, -1.3348186016082764, 0.5986328125, 0.185302734375, -0.701171875
421, 4264413780, -6.3284783363342285, 1.8452452421188354, 7.066178798675537, -0.23312678933143616, -0.8003456592559814, -1.3842511177062988, 0.6025390625, 0.187744140625, -0.700927734375
422, 4264430447, -6.317111492156982, 1.856241226196289, 7.066126346588135, -0.23349815607070923, -0.7707757353782654, -1.3544635772705078, 0.6005859375, 0.187255859375, -0.700439453125
423, 4264447114, -6.330880165100098, 1.8671419620513916, 7.057351589202881, -0.25914931297302246, -0.8255228996276855, -1.3088730573654175, 0.6005859375, 0.18994140625, -0.701171875
424, 4264463781, -6.321352005004883, 1.8474715948104858, 7.046376705169678, -0.2676527202129364, -0.7950182557106018, -1.5290783643722534, 0.60009765625, 0.188720703125, -0.699951171875
425, 4264480448, -6.338860034942627, 1.8465995788574219, 7.074061393737793, -0.19806301593780518, -0.736800491809845, -1.4829497337341309, 0.60009765625, 0.188232421875, -0.699462890625
426, 4264497115, -6.33608341217041, 1.8676084280014038, 7.0551934242248535, -0.32259196043014526, -0.6414060592651367, -1.480452537536621, 0.60205078125, 0.186767578125, -0.697998046875
427, 4264513782, -6.344629287719727, 1.837863802909851, 7.079225540161133, -0.24032394587993622, -0.6046389937400818, -1.4529060125350952, 0.6015625, 0.185302734375, -0.701416015625
428, 4264530449, -6.339480876922607, 1.8426934480667114, 7.06013298034668, -0.16516351699829102, -0.5779762864112854, -1.4629846811294556, 0.6005859375, 0.186767578125, -0.700439453125
429, 4264547116, -6.333617210388184, 1.8478760719299316, 7.073945999145508, -0.1923641711473465, -0.6807727217674255, -1.4134624004364014, 0.6015625, 0.184814453125, -0.700439453125
430, 4264563783, -6.338319778442383, 1.8540983200073242, 7.055757999420166, -0.21056202054023743, -0.7169635891914368, -1.5244680643081665, 0.6015625, 0.186767578125, -0.699462890625
431, 4264580450, -6.340331077575684, 1.8607094287872314, 7.064659118652344, -0.21755428612232208, -0.6927211284637451, -1.488494873046875, 0.6015625, 0.186767578125, -0.700439453125
432, 4264597117, -6.336900234222412, 1.8476436138153076, 7.093119144439697, -0.34296679496765137, -0.7752578854560852, -1.4323259592056274, 0.6015625, 0.187744140625, -0.70166015625
433, 4264613784, -6.33925724029541, 1.8531787395477295, 7.061089515686035, -0.2957499027252197, -0.821117639541626, -1.561273455619812, 0.6025390625, 0.186767578125, -0.700927734375
434, 4264630451, -6.3400797843933105, 1.855041265487671, 7.0493621826171875, -0.27618172764778137, -0.8050327301025391, -1.4406886100769043, 0.60107421875, 0.187255859375, -0.700927734375
435, 4264647118, -6.338936805725098, 1.8341903686523438, 7.086050510406494, -0.3042404353618622, -0.7415260672569275, -1.5449836254119873, 0.60205078125, 0.186767578125, -0.699951171875
436, 4264663785, -6.336767196655273, 1.8472501039505005, 7.056715965270996, -0.2636059522628784, -0.6572859883308411, -1.5370181798934937, 0.6005859375, 0.187744140625, -0.70166015625
437, 4264680452, -6.342861175537109, 1.843012809753418, 7.0729546546936035, -0.29137009382247925, -0.5816259980201721, -1.6077347993850708, 0.6005859375, 0.187255859375, -0.697998046875
438, 4264697119, -6.337953567504883, 1.827479362487793, 7.080801486968994, -0.3398549258708954, -0.7744768857955933, -1.5310760736465454, 0.60302734375, 0.187744140625, -0.697998046875
439, 4264713786, -6.334478855133057, 1.8348689079284668, 7.05604362487793, -0.4213801622390747, -0.8057371377944946, -1.5725430250167847, 0.6025390625, 0.188720703125, -0.700439453125
440, 4264730453, -6.333662986755371, 1.8277240991592407, 7.0750250816345215, -0.4044373035430908, -0.9292030930519104, -1.5713647603988647, 0.6025390625, 0.188232421875, -0.699951171875
441, 4264747120, -6.344359397888184, 1.8391069173812866, 7.061394214630127, -0.44641658663749695, -0.8922696709632874, -1.5218170881271362, 0.60009765625, 0.186767578125, -0.699951171875
442, 4264763787, -6.346625328063965, 1.8348013162612915, 7.066789150238037, -0.4666121304035187, -0.9141940474510193, -1.5637320280075073, 0.6015625, 0.188232421875, -0.699951171875
443, 4264780454, -6.337249755859375, 1.8527448177337646, 7.0584516525268555, -0.5965837836265564, -0.989251971244812, -1.5782415866851807, 0.60205078125, 0.185791015625, -0.698486328125
444, 4264797121, -6.337503910064697, 1.841295599937439, 7.0767107009887695, -0.5017655491828918, -0.9759718179702759, -1.6502004861831665, 0.6005859375, 0.189453125, -0.699462890625
445, 4264813788, -6.312135219573975, 1.835984230041504, 7.0593485832214355, -0.5187467336654663, -0.9666999578475952, -1.5526032447814941, 0.6015625, 0.187744140625, -0.701171875
446, 4264830455, -6.328921794891357, 1.8435732126235962, 7.086099624633789, -0.510025680065155, -0.8588321208953857, -1.5864248275756836, 0.6015625, 0.187255859375, -0.70166015625
447, 4264847122, -6.342615127563477, 1.8333442211151123, 7.08134126663208, -0.3653651773929596, -0.8177622556686401, -1.5670875310897827, 0.60107421875, 0.186767578125, -0.698486328125
448, 4264863789, -6.32978630065918, 1.835306167602539, 7.078132629394531, -0.26524510979652405, -0.9094685316085815, -1.6057753562927246, 0.6005859375, 0.187255859375, -0.699462890625
449, 4264880456, -6.338223457336426, 1.8334505558013916, 7.0510711669921875, -0.4091116487979889, -0.9178439378738403, -1.5098942518234253, 0.6015625, 0.188720703125, -0.700439453125
450, 4264897123, -6.339226245880127, 1.8395965099334717, 7.067401885986328, -0.39826464653015137, -0.9591699838638306, -1.5607609748840332, 0.60107421875, 0.188720703125, -0.70166015625
451, 4264913790, -6.328077793121338, 1.8234364986419678, 7.074610233306885, -0.325063556432724, -0.9093020558357239, -1.5972464084625244, 0.60009765625, 0.188720703125, -0.699951171875
452, 4264930457, -6.332606315612793, 1.8284106254577637, 7.08270263671875, -0.33963721990585327, -0.8252155780792236, -1.558276653289795, 0.60205078125, 0.188720703125, -0.700927734375
453, 4264947124, -6.331907749176025, 1.8269257545471191, 7.082730770111084, -0.28322523832321167, -0.7677791714668274, -1.6013188362121582, 0.60400390625, 0.188232421875, -0.7021484375
454, 4264963791, -6.342131614685059, 1.8546096086502075, 7.0911478996276855, -0.40772852301597595, -0.8061339855194092, -1.7244516611099243, 0.6005859375, 0.188720703125, -0.701171875
455, 4264980458, -6.330766677856445, 1.8251996040344238, 7.088997840881348, -0.44503340125083923, -0.7383884191513062, -1.7495520114898682, 0.6005859375, 0.18994140625, -0.699462890625
456, 4264997125, -6.331101894378662, 1.8083722591400146, 7.073837757110596, -0.48087841272354126, -0.7822118401527405, -1.7260268926620483, 0.60009765625, 0.188232421875, -0.700439453125
457, 4265013792, -6.339397430419922, 1.8042293787002563, 7.07989501953125, -0.4337638318538666, -0.7195247411727905, -1.7067790031433105, 0.599609375, 0.189697265625, -0.701171875
458, 4265030459, -6.338003158569336, 1.8334788084030151, 7.070624351501465, -0.3922072649002075, -0.8097966909408569, -1.7231327295303345, 0.6005859375, 0.18994140625, -0.70166015625
459, 4265047126, -6.332258224487305, 1.8242067098617554, 7.04507303237915, -0.41781994700431824, -0.8587809801101685, -1.6307734251022339, 0.599609375, 0.1904296875, -0.700439453125
460, 4265063793, -6.339067459106445, 1.8301807641983032, 7.091818332672119, -0.5333844423294067, -0.8964443802833557, -1.7420092821121216, 0.60205078125, 0.189453125, -0.698486328125
461, 4265080460, -6.337864875793457, 1.8122013807296753, 7.069805145263672, -0.5858776569366455, -0.9307014346122742, -1.7713871002197266, 0.597900390625, 0.188720703125, -0.70068359375
462, 4265097127, -6.341734409332275, 1.8189074993133545, 7.069062232971191, -0.5480989813804626, -0.9391921162605286, -1.8078725337982178, 0.60009765625, 0.189697265625, -0.70166015625
463, 4265113794, -6.35440731048584, 1.8098704814910889, 7.083445072174072, -0.5266611576080322, -1.0253660678863525, -1.7634600400924683, 0.603515625, 0.18896484375, -0.701416015625
464, 4265130461, -6.336982250213623, 1.8093284368515015, 7.067214488983154, -0.5177606344223022, -0.9970382452011108, -1.6499954462051392, 0.60302734375, 0.1904296875, -0.701171875
465, 4265147128, -6.337616920471191, 1.8069429397583008, 7.1019978523254395, -0.38663655519485474, -0.7636170983314514, -1.5516175031661987, 0.60302734375, 0.18994140625, -0.699462890625
466, 4265163795, -6.346232891082764, 1.8277087211608887, 7.08937406539917, -0.3361794650554657, -0.5274038910865784, -1.556368350982666, 0.60205078125, 0.189453125, -0.700439453125
467, 4265180462, -6.337393283843994, 1.8161636590957642, 7.087130546569824, -0.260417103767395, -0.552862823009491, -1.5463281869888306, 0.598876953125, 0.190185546875, -0.700439453125
468, 4265197129, -6.338328838348389, 1.8125468492507935, 7.085587978363037, -0.2946741282939911, -0.7983351349830627, -1.598219871520996, 0.6015625, 0.19091796875, -0.700439453125
469, 4265213796, -6.347189903259277, 1.8198343515396118, 7.056375503540039, -0.3633417785167694, -0.9396018981933594, -1.5172836780548096, 0.6015625, 0.1904296875, -0.70068359375
470, 4265230463, -6.333085536956787, 1.8024886846542358, 7.074153423309326, -0.3215674161911011, -0.9525106549263, -1.4507801532745361, 0.6025390625, 0.19189453125, -0.70166015625
471, 4265247130, -6.337794303894043, 1.8190993070602417, 7.056633949279785, -0.22422638535499573, -0.9413948655128479, -1.4590659141540527, 0.60107421875, 0.188720703125, -0.700927734375
472, 4265263797, -6.338865280151367, 1.8044407367706299, 7.060936450958252, -0.2865036427974701, -0.8626484870910645, -1.3191821575164795, 0.60009765625, 0.18994140625, -0.698974609375
473, 4265280464, -6.340519905090332, 1.8117066621780396, 7.072270393371582, -0.27706536650657654, -0.7903054356575012, -1.3527730703353882, 0.6015625, 0.189453125, -0.698974609375
474, 4265297131, -6.334778785705566, 1.8027571439743042, 7.094084739685059, -0.28085604310035706, -0.7816099524497986, -1.3785521984100342, 0.599609375, 0.18994140625, -0.70068359375
475, 4265313798, -6.344051837921143, 1.7970576286315918, 7.078676700592041, -0.26023784279823303, -0.7768459916114807, -1.4124380350112915, 0.599609375, 0.1904296875, -0.699951171875
476, 4265330465, -6.336700916290283, 1.8122634887695312, 7.065213680267334, -0.3056107461452484, -0.7721588015556335, -1.4209156036376953, 0.599609375, 0.19091796875, -0.699951171875
477, 4265347132, -6.337697982788086, 1.8191170692443848, 7.082338809967041, -0.14898908138275146, -0.826829195022583, -1.4282665252685547, 0.60009765625, 0.1904296875, -0.70166015625
478, 4265363799, -6.334232807159424, 1.8135926723480225, 7.073347568511963, -0.3177255690097809, -0.8712800741195679, -1.485203742980957, 0.6015625, 0.19140625, -0.700439453125
479, 4265380466, -6.338703632354736, 1.8052297830581665, 7.075723171234131, -0.25543543696403503, -0.9428547024726868, -1.4513691663742065, 0.599853515625, 0.19384765625, -0.7001953125
480, 4265397133, -6.324829578399658, 1.8130271434783936, 7.0672197341918945, -0.28645244240760803, -0.899121105670929, -1.4092236757278442, 0.60205078125, 0.19091796875, -0.699951171875
481, 4265413800, -6.34761381149292, 1.8203946352005005, 7.0921149253845215, -0.3349629044532776, -0.7704172730445862, -1.49368155002594, 0.599853515625, 0.19091796875, -0.70166015625
482, 4265430467, -6.333005428314209, 1.8149720430374146, 7.0931196212768555, -0.3247690498828888, -0.8019976615905762, -1.4957689046859741, 0.599853515625, 0.19189453125, -0.70068359375
483, 4265447134, -6.333487033843994, 1.8066226243972778, 7.091556072235107, -0.23585455119609833, -0.7699434757232666, -1.5297186374664307, 0.60107421875, 0.18994140625, -0.7021484375
484, 4265463801, -6.3393378257751465, 1.810489296913147, 7.098016738891602, -0.33687105774879456, -0.8023819327354431, -1.548262119293213, 0.599853515625, 0.19384765625, -0.699462890625
485, 4265480468, -6.343227863311768, 1.794686198234558, 7.072642803192139, -0.46983933448791504, -0.9782513976097107, -1.5426143407821655, 0.599609375, 0.1923828125, -0.698974609375
486, 4265497135, -6.341125011444092, 1.8049938678741455, 7.06172513961792, -0.42791131138801575, -1.00144362449646, -1.5784207582473755, 0.60205078125, 0.19091796875, -0.7021484375
487, 4265513802, -6.347067356109619, 1.8119745254516602, 7.082857131958008, -0.43983399868011475, -1.114472508430481, -1.5834025144577026, 0.600830078125, 0.19287109375, -0.7021484375
488, 4265530469, -6.345292568206787, 1.7957134246826172, 7.072092533111572, -0.5650545954704285, -1.059571623802185, -1.6125497817993164, 0.599853515625, 0.193359375, -0.699951171875
489, 4265547136, -6.342834949493408, 1.7998548746109009, 7.092846870422363, -0.544922947883606, -1.1197872161865234, -1.5840941667556763, 0.599609375, 0.1904296875, -0.70068359375
490, 4265563803, -6.336361408233643, 1.8129980564117432, 7.071240425109863, -0.5560901165008545, -1.2016966342926025, -1.6481901407241821, 0.600341796875, 0.19287109375, -0.699951171875
491, 4265580470, -6.334779739379883, 1.8099638223648071, 7.105757236480713, -0.5579854846000671, -1.2005442380905151, -1.6714848279953003, 0.60302734375, 0.19140625, -0.70263671875
492, 4265597137, -6.320865154266357, 1.7835899591445923, 7.086770534515381, -0.5965198278427124, -1.3340119123458862, -1.709852695465088, 0.60107421875, 0.19384765625, -0.70068359375
493, 4265613804, -6.352560997009277, 1.7845966815948486, 7.0888495445251465, -0.6617425084114075, -1.321039080619812, -1.5219193696975708, 0.6015625, 0.1923828125, -0.701171875
494, 4265630471, -6.339493751525879, 1.8049302101135254, 7.109473705291748, -0.6044597029685974, -1.1972911357879639, -1.574553370475769, 0.60009765625, 0.19140625, -0.70166015625
495, 4265647138, -6.334892272949219, 1.7668510675430298, 7.076167106628418, -0.5042884349822998, -1.088283658027649, -1.4345160722732544, 0.60009765625, 0.1923828125, -0.698974609375
496, 4265663805, -6.329906940460205, 1.8037137985229492, 7.044300079345703, -0.3752516508102417, -0.9654195308685303, -1.3918198347091675, 0.598876953125, 0.19287109375, -0.70166015625
497, 4265680472, -6.344480037689209, 1.8129563331604004, 7.059962749481201, -0.4051160514354706, -1.0801258087158203, -1.4417643547058105, 0.6005859375, 0.19189453125, -0.700439453125
498, 4265697139, -6.341001987457275, 1.7780265808105469, 7.117711544036865, -0.23251207172870636, -1.108492136001587, -1.4038320779800415, 0.600341796875, 0.19189453125, -0.70263671875
499, 4265713806, -6.331573963165283, 1.7845304012298584, 7.079997539520264, -0.301717609167099, -1.1608188152313232, -1.294683575630188, 0.599365234375, 0.1943359375, -0.701171875
500, 4265730473, -6.325279712677002, 1.7736639976501465, 7.092418193817139, -0.16865964233875275, -1.0847105979919434, -1.26543390750885, 0.599365234375, 0.193359375, -0.70263671875
501, 4265747140, -6.330658435821533, 1.7745542526245117, 7.078390121459961, -0.10512731969356537, -1.0259294509887695, -1.1121928691864014, 0.60107421875, 0.19091796875, -0.70166015625
502, 4265763807, -6.32956600189209, 1.7873585224151611, 7.094943523406982, -0.06346827000379562, -1.080689549446106, -1.05571711063385, 0.598876953125, 0.19287109375, -0.703125
503, 4265780474, -6.331643104553223, 1.8005865812301636, 7.083521366119385, -0.05250603333115578, -0.9934910535812378, -1.0343304872512817, 0.598388671875, 0.1923828125, -0.701171875
504, 4265797141, -6.325723171234131, 1.7908453941345215, 7.085989952087402, -0.06373720616102219, -1.054474949836731, -0.9425346255302429, 0.599365234375, 0.19091796875, -0.70166015625
505, 4265813808, -6.334903240203857, 1.823676586151123, 7.107100486755371, 0.014554415829479694, -0.9966157674789429, -0.9607962965965271, 0.6005859375, 0.1923828125, -0.70166015625
506, 4265830475, -6.317420959472656, 1.8032582998275757, 7.112665176391602, -0.06164976954460144, -1.0168498754501343, -1.0800107717514038, 0.599365234375, 0.189697265625, -0.70263671875
507, 4265847142, -6.344289779663086, 1.8006043434143066, 7.0823750495910645, -0.12192925810813904, -1.0616847276687622, -1.112180233001709, 0.599365234375, 0.193359375, -0.70263671875
508, 4265863809, -6.333162307739258, 1.802275538444519, 7.070749282836914, -0.13925625383853912, -0.9753316044807434, -1.1287133693695068, 0.598876953125, 0.19091796875, -0.698974609375
509, 4265880476, -6.317910194396973, 1.810294508934021, 7.0800652503967285, -0.1752420961856842, -0.9802493453025818, -1.2347242832183838, 0.598876953125, 0.190185546875, -0.7021484375
510, 4265897143, -6.319314002990723, 1.8131566047668457, 7.092433452606201, -0.27801308035850525, -1.1492420434951782, -1.340389370918274, 0.600830078125, 0.1923828125, -0.703125
511, 4265913810, -6.326596736907959, 1.768139123916626, 7.0972065925598145, -0.22377817332744598, -1.109849452972412, -1.3311688899993896, 0.596923828125, 0.190185546875, -0.703125
512, 4265930477, -6.338530540466309, 1.7827563285827637, 7.086939334869385, -0.1637163609266281, -1.0019047260284424, -1.279175043106079, 0.599853515625, 0.19140625, -0.7021484375
513, 4265947144, -6.319908142089844, 1.804705262184143, 7.112759113311768, -0.07218939810991287, -0.9296770095825195, -1.1703723669052124, 0.598876953125, 0.1923828125, -0.70263671875
514, 4265963811, -6.330135822296143, 1.7953053712844849, 7.084634304046631, -0.14180471003055573, -0.9081622362136841, -1.252576231956482, 0.598876953125, 0.190185546875, -0.70361328125
515, 4265980478, -6.316862106323242, 1.8115848302841187, 7.085882186889648, -0.15263888239860535, -0.8428627252578735, -1.232521414756775, 0.597900390625, 0.19091796875, -0.701171875
516, 4265997145, -6.314513683319092, 1.8019037246704102, 7.111663341522217, -0.22017958760261536, -0.8930636644363403, -1.3510828018188477, 0.600341796875, 0.193359375, -0.70361328125
517, 4266013812, -6.332820415496826, 1.7898304462432861, 7.102372646331787, -0.27819234132766724, -0.9115302562713623, -1.382330060005188, 0.60107421875, 0.18994140625, -0.7021484375
518, 4266030479, -6.327938079833984, 1.771893858909607, 7.097296237945557, -0.26687154173851013, -0.9369383454322815, -1.37433922290802, 0.599853515625, 0.19189453125, -0.7021484375
519, 4266047146, -6.322232723236084, 1.7801179885864258, 7.105873107910156, -0.2587650716304779, -1.0383131504058838, -1.3044546842575073, 0.6015625, 0.1923828125, -0.70263671875
520, 4266063813, -6.3265790939331055, 1.8052021265029907, 7.090672492980957, -0.21947522461414337, -1.0369174480438232, -1.3758758306503296, 0.599365234375, 0.19189453125, -0.699462890625
521, 4266080480, -6.318347930908203, 1.7820165157318115, 7.0884318351745605, -0.2465222328901291, -1.0099087953567505, -1.275205135345459, 0.60107421875, 0.1923828125, -0.703125
522, 4266097147, -6.325619220733643, 1.796897292137146, 7.084057331085205, -0.16726376116275787, -1.0993739366531372, -1.240103006362915, 0.599853515625, 0.1923828125, -0.701171875
523, 4266113814, -6.323445796966553, 1.8001465797424316, 7.083000183105469, -0.20890997350215912, -1.074222207069397, -1.218895435333252, 0.6005859375, 0.189697265625, -0.70361328125
524, 4266130481, -6.3021697998046875, 1.795451045036316, 7.109429359436035, -0.1249515637755394, -0.9473497867584229, -1.1154332160949707, 0.600830078125, 0.19287109375, -0.703125
525, 4266147148, -6.3088483810424805, 1.8053655624389648, 7.111435413360596, -0.11724213510751724, -0.7989112734794617, -1.217730164527893, 0.597900390625, 0.19189453125, -0.70556640625
526, 4266163815, -6.319153785705566, 1.8082990646362305, 7.093520641326904, -0.07699177414178848, -0.7380171418190002, -1.3782832622528076, 0.598388671875, 0.19091796875, -0.70068359375
527, 4266180482, -6.324520587921143, 1.791159987449646, 7.085599899291992, -0.2347019761800766, -0.9627558588981628, -1.4367316961288452, 0.598388671875, 0.1923828125, -0.70166015625
528, 4266197149, -6.3264875411987305, 1.7915102243423462, 7.11351203918457, -0.31036192178726196, -0.9033728837966919, -1.42220938205719, 0.599853515625, 0.1923828125, -0.7021484375
529, 4266213816, -6.317835807800293, 1.7901827096939087, 7.100430965423584, -0.23933786153793335, -0.9133232235908508, -1.4004383087158203, 0.600830078125, 0.19287109375, -0.703125
530, 4266230483, -6.316662311553955, 1.7913360595703125, 7.105226993560791, -0.23294752836227417, -0.9784051775932312, -1.28822922706604, 0.598876953125, 0.19091796875, -0.70166015625
531, 4266247150, -6.324283123016357, 1.787948489189148, 7.102100372314453, -0.2817141115665436, -0.9538809657096863, -1.2206758260726929, 0.600341796875, 0.18994140625, -0.705078125
532, 4266263817, -6.323336601257324, 1.803998351097107, 7.127564907073975, -0.13369828462600708, -0.8217193484306335, -1.275730013847351, 0.600341796875, 0.19140625, -0.70361328125
533, 4266280484, -6.322085380554199, 1.7926404476165771, 7.09467077255249, -0.20030412077903748, -0.8733162879943848, -1.2102513313293457, 0.599853515625, 0.193359375, -0.705078125
534, 4266297151, -6.31673526763916, 1.7975057363510132, 7.098846435546875, -0.24421709775924683, -0.937719464302063, -1.290649652481079, 0.598876953125, 0.19091796875, -0.70361328125
535, 4266313818, -6.306201934814453, 1.7936090230941772, 7.115899085998535, -0.279485821723938, -0.9613214731216431, -1.386223554611206, 0.598876953125, 0.19384765625, -0.705078125
536, 4266330485, -6.310988903045654, 1.8017998933792114, 7.119508743286133, -0.4346346855163574, -1.0572024583816528, -1.3729685544967651, 0.600341796875, 0.19091796875, -0.703125
537, 4266347152, -6.305827617645264, 1.8103193044662476, 7.088471412658691, -0.3336566686630249, -0.9665080904960632, -1.4370261430740356, 0.600341796875, 0.193359375, -0.7021484375
538, 4266363819, -6.305441856384277, 1.801817536354065, 7.091919422149658, -0.3157021403312683, -1.0466500520706177, -1.3973904848098755, 0.599853515625, 0.19189453125, -0.7041015625
539, 4266380486, -6.304610729217529, 1.7981170415878296, 7.083130359649658, -0.2651170790195465, -1.04314124584198, -1.3613791465759277, 0.599365234375, 0.19091796875, -0.7021484375
540, 4266397153, -6.303963661193848, 1.7944414615631104, 7.090824604034424, -0.2676655352115631, -1.010472297668457, -1.3602904081344604, 0.599365234375, 0.1904296875, -0.7041015625
541, 4266413820, -6.309096813201904, 1.8009432554244995, 7.092588424682617, -0.304470956325531, -1.0532197952270508, -1.3811520338058472, 0.600830078125, 0.1923828125, -0.703125
542, 4266430487, -6.304932594299316, 1.792901635169983, 7.097189426422119, -0.27860215306282043, -0.8592676520347595, -1.4192253351211548, 0.598388671875, 0.1923828125, -0.706298828125
543, 4266447154, -6.314651966094971, 1.781153917312622, 7.109171390533447, -0.28718239068984985, -0.7927258610725403, -1.5303974151611328, 0.598388671875, 0.19140625, -0.70361328125
544, 4266463821, -6.311460018157959, 1.805692195892334, 7.0722432136535645, -0.24380731582641602, -0.7193198800086975, -1.5581486225128174, 0.599365234375, 0.193359375, -0.7041015625
545, 4266480488, -6.3001837730407715, 1.8012703657150269, 7.130717754364014, -0.2976451814174652, -0.7789206504821777, -1.5816737413406372, 0.598388671875, 0.19287109375, -0.705078125
546, 4266497155, -6.322075366973877, 1.795791506767273, 7.108425140380859, -0.2399909943342209, -0.7124044895172119, -1.5867581367492676, 0.598876953125, 0.1923828125, -0.703125
547, 4266513822, -6.3119096755981445, 1.794942855834961, 7.10644006729126, -0.32492274045944214, -0.7936992049217224, -1.5645006895065308, 0.598876953125, 0.19384765625, -0.7041015625
548, 4266530489, -6.3218159675598145, 1.7835426330566406, 7.084019660949707, -0.4137219190597534, -0.9149624109268188, -1.611704707145691, 0.600830078125, 0.19384765625, -0.705810546875
549, 4266547156, -6.310225963592529, 1.8092436790466309, 7.104473114013672, -0.6353613138198853, -0.977367639541626, -1.653786301612854, 0.596923828125, 0.1923828125, -0.70263671875
550, 4266563823, -6.311921119689941, 1.7791011333465576, 7.121516704559326, -0.5961356163024902, -1.1071475744247437, -1.7900460958480835, 0.598388671875, 0.19091796875, -0.70361328125
551, 4266580490, -6.321604251861572, 1.7739778757095337, 7.086333274841309, -0.6779938340187073, -1.28139066696167, -1.7971792221069336, 0.598876953125, 0.19384765625, -0.7021484375
552, 4266597157, -6.312649250030518, 1.8030775785446167, 7.087810516357422, -0.8210151195526123, -1.5027867555618286, -1.9005134105682373, 0.60107421875, 0.19140625, -0.70361328125
553, 4266613824, -6.302940845489502, 1.8105156421661377, 7.113226890563965, -0.9871645569801331, -1.6353323459625244, -1.9610235691070557, 0.599853515625, 0.19287109375, -0.70458984375
554, 4266630491, -6.297962188720703, 1.781670093536377, 7.132956504821777, -0.8252155184745789, -1.5860663652420044, -1.8568565845489502, 0.597900390625, 0.19384765625, -0.705322265625
555, 4266647158, -6.322521209716797, 1.750988245010376, 7.092384338378906, -0.5953543782234192, -1.5146712064743042, -1.7586065530776978, 0.598388671875, 0.19189453125, -0.70556640625
556, 4266663825, -6.315786838531494, 1.7658149003982544, 7.109799385070801, -0.6825785040855408, -1.2930059432983398, -1.7732312679290771, 0.598876953125, 0.1923828125, -0.70361328125
557, 4266680492, -6.3092756271362305, 1.7619075775146484, 7.100037574768066, -0.5519920587539673, -1.1916693449020386, -1.6370998620986938, 0.599853515625, 0.19482421875, -0.7041015625
558, 4266697159, -6.302401065826416, 1.7760663032531738, 7.132401466369629, -0.5350492596626282, -1.1655826568603516, -1.5671769380569458, 0.600341796875, 0.195068359375, -0.705810546875
559, 4266713826, -6.296887397766113, 1.761523723602295, 7.117860317230225, -0.6371543407440186, -1.1952422857284546, -1.6302355527877808, 0.598388671875, 0.195556640625, -0.706298828125
560, 4266730493, -6.3074822425842285, 1.7659504413604736, 7.123744964599609, -0.5177478790283203, -1.1692068576812744, -1.5422557592391968, 0.599853515625, 0.19189453125, -0.7041015625
561, 4266747160, -6.313796520233154, 1.766648769378662, 7.103413105010986, -0.5604058504104614, -1.142953872680664, -1.5554462671279907, 0.598876953125, 0.1943359375, -0.705322265625
562, 4266763827, -6.311172008514404, 1.775090217590332, 7.100802421569824, -0.36195865273475647, -1.1185834407806396, -1.4555312395095825, 0.599365234375, 0.196533203125, -0.70458984375
563, 4266780494, -6.289825916290283, 1.7704761028289795, 7.1077752113342285, -0.2772446870803833, -0.9137716293334961, -1.4052023887634277, 0.599365234375, 0.19384765625, -0.70458984375
564, 4266797161, -6.306758880615234, 1.7505173683166504, 7.130638122558594, -0.20852577686309814, -0.8093740344047546, -1.4543657302856445, 0.596923828125, 0.196044921875, -0.705322265625
565, 4266813828, -6.317382335662842, 1.7603223323822021, 7.123331546783447, -0.1851285994052887, -0.8250234723091125, -1.410568118095398, 0.597900390625, 0.195556640625, -0.703125
566, 4266830495, -6.2972917556762695, 1.7767730951309204, 7.133456707000732, -0.2577277719974518, -0.8194526433944702, -1.3521326780319214, 0.597412109375, 0.19482421875, -0.70458984375
567, 4266847162, -6.303586959838867, 1.7621676921844482, 7.096572399139404, -0.23444584012031555, -0.8732905387878418, -1.3681408166885376, 0.599853515625, 0.19482421875, -0.703125
568, 4266863829, -6.318689346313477, 1.773773193359375, 7.137970924377441, -0.27759042382240295, -0.9221340417861938, -1.4152424335479736, 0.597900390625, 0.197021484375, -0.7041015625
569, 4266880496, -6.323052883148193, 1.7607054710388184, 7.126660346984863, -0.2972482144832611, -0.8680272698402405, -1.4180985689163208, 0.600830078125, 0.195556640625, -0.705078125
570, 4266897163, -6.316695213317871, 1.7551829814910889, 7.1415205001831055, -0.3374985456466675, -0.9412027597427368, -1.4191612005233765, 0.598388671875, 0.197998046875, -0.703125
571, 4266913830, -6.3028788566589355, 1.7533514499664307, 7.1375203132629395, -0.344478040933609, -1.0386207103729248, -1.4506521224975586, 0.597900390625, 0.1953125, -0.704833984375
572, 4266930497, -6.300374984741211, 1.7626675367355347, 7.12645149230957, -0.3104003071784973, -0.9999069571495056, -1.4423534870147705, 0.598876953125, 0.19384765625, -0.705322265625
573, 4266947164, -6.307605743408203, 1.7446924448013306, 7.1312432289123535, -0.36513468623161316, -0.9965006113052368, -1.4306358098983765, 0.599365234375, 0.196044921875, -0.7041015625
574, 4266963831, -6.295746803283691, 1.763388752937317, 7.124022483825684, -0.3675806522369385, -1.0443962812423706, -1.3873374462127686, 0.597900390625, 0.193359375, -0.70166015625
575, 4266980498, -6.297753810882568, 1.7779771089553833, 7.129214763641357, -0.26516827940940857, -1.0859400033950806, -1.3500069379806519, 0.599365234375, 0.197021484375, -0.704833984375
576, 4266997165, -6.2976884841918945, 1.7569767236709595, 7.11661958694458, -0.3860729932785034, -1.2032333612442017, -1.507384181022644, 0.598876953125, 0.1953125, -0.705078125
577, 4267013832, -6.301952838897705, 1.7393314838409424, 7.115533828735352, -0.41906213760375977, -1.1817569732666016, -1.4306228160858154, 0.599365234375, 0.19384765625, -0.705810546875
578, 4267030499, -6.313563823699951, 1.7660948038101196, 7.122716903686523, -0.366594523191452, -1.1660692691802979, -1.4635478258132935, 0.597900390625, 0.1943359375, -0.706298828125
579, 4267047166, -6.294479846954346, 1.7686787843704224, 7.102133274078369, -0.6445564031600952, -1.398811936378479, -1.580572485923767, 0.597900390625, 0.19482421875, -0.706787109375
580, 4267063833, -6.2963032722473145, 1.7533109188079834, 7.135879993438721, -0.7922391891479492, -1.641171932220459, -1.798190712928772, 0.5966796875, 0.196044921875, -0.706787109375
581, 4267080500, -6.297068119049072, 1.74141526222229, 7.1540374755859375, -0.6307767033576965, -1.5796120166778564, -1.6604200601577759, 0.597412109375, 0.196533203125, -0.70361328125
582, 4267097167, -6.286390781402588, 1.749085783958435, 7.131441593170166, -0.48096799850463867, -1.2562772035598755, -1.4638935327529907, 0.5966796875, 0.196044921875, -0.706787109375
583, 4267113834, -6.27977180480957, 1.7568535804748535, 7.120284080505371, -0.2983367443084717, -1.017759084701538, -1.3638123273849487, 0.597412109375, 0.19580078125, -0.706298828125
584, 4267130501, -6.2863335609436035, 1.737704873085022, 7.113185882568359, -0.11460402607917786, -0.8387006521224976, -1.3251115083694458, 0.597412109375, 0.19580078125, -0.706787109375
585, 4267147168, -6.302056312561035, 1.7544277906417847, 7.121180057525635, -0.13387759029865265, -0.8413131833076477, -1.3726614713668823, 0.596923828125, 0.196044921875, -0.705322265625
586, 4267163835, -6.2907304763793945, 1.7588376998901367, 7.141174793243408, -0.16877488791942596, -0.8624820709228516, -1.3605082035064697, 0.598388671875, 0.195556640625, -0.706298828125
587, 4267180502, -6.29069709777832, 1.7614734172821045, 7.138684272766113, -0.21742621064186096, -0.9424065947532654, -1.3963148593902588, 0.596923828125, 0.19580078125, -0.705810546875
588, 4267197169, -6.293299674987793, 1.750441551208496, 7.141530513763428, -0.1667514592409134, -0.7216377258300781, -1.3891431093215942, 0.5986328125, 0.198974609375, -0.705810546875
589, 4267213836, -6.283746242523193, 1.7359200716018677, 7.13266134262085, 0.06770076602697372, -0.579064667224884, -1.2124539613723755, 0.597900390625, 0.196044921875, -0.705322265625
590, 4267230503, -6.277553558349609, 1.7054141759872437, 7.135520935058594, 0.3529365658760071, -0.19694884121418, -1.0031981468200684, 0.598876953125, 0.196533203125, -0.706298828125
591, 4267247170, -6.292917728424072, 1.7441668510437012, 7.127688884735107, 0.5782259106636047, 0.013325006701052189, -0.8739052414894104, 0.597412109375, 0.1943359375, -0.703125
592, 4267263837, -6.307459831237793, 1.7555135488510132, 7.101095676422119, 0.5653939843177795, 0.006512029562145472, -0.8685395121574402, 0.597900390625, 0.195556640625, -0.7041015625
593, 4267280504, -6.3096160888671875, 1.7817052602767944, 7.10267448425293, 0.3600313067436218, -0.1607452929019928, -0.9732185006141663, 0.597900390625, 0.1953125, -0.707763671875
594, 4267297171, -6.305789470672607, 1.7619576454162598, 7.109942436218262, 0.21616479754447937, -0.2799980342388153, -1.0875279903411865, 0.598876953125, 0.195556640625, -0.705810546875
595, 4267313838, -6.3059844970703125, 1.7544279098510742, 7.143388271331787, 0.1802813857793808, -0.3478332459926605, -1.114767074584961, 0.597412109375, 0.19482421875, -0.7041015625
596, 4267330505, -6.30724573135376, 1.7521860599517822, 7.135447025299072, 0.2615632712841034, -0.4417678117752075, -1.025378704071045, 0.598388671875, 0.19482421875, -0.705322265625
597, 4267347172, -6.313223361968994, 1.7468291521072388, 7.113579750061035, 0.42950576543807983, -0.2123548835515976, -0.8308631181716919, 0.597412109375, 0.1943359375, -0.705322265625
598, 4267363839, -6.303571701049805, 1.7760725021362305, 7.130118370056152, 0.5385389924049377, -0.2949558198451996, -0.805980384349823, 0.599853515625, 0.1943359375, -0.70263671875
599, 4267380506, -6.301450252532959, 1.7641468048095703, 7.113473415374756, 0.28192541003227234, -0.5538490414619446, -0.9452879428863525, 0.598876953125, 0.1943359375, -0.706298828125
600, 4267397173, -6.306187629699707, 1.7754065990447998, 7.125857830047607, 0.08739694207906723, -0.852608323097229, -1.028106689453125, 0.598388671875, 0.19384765625, -0.705078125
601, 4267413840, -6.301301956176758, 1.7682883739471436, 7.120018005371094, -0.001306247664615512, -0.9593492746353149, -1.1466037034988403, 0.597412109375, 0.19287109375, -0.706298828125
602, 4267430507, -6.3002448081970215, 1.7901700735092163, 7.12670373916626, -0.19771723449230194, -0.9399219751358032, -1.249285101890564, 0.600341796875, 0.19482421875, -0.705322265625
603, 4267447174, -6.3136444091796875, 1.7839503288269043, 7.1427388191223145, -0.08808206766843796, -0.8655425906181335, -1.2822484970092773, 0.598388671875, 0.19482421875, -0.70458984375
604, 4267463841, -6.301170349121094, 1.7845206260681152, 7.140326023101807, -0.09910834580659866, -0.7876290082931519, -1.3589714765548706, 0.597412109375, 0.1943359375, -0.70263671875
605, 4267480508, -6.309165954589844, 1.7651149034500122, 7.124826908111572, -0.18812528252601624, -0.8231537342071533, -1.4049334526062012, 0.596923828125, 0.19384765625, -0.705810546875
606, 4267497175, -6.30586576461792, 1.7812731266021729, 7.117843151092529, -0.2582016587257385, -0.7552929520606995, -1.5016471147537231, 0.596923828125, 0.1953125, -0.706298828125
607, 4267513842, -6.3062849044799805, 1.7749664783477783, 7.1440348625183105, -0.3048807978630066, -0.8760055899620056, -1.5460851192474365, 0.597412109375, 0.19482421875, -0.704833984375
608, 4267530509, -6.3036041259765625, 1.7599717378616333, 7.1279473304748535, -0.31443431973457336, -0.8991082906723022, -1.5119304656982422, 0.598388671875, 0.1953125, -0.707763671875
609, 4267547176, -6.29673433303833, 1.7655131816864014, 7.110816478729248, -0.36249658465385437, -0.9379627704620361, -1.4677742719650269, 0.597900390625, 0.19482421875, -0.7041015625
610, 4267563843, -6.301113605499268, 1.770311951637268, 7.12553071975708, -0.4269509017467499, -1.206294059753418, -1.5170656442642212, 0.597900390625, 0.1953125, -0.70263671875
611, 4267580510, -6.298758506774902, 1.7579067945480347, 7.134598731994629, -0.4125693738460541, -1.0338054895401, -1.4312505722045898, 0.598876953125, 0.1953125, -0.705322265625
612, 4267597177, -6.302402019500732, 1.7477524280548096, 7.132067680358887, -0.1919543743133545, -0.7572906613349915, -1.3321037292480469, 0.599365234375, 0.19189453125, -0.706298828125
613, 4267613844, -6.297147750854492, 1.7649630308151245, 7.1425299644470215, -0.15271572768688202, -0.5388655662536621, -1.2973088026046753, 0.597900390625, 0.19287109375, -0.706298828125
614, 4267630511, -6.2983927726745605, 1.7799779176712036, 7.106101036071777, -0.18497493863105774, -0.6250011324882507, -1.3059660196304321, 0.597900390625, 0.19580078125, -0.706787109375
615, 4267647178, -6.2986321449279785, 1.7670905590057373, 7.11065673828125, -0.21760548651218414, -0.8310553431510925, -1.365605115890503, 0.599365234375, 0.19287109375, -0.707763671875
616, 4267663845, -6.287872791290283, 1.7695033550262451, 7.104508399963379, -0.2688693106174469, -0.7999742031097412, -1.3686274290084839, 0.598876953125, 0.195556640625, -0.705810546875
617, 4267680512, -6.309604167938232, 1.777438998222351, 7.138192176818848, -0.23693028092384338, -0.8165968656539917, -1.3571784496307373, 0.599365234375, 0.19482421875, -0.70458984375
618, 4267697179, -6.305060863494873, 1.77407968044281, 7.115471363067627, -0.3304934799671173, -0.8564503192901611, -1.3879138231277466, 0.595947265625, 0.1943359375, -0.704833984375
619, 4267713846, -6.2805023193359375, 1.753692865371704, 7.123429775238037, -0.22987397015094757, -0.8042003512382507, -1.3719314336776733, 0.597900390625, 0.19482421875, -0.70263671875
620, 4267730513, -6.3064703941345215, 1.7563363313674927, 7.117086887359619, -0.16531717777252197, -0.9085208177566528, -1.3711373805999756, 0.5966796875, 0.1953125, -0.705810546875
621, 4267747180, -6.292410850524902, 1.7699588537216187, 7.119414329528809, -0.2345995306968689, -0.7525779008865356, -1.3932666778564453, 0.596923828125, 0.1943359375, -0.705810546875
622, 4267763847, -6.301644325256348, 1.7632070779800415, 7.133241176605225, -0.19005902111530304, -0.6038705110549927, -1.3729685544967651, 0.5966796875, 0.19580078125, -0.705322265625
623, 4267780514, -6.2889604568481445, 1.7838603258132935, 7.106409072875977, -0.17192526161670685, -0.6787877678871155, -1.474164605140686, 0.597900390625, 0.196044921875, -0.70361328125
624, 4267797181, -6.291367530822754, 1.7597981691360474, 7.12186336517334, -0.22315065562725067, -0.5891689658164978, -1.4225422143936157, 0.599365234375, 0.19482421875, -0.705322265625
625, 4267813848, -6.315693378448486, 1.7675819396972656, 7.148078441619873, -0.2566136121749878, -0.6257822513580322, -1.4894168376922607, 0.597412109375, 0.19482421875, -0.70458984375
626, 4267830515, -6.2846808433532715, 1.7639247179031372, 7.107239723205566, -0.2091917246580124, -0.6526628136634827, -1.4828985929489136, 0.597412109375, 0.193359375, -0.703125
627, 4267847182, -6.286381244659424, 1.770430326461792, 7.101512908935547, -0.29300931096076965, -0.6661991477012634, -1.4828217029571533, 0.598388671875, 0.196044921875, -0.70458984375
628, 4267863849, -6.304832458496094, 1.7656383514404297, 7.127265453338623, -0.24329504370689392, -0.6346827149391174, -1.4210182428359985, 0.599365234375, 0.1943359375, -0.705322265625
629, 4267880516, -6.319612503051758, 1.7691067457199097, 7.132976531982422, -0.0610990971326828, -0.6868941783905029, -1.3552320003509521, 0.598388671875, 0.19287109375, -0.703125
630, 4267897183, -6.310552597045898, 1.758186936378479, 7.12520694732666, -0.10411562025547028, -0.6080070734024048, -1.3663479089736938, 0.599853515625, 0.193359375, -0.70458984375
631, 4267913850, -6.306172847747803, 1.766513705253601, 7.110077381134033, -0.1492195725440979, -0.6470535397529602, -1.3563460111618042, 0.598388671875, 0.19384765625, -0.706298828125
632, 4267930517, -6.304746150970459, 1.7613540887832642, 7.119391441345215, -0.02900638058781624, -0.565028965473175, -1.2370038032531738, 0.597900390625, 0.1943359375, -0.705322265625
633, 4267947184, -6.317712783813477, 1.7606033086776733, 7.124959468841553, 0.051910534501075745, -0.5147255659103394, -1.2730792760849, 0.600341796875, 0.19384765625, -0.707275390625
634, 4267963851, -6.3109941482543945, 1.7453614473342896, 7.116170406341553, -0.0234612338244915, -0.5701643228530884, -1.3249067068099976, 0.598876953125, 0.195556640625, -0.705078125
635, 4267980518, -6.308654308319092, 1.7434098720550537, 7.107036590576172, -0.0071075246669352055, -0.6049208045005798, -1.2269123792648315, 0.597900390625, 0.193359375, -0.705078125
636, 4267997185, -6.2889814376831055, 1.6537855863571167, 7.11461067199707, 0.4125373065471649, -0.432675302028656, -0.7402581572532654, 0.600830078125, 0.195556640625, -0.7041015625
637, 4268013852, -6.3110175132751465, 1.7785310745239258, 7.122716426849365, 1.340280532836914, 0.3539867103099823, 0.06528037786483765, 0.599365234375, 0.196044921875, -0.7041015625
638, 4268030519, -6.279848575592041, 1.7194890975952148, 7.1255412101745605, 1.704749345779419, 0.1942531317472458, 0.439994215965271, 0.599853515625, 0.19384765625, -0.70556640625
639, 4268047186, -6.320613861083984, 1.7921128273010254, 7.103956699371338, 1.8665573596954346, 0.29957252740859985, 0.8050646781921387, 0.598388671875, 0.1943359375, -0.705078125
640, 4268063853, -6.328924179077148, 1.8586616516113281, 7.064976692199707, 1.3867803812026978, -0.4858856797218323, 0.46841150522232056, 0.597900390625, 0.19140625, -0.7021484375
641, 4268080520, -6.294703006744385, 1.7839223146438599, 7.069911479949951, 1.284995675086975, -1.1082104444503784, 0.23662935197353363, 0.599365234375, 0.19140625, -0.70166015625
642, 4268097187, -6.294548988342285, 1.7133485078811646, 7.096375465393066, 2.19934344291687, -0.48150599002838135, 1.0980356931686401, 0.597412109375, 0.189697265625, -0.703125
643, 4268113854, -6.317880153656006, 1.7616783380508423, 7.1114983558654785, 3.5065512657165527, 1.0332483053207397, 2.001715660095215, 0.599853515625, 0.18994140625, -0.7041015625
644, 4268130521, -6.333932399749756, 1.8735798597335815, 7.075416088104248, 4.298855304718018, 1.2245368957519531, 2.51399564743042, 0.599365234375, 0.189208984375, -0.703125
645, 4268147188, -6.292001247406006, 1.988683819770813, 7.078039646148682, 3.553140878677368, 1.128540277481079, 1.6639994382858276, 0.59912109375, 0.186767578125, -0.70458984375
646, 4268163855, -6.291679382324219, 1.9820979833602905, 7.06057596206665, 4.8894195556640625, 2.5945727825164795, 0.8924425840377808, 0.599609375, 0.186279296875, -0.703125
647, 4268180522, -6.348483085632324, 1.7062194347381592, 7.0742950439453125, 7.70327091217041, 5.218902587890625, 1.375447154045105, 0.6025390625, 0.18359375, -0.70263671875
648, 4268197189, -6.379256248474121, 1.7245419025421143, 7.076292037963867, 8.468208312988281, 4.088575839996338, 3.500239372253418, 0.603271484375, 0.18115234375, -0.69580078125
649, 4268213856, -6.345017910003662, 1.7248328924179077, 7.08720588684082, 7.427063941955566, 2.243999719619751, 4.575653076171875, 0.601318359375, 0.177978515625, -0.700927734375
650, 4268230523, -6.329853534698486, 1.8848251104354858, 7.037637710571289, 6.889760494232178, 1.6495413780212402, 5.485083103179932, 0.604248046875, 0.175048828125, -0.699951171875
651, 4268247190, -6.362473011016846, 2.035972833633423, 7.045648574829102, 7.6179304122924805, 2.0745458602905273, 5.5674662590026855, 0.602783203125, 0.175048828125, -0.6982421875
652, 4268263857, -6.353577613830566, 2.115438461303711, 7.01011323928833, 7.527235507965088, 1.6542799472808838, 4.834648609161377, 0.60498046875, 0.172607421875, -0.69677734375
