sep=,
DeviceTag:,A,,,,,,,,,,,,,,,,,
FirmwareVersion:,2.2.1,,,,,,,,,,,,,,,,,
AppVersion:,2023.6.1,,,,,,,,,,,,,,,,,
SyncStatus:,Synced,,,,,,,,,,,,,,,,,
OutputRate:,60Hz,,,,,,,,,,,,,,,,,
FilterProfile:,General,,,,,,,,,,,,,,,,,
Measurement Mode:,Inertial Mode - Rate quantities (with mag),,,,,,,,,,,,,,,,,
StartTime:,2023-12-07 13:32:24.266 +0200,,,,,,,,,,,,,,,,,
 2023,,,,,,,,,,,,,,,,,,,

PacketCounter,SampleTimeFine,Acc_X,Acc_Y,Acc_Z,Gyr_X,Gyr_Y,Gyr_Z,Mag_X,Mag_Y,Mag_Z
1, 3982924817, -6.816683292388916, -0.8805271983146667, 7.111361503601074, -2.4211812019348145, -1.3336020708084106, -2.2260124683380127, 1.118408203125, -0.407958984375, 0.05859375
2, 3982941484, -6.825459003448486, -0.88764888048172, 7.114625453948975, -2.4540553092956543, -1.462024211883545, -2.222337245941162, 1.118896484375, -0.407958984375, 0.05908203125
3, 3982958151, -6.822306156158447, -0.8861424326896667, 7.1304612159729, -2.413856029510498, -1.432607889175415, -2.31158447265625, 1.118896484375, -0.4091796875, 0.0615234375
4, 3982974818, -6.824239253997803, -0.8930818438529968, 7.1122145652771, -2.3359038829803467, -1.582032561302185, -2.286804437637329, 1.118408203125, -0.407470703125, 0.0595703125
5, 3982991485, -6.808028221130371, -0.8986356854438782, 7.117143630981445, -2.312647581100464, -1.5399253368377686, -2.1765799522399902, 1.118408203125, -0.408203125, 0.058349609375
6, 3983008152, -6.815001487731934, -0.8961722254753113, 7.127790451049805, -2.3371975421905518, -1.5595060586929321, -2.1684224605560303, 1.119384765625, -0.40966796875, 0.05908203125
7, 3983024819, -6.813005447387695, -0.8907943964004517, 7.110143184661865, -2.3049378395080566, -1.6034958362579346, -2.2573494911193848, 1.119873046875, -0.408447265625, 0.0595703125
8, 3983041486, -6.81658935546875, -0.8995892405509949, 7.125269889831543, -2.361145257949829, -1.5306791067123413, -2.2105939388275146, 1.117919921875, -0.408203125, 0.0595703125
9, 3983058153, -6.811485767364502, -0.8958739638328552, 7.142256736755371, -2.373605966567993, -1.4467591047286987, -2.227908134460449, 1.117919921875, -0.407958984375, 0.05908203125
10, 3983074820, -6.834390640258789, -0.9054442048072815, 7.107364654541016, -2.2930281162261963, -1.5255564451217651, -2.147432804107666, 1.119384765625, -0.407958984375, 0.06103515625
11, 3983091487, -6.815315246582031, -0.9034167528152466, 7.122802257537842, -2.340386390686035, -1.4883155822753906, -2.1841742992401123, 1.118896484375, -0.408203125, 0.06103515625
12, 3983108154, -6.813162803649902, -0.8774633407592773, 7.103409767150879, -2.427264451980591, -1.5406039953231812, -2.1211800575256348, 1.118408203125, -0.407470703125, 0.05859375
13, 3983124821, -6.824173450469971, -0.8950769305229187, 7.115504741668701, -2.3496322631835938, -1.6600103378295898, -2.2325310707092285, 1.117919921875, -0.407958984375, 0.06005859375
14, 3983141488, -6.809394359588623, -0.8881800174713135, 7.085498332977295, -2.3253514766693115, -1.56985342502594, -2.1324620246887207, 1.120361328125, -0.407958984375, 0.05908203125
15, 3983158155, -6.8044562339782715, -0.879984974861145, 7.108885288238525, -2.403470277786255, -1.6071841716766357, -2.1034815311431885, 1.117919921875, -0.4091796875, 0.060546875
16, 3983174822, -6.8243327140808105, -0.8854998350143433, 7.131224632263184, -2.330179214477539, -1.5561379194259644, -2.1736090183258057, 1.118896484375, -0.41162109375, 0.06103515625
17, 3983191489, -6.803838729858398, -0.90028315782547, 7.111001968383789, -2.41056489944458, -1.4600774049758911, -2.0791492462158203, 1.120361328125, -0.408447265625, 0.05908203125
18, 3983208156, -6.8209333419799805, -0.8786301016807556, 7.108184814453125, -2.555084705352783, -1.3685890436172485, -2.1880288124084473, 1.119873046875, -0.406005859375, 0.05908203125
19, 3983224823, -6.814934253692627, -0.8992411494255066, 7.107402801513672, -2.427302598953247, -1.458963394165039, -2.1814334392547607, 1.117919921875, -0.408203125, 0.060546875
20, 3983241490, -6.8172173500061035, -0.8869868516921997, 7.0915751457214355, -2.282808542251587, -1.6343975067138672, -2.1853268146514893, 1.118408203125, -0.408203125, 0.058349609375
21, 3983258157, -6.811926364898682, -0.8804326057434082, 7.114138603210449, -2.320408344268799, -1.5731961727142334, -2.0831193923950195, 1.118896484375, -0.407470703125, 0.05859375
22, 3983274824, -6.81013822555542, -0.8883082270622253, 7.113409996032715, -2.330627679824829, -1.6464868783950806, -2.1981077194213867, 1.119384765625, -0.40966796875, 0.0615234375
23, 3983291491, -6.811825752258301, -0.8844124674797058, 7.118523597717285, -2.366804361343384, -1.5170645713806152, -2.1870524883270264, 1.12060546875, -0.4111328125, 0.0615234375
24, 3983308158, -6.814444541931152, -0.8780137896537781, 7.131252765655518, -2.4588444232940674, -1.5059497356414795, -2.223771095275879, 1.118408203125, -0.407470703125, 0.06005859375
25, 3983324825, -6.830835819244385, -0.8481013774871826, 7.123368740081787, -2.798123598098755, -1.3652081489562988, -2.352526903152466, 1.118896484375, -0.41162109375, 0.057861328125
26, 3983341492, -6.816066741943359, -0.8790038228034973, 7.10518741607666, -2.751354932785034, -1.2724519968032837, -2.6221776008605957, 1.118896484375, -0.406494140625, 0.060546875
27, 3983358159, -6.836654186248779, -0.8982897996902466, 7.099570274353027, -2.6874258518218994, -1.353452205657959, -2.5321359634399414, 1.117919921875, -0.40966796875, 0.06005859375
28, 3983374826, -6.818061828613281, -0.9107580184936523, 7.114402770996094, -2.639798879623413, -1.429355263710022, -2.415226697921753, 1.118408203125, -0.407958984375, 0.06005859375
29, 3983391493, -6.822948932647705, -0.8951936364173889, 7.134077072143555, -2.542534351348877, -1.480798363685608, -2.450136661529541, 1.118408203125, -0.406982421875, 0.06103515625
30, 3983408160, -6.818081378936768, -0.8852424621582031, 7.123396873474121, -2.426316976547241, -1.6369720697402954, -2.4980709552764893, 1.12158203125, -0.407470703125, 0.060546875
31, 3983424827, -6.83071756362915, -0.8968583345413208, 7.118363380432129, -2.412639617919922, -1.6731113195419312, -2.4045205116271973, 1.118408203125, -0.407958984375, 0.060546875
32, 3983441494, -6.819152355194092, -0.8928050994873047, 7.10085916519165, -2.246490001678467, -1.751819133758545, -2.4286603927612305, 1.118408203125, -0.4091796875, 0.0595703125
33, 3983458161, -6.811881065368652, -0.9002508521080017, 7.1244659423828125, -2.288879156112671, -1.77229642868042, -2.328680992126465, 1.117919921875, -0.408203125, 0.0595703125
34, 3983474828, -6.805916786193848, -0.9056409597396851, 7.113368511199951, -2.1096925735473633, -1.755789041519165, -2.1862871646881104, 1.12109375, -0.41015625, 0.060546875
35, 3983491495, -6.796224594116211, -0.9150531888008118, 7.099865436553955, -2.034109354019165, -1.6989927291870117, -1.9793493747711182, 1.119384765625, -0.406982421875, 0.05859375
36, 3983508162, -6.821617126464844, -0.878649890422821, 7.1005048751831055, -2.0821332931518555, -1.588499665260315, -1.8898969888687134, 1.118408203125, -0.407470703125, 0.05908203125
37, 3983524829, -6.819282054901123, -0.8937299251556396, 7.113382339477539, -2.024850606918335, -1.5684576034545898, -1.9795926809310913, 1.117431640625, -0.40869140625, 0.058837890625
38, 3983541496, -6.803727149963379, -0.8995278477668762, 7.125124931335449, -2.1126506328582764, -1.6078628301620483, -1.8270564079284668, 1.118896484375, -0.40869140625, 0.06005859375
39, 3983558163, -6.808427810668945, -0.8977991938591003, 7.11289644241333, -2.1844942569732666, -1.5832489728927612, -1.9134352207183838, 1.120849609375, -0.408447265625, 0.05908203125
40, 3983574830, -6.8336639404296875, -0.8604689836502075, 7.135915279388428, -2.226806640625, -1.5638858079910278, -2.0181784629821777, 1.117919921875, -0.4111328125, 0.05908203125
41, 3983591497, -6.813492298126221, -0.8775644898414612, 7.107347011566162, -2.219468355178833, -1.63633131980896, -2.1159675121307373, 1.119873046875, -0.41015625, 0.060546875
42, 3983608164, -6.81987190246582, -0.8941431045532227, 7.125940799713135, -2.2346951961517334, -1.661803126335144, -2.1420540809631348, 1.120361328125, -0.407470703125, 0.057373046875
43, 3983624831, -6.815131187438965, -0.8734010457992554, 7.116246700286865, -2.311699867248535, -1.5896137952804565, -2.1950597763061523, 1.119873046875, -0.41015625, 0.05810546875
44, 3983641498, -6.820695877075195, -0.8812795281410217, 7.113318920135498, -2.304438591003418, -1.611948013305664, -2.153029441833496, 1.118896484375, -0.406982421875, 0.0595703125
45, 3983658165, -6.825532913208008, -0.8887861967086792, 7.114694595336914, -2.2635607719421387, -1.6936014890670776, -2.17431378364563, 1.117919921875, -0.41015625, 0.06103515625
46, 3983674832, -6.819983959197998, -0.8785783052444458, 7.124728679656982, -2.303426742553711, -1.6501747369766235, -2.064818859100342, 1.119384765625, -0.41064453125, 0.06005859375
47, 3983691499, -6.810724258422852, -0.8816031813621521, 7.110265254974365, -2.3722355365753174, -1.5224828720092773, -2.185736656188965, 1.119873046875, -0.4111328125, 0.06005859375
48, 3983708166, -6.825417995452881, -0.8948488235473633, 7.112751483917236, -2.4702036380767822, -1.3530548810958862, -2.1648108959198, 1.118408203125, -0.4091796875, 0.0595703125
49, 3983724833, -6.821735382080078, -0.8810065388679504, 7.108588218688965, -2.434448480606079, -1.3636329174041748, -2.2085444927215576, 1.118408203125, -0.4091796875, 0.06005859375
50, 3983741500, -6.818996906280518, -0.8869984149932861, 7.083759307861328, -2.4398016929626465, -1.3031485080718994, -2.2168688774108887, 1.12109375, -0.4091796875, 0.05908203125
51, 3983758167, -6.817779064178467, -0.8755285739898682, 7.121226787567139, -2.3960938453674316, -1.5252108573913574, -2.2273447513580322, 1.119384765625, -0.407470703125, 0.0615234375
52, 3983774834, -6.8074564933776855, -0.8731832504272461, 7.091902256011963, -2.3837995529174805, -1.5878080129623413, -2.133678436279297, 1.1201171875, -0.4111328125, 0.060546875
53, 3983791501, -6.821927070617676, -0.8812719583511353, 7.116988182067871, -2.2994823455810547, -1.6120119094848633, -2.168307065963745, 1.116943359375, -0.41064453125, 0.06005859375
54, 3983808168, -6.807616233825684, -0.8766837120056152, 7.1151628494262695, -2.2953970432281494, -1.742201328277588, -2.2337987422943115, 1.1201171875, -0.4111328125, 0.05908203125
55, 3983824835, -6.808081150054932, -0.8682988882064819, 7.1172099113464355, -2.310060977935791, -1.4963836669921875, -2.2121689319610596, 1.117431640625, -0.41015625, 0.05859375
56, 3983841502, -6.832995414733887, -0.8747678399085999, 7.100590229034424, -2.3207154273986816, -1.4187129735946655, -2.21606183052063, 1.118896484375, -0.4091796875, 0.05859375
57, 3983858169, -6.806979656219482, -0.8887439370155334, 7.1181488037109375, -2.2585792541503906, -1.567164421081543, -2.305360794067383, 1.120361328125, -0.41015625, 0.06005859375
58, 3983874836, -6.822895526885986, -0.8680453896522522, 7.113831043243408, -2.354281187057495, -1.5297058820724487, -2.213667631149292, 1.118408203125, -0.40966796875, 0.06103515625
59, 3983891503, -6.81511926651001, -0.8725889921188354, 7.111702919006348, -2.359748601913452, -1.5524206161499023, -2.261260986328125, 1.120361328125, -0.4091796875, 0.05908203125
60, 3983908170, -6.822689533233643, -0.8821003437042236, 7.1109442710876465, -2.2339396476745605, -1.6736363172531128, -2.1575498580932617, 1.118408203125, -0.41064453125, 0.06005859375
61, 3983924837, -6.834409713745117, -0.8693927526473999, 7.09714412689209, -2.2769179344177246, -1.7935165166854858, -2.104198694229126, 1.118896484375, -0.41015625, 0.0595703125
62, 3983941504, -6.825497150421143, -0.8730154633522034, 7.105076789855957, -2.1848788261413574, -1.7717456817626953, -2.1545658111572266, 1.118408203125, -0.41015625, 0.0615234375
63, 3983958171, -6.81658411026001, -0.8711939454078674, 7.1166815757751465, -2.320894718170166, -1.7181127071380615, -2.3187944889068604, 1.119384765625, -0.40869140625, 0.062744140625
64, 3983974838, -6.815515518188477, -0.8771851062774658, 7.120918273925781, -2.3038113117218018, -1.6134593486785889, -2.3323566913604736, 1.118896484375, -0.4091796875, 0.060546875
65, 3983991505, -6.805602550506592, -0.8868767023086548, 7.117954254150391, -2.439789056777954, -1.6513789892196655, -2.316169261932373, 1.118408203125, -0.40966796875, 0.05859375
66, 3984008172, -6.813889026641846, -0.8932750821113586, 7.107912540435791, -2.462712526321411, -1.6023049354553223, -2.3782544136047363, 1.117919921875, -0.40966796875, 0.05859375
67, 3984024839, -6.805625915527344, -0.8764966726303101, 7.107299327850342, -2.5310215950012207, -1.6257917881011963, -2.3197295665740967, 1.118896484375, -0.41015625, 0.06103515625
68, 3984041506, -6.809880256652832, -0.8792796730995178, 7.123420238494873, -2.4572181701660156, -1.5538583993911743, -2.368931293487549, 1.118896484375, -0.407958984375, 0.0595703125
69, 3984058173, -6.806201934814453, -0.8916957378387451, 7.111257553100586, -2.5258092880249023, -1.548505425453186, -2.3692514896392822, 1.120361328125, -0.41015625, 0.05810546875
70, 3984074840, -6.818936347961426, -0.8772240281105042, 7.096780776977539, -2.437816619873047, -1.5253642797470093, -2.4123449325561523, 1.119873046875, -0.4111328125, 0.05908203125
71, 3984091507, -6.817789077758789, -0.8848734498023987, 7.105040073394775, -2.4224493503570557, -1.8340359926223755, -2.3090620040893555, 1.118896484375, -0.41064453125, 0.05908203125
72, 3984108174, -6.821012020111084, -0.8660202026367188, 7.111257553100586, -2.388422727584839, -1.7064719200134277, -2.321701765060425, 1.119873046875, -0.4091796875, 0.060546875
73, 3984124841, -6.801529407501221, -0.8868942260742188, 7.121490001678467, -2.4360365867614746, -1.615431308746338, -2.3339059352874756, 1.116943359375, -0.40869140625, 0.057861328125
74, 3984141508, -6.8161420822143555, -0.9090432524681091, 7.099401950836182, -2.2957048416137695, -1.7181639671325684, -2.263010263442993, 1.117919921875, -0.4091796875, 0.058349609375
75, 3984158175, -6.808782577514648, -0.8924035429954529, 7.091006755828857, -2.3036961555480957, -1.8625431060791016, -2.233184337615967, 1.117431640625, -0.41015625, 0.058349609375
76, 3984174842, -6.804718494415283, -0.8807841539382935, 7.115758895874023, -2.3212151527404785, -1.7497189044952393, -2.1257646083831787, 1.116943359375, -0.41015625, 0.0595703125
77, 3984191509, -6.812252521514893, -0.8710384368896484, 7.142552375793457, -2.3707499504089355, -1.665555477142334, -2.1718544960021973, 1.119384765625, -0.40869140625, 0.05859375
78, 3984208176, -6.8244805335998535, -0.8784602284431458, 7.111583709716797, -2.2452094554901123, -1.7506537437438965, -2.205906629562378, 1.118896484375, -0.40869140625, 0.0595703125
79, 3984224843, -6.804225444793701, -0.8746802806854248, 7.122501373291016, -2.32350754737854, -1.7204307317733765, -2.1668601036071777, 1.117919921875, -0.407470703125, 0.057373046875
80, 3984241510, -6.804363250732422, -0.8840011358261108, 7.117924213409424, -2.2288811206817627, -1.664082646369934, -2.1099870204925537, 1.119384765625, -0.40869140625, 0.05859375
81, 3984258177, -6.8103790283203125, -0.8795666098594666, 7.112005233764648, -2.1930618286132812, -1.741292119026184, -2.1468050479888916, 1.118408203125, -0.40869140625, 0.057861328125
82, 3984274844, -6.806122779846191, -0.8847874402999878, 7.1060791015625, -2.0802760124206543, -1.8655650615692139, -2.120116710662842, 1.118408203125, -0.4091796875, 0.05908203125
83, 3984291511, -6.8096818923950195, -0.8712392449378967, 7.134559631347656, -2.1668341159820557, -1.7280503511428833, -2.0399105548858643, 1.120361328125, -0.4091796875, 0.05810546875
84, 3984308178, -6.799821376800537, -0.8589572906494141, 7.1199951171875, -2.2327868938446045, -1.6464226245880127, -2.1048898696899414, 1.119384765625, -0.41064453125, 0.05810546875
85, 3984324845, -6.807882785797119, -0.8807966709136963, 7.119309425354004, -2.28275728225708, -1.5464563369750977, -2.099191188812256, 1.119384765625, -0.41064453125, 0.05810546875
86, 3984341512, -6.801550388336182, -0.8535685539245605, 7.1249799728393555, -2.225986957550049, -1.5344055891036987, -2.1389293670654297, 1.118408203125, -0.4091796875, 0.05908203125
87, 3984358179, -6.811813831329346, -0.8824504017829895, 7.0925750732421875, -2.3064746856689453, -1.57985520362854, -2.2372052669525146, 1.118896484375, -0.407470703125, 0.05859375
88, 3984374846, -6.818879127502441, -0.8673411011695862, 7.119598388671875, -2.410167932510376, -1.4646623134613037, -2.2595653533935547, 1.118896484375, -0.412109375, 0.05859375
89, 3984391513, -6.801355361938477, -0.8828295469284058, 7.146464824676514, -2.5168192386627197, -1.4379996061325073, -2.291363477706909, 1.117431640625, -0.408203125, 0.060546875
90, 3984408180, -6.799929141998291, -0.8680291771888733, 7.117914199829102, -2.4513533115386963, -1.3359713554382324, -2.340322256088257, 1.118408203125, -0.41015625, 0.06005859375
91, 3984424847, -6.80487585067749, -0.8673260807991028, 7.134599208831787, -2.505434513092041, -1.3306951522827148, -2.291491746902466, 1.115966796875, -0.408203125, 0.058837890625
92, 3984441514, -6.822040557861328, -0.8708208203315735, 7.113598346710205, -2.5158588886260986, -1.2340199947357178, -2.3841071128845215, 1.119384765625, -0.41064453125, 0.057861328125
93, 3984458181, -6.821433067321777, -0.8643820881843567, 7.111830234527588, -2.525719404220581, -1.0588289499282837, -2.234490156173706, 1.116943359375, -0.4111328125, 0.05908203125
94, 3984474848, -6.82174825668335, -0.8774142265319824, 7.112038612365723, -2.439814567565918, -1.1639562845230103, -2.2760212421417236, 1.117431640625, -0.4111328125, 0.060546875
95, 3984491515, -6.812137603759766, -0.8908354640007019, 7.120633125305176, -2.467891216278076, -1.2294766902923584, -2.199512004852295, 1.120361328125, -0.40966796875, 0.060546875
96, 3984508182, -6.808765888214111, -0.8793358206748962, 7.119316101074219, -2.4406986236572266, -1.317607045173645, -2.295602321624756, 1.117919921875, -0.40966796875, 0.06005859375
97, 3984524849, -6.836777210235596, -0.8615070581436157, 7.120590686798096, -2.3638217449188232, -1.468286395072937, -2.236706018447876, 1.117431640625, -0.4091796875, 0.06005859375
98, 3984541516, -6.818755626678467, -0.8882995843887329, 7.099000930786133, -2.524976968765259, -1.4467333555221558, -2.3058090209960938, 1.119873046875, -0.4091796875, 0.06005859375
99, 3984558183, -6.8154168128967285, -0.8664385676383972, 7.1035566329956055, -2.46262264251709, -1.3664758205413818, -2.272883892059326, 1.118896484375, -0.40869140625, 0.058349609375
100, 3984574850, -6.810882091522217, -0.8725413084030151, 7.0918402671813965, -2.4528772830963135, -1.4928874969482422, -2.365333080291748, 1.118896484375, -0.41162109375, 0.0595703125
101, 3984591517, -6.827643871307373, -0.8788771033287048, 7.112905979156494, -2.4943697452545166, -1.4939759969711304, -2.297459125518799, 1.12060546875, -0.41064453125, 0.0595703125
102, 3984608184, -6.821290969848633, -0.8769126534461975, 7.114062786102295, -2.41520094871521, -1.4626004695892334, -2.287226915359497, 1.119873046875, -0.41015625, 0.060546875
103, 3984624851, -6.801811695098877, -0.8890339136123657, 7.0821428298950195, -2.3574185371398926, -1.6975457668304443, -2.2447738647460938, 1.119384765625, -0.40966796875, 0.060546875
104, 3984641518, -6.813588619232178, -0.8733472228050232, 7.103557586669922, -2.2148327827453613, -1.7714383602142334, -2.2551727294921875, 1.119873046875, -0.41064453125, 0.05810546875
105, 3984658185, -6.802969455718994, -0.864346444606781, 7.103777885437012, -2.2469379901885986, -1.9333105087280273, -2.1034040451049805, 1.117919921875, -0.41064453125, 0.05859375
106, 3984674852, -6.810333728790283, -0.8790697455406189, 7.126406192779541, -2.2596547603607178, -1.9470007419586182, -2.266749620437622, 1.118896484375, -0.4111328125, 0.060546875
107, 3984691519, -6.8089823722839355, -0.8864004611968994, 7.106428146362305, -2.275444984436035, -1.8860551118850708, -2.062936305999756, 1.117431640625, -0.4091796875, 0.057373046875
108, 3984708186, -6.821218013763428, -0.8892719149589539, 7.115570068359375, -2.219686269760132, -1.960242509841919, -2.203012466430664, 1.118896484375, -0.41015625, 0.05908203125
109, 3984724853, -6.809681415557861, -0.8501402139663696, 7.0987443923950195, -2.3031070232391357, -1.8893721103668213, -2.1302595138549805, 1.119384765625, -0.41015625, 0.05859375
110, 3984741520, -6.806511402130127, -0.8787924647331238, 7.115635871887207, -2.377601385116577, -1.7277816534042358, -2.236821174621582, 1.118408203125, -0.408203125, 0.057861328125
111, 3984758187, -6.795551300048828, -0.8765170574188232, 7.1227006912231445, -2.457845687866211, -1.5913169384002686, -2.3154773712158203, 1.117431640625, -0.407958984375, 0.0595703125
112, 3984774854, -6.803938865661621, -0.8806707262992859, 7.103351593017578, -2.3980019092559814, -1.6096174716949463, -2.236872434616089, 1.117919921875, -0.41064453125, 0.06103515625
113, 3984791521, -6.800725936889648, -0.8702015280723572, 7.1097493171691895, -2.385694980621338, -1.6477547883987427, -2.108808994293213, 1.11962890625, -0.412109375, 0.060546875
114, 3984808188, -6.810463905334473, -0.8527373671531677, 7.121221542358398, -2.4524290561676025, -1.5321645736694336, -2.206278085708618, 1.116455078125, -0.41064453125, 0.060546875
115, 3984824855, -6.805968284606934, -0.8680142760276794, 7.1405720710754395, -2.438777446746826, -1.4894168376922607, -2.2652127742767334, 1.119873046875, -0.4111328125, 0.05859375
116, 3984841522, -6.822033882141113, -0.875075101852417, 7.111840724945068, -2.5705931186676025, -1.378206729888916, -2.3009555339813232, 1.119384765625, -0.40966796875, 0.05908203125
117, 3984858189, -6.809288501739502, -0.8563528656959534, 7.1179938316345215, -2.562819480895996, -1.3109349012374878, -2.3374149799346924, 1.118408203125, -0.41015625, 0.06005859375
118, 3984874856, -6.814233779907227, -0.8801841735839844, 7.118988990783691, -2.4168014526367188, -1.3928954601287842, -2.3045666217803955, 1.117919921875, -0.41015625, 0.05859375
119, 3984891523, -6.805100440979004, -0.8729592561721802, 7.107477188110352, -2.4370357990264893, -1.3761063814163208, -2.24453067779541, 1.117919921875, -0.4111328125, 0.06103515625
120, 3984908190, -6.807591438293457, -0.8774035573005676, 7.107995510101318, -2.3569061756134033, -1.5365314483642578, -2.2119126319885254, 1.118896484375, -0.41015625, 0.0595703125
121, 3984924857, -6.805199146270752, -0.8874130249023438, 7.141350746154785, -2.264662027359009, -1.5365570783615112, -2.1547961235046387, 1.117919921875, -0.4111328125, 0.05859375
122, 3984941524, -6.813969135284424, -0.8729668259620667, 7.128788471221924, -2.300187110900879, -1.5317033529281616, -2.2011425495147705, 1.119384765625, -0.4111328125, 0.0576171875
123, 3984958191, -6.814254283905029, -0.8815540671348572, 7.1489715576171875, -2.3908300399780273, -1.5415387153625488, -2.1378023624420166, 1.116943359375, -0.40869140625, 0.06005859375
124, 3984974858, -6.82037353515625, -0.8624749183654785, 7.124969959259033, -2.5138096809387207, -1.4414955377578735, -2.1623010635375977, 1.119873046875, -0.41015625, 0.05908203125
125, 3984991525, -6.824355602264404, -0.8728232979774475, 7.091100692749023, -2.379509449005127, -1.548326015472412, -2.1548218727111816, 1.118408203125, -0.41064453125, 0.06103515625
126, 3985008192, -6.801843643188477, -0.8771684765815735, 7.118194580078125, -2.4205539226531982, -1.6847010850906372, -2.12959361076355, 1.12060546875, -0.40966796875, 0.06005859375
127, 3985024859, -6.81003999710083, -0.8803568482398987, 7.11077356338501, -2.4337317943573, -1.614445447921753, -2.1435651779174805, 1.118896484375, -0.41015625, 0.05859375
128, 3985041526, -6.801503658294678, -0.8804938197135925, 7.113193988800049, -2.416161060333252, -1.54249906539917, -2.122293710708618, 1.116943359375, -0.41064453125, 0.056884765625
129, 3985058193, -6.799845218658447, -0.8603944182395935, 7.119868755340576, -2.3413848876953125, -1.4764823913574219, -2.09709095954895, 1.119384765625, -0.41064453125, 0.05810546875
130, 3985074860, -6.823936939239502, -0.8608883619308472, 7.099130630493164, -2.365664482116699, -1.4335336685180664, -2.1889219284057617, 1.116943359375, -0.41064453125, 0.06103515625
131, 3985091527, -6.803203105926514, -0.8675764799118042, 7.1201300621032715, -2.4016387462615967, -1.519153356552124, -2.2983429431915283, 1.119384765625, -0.4111328125, 0.0595703125
132, 3985108194, -6.816184997558594, -0.8548234701156616, 7.119164943695068, -2.6013922691345215, -1.3358943462371826, -2.3412439823150635, 1.117919921875, -0.41064453125, 0.06005859375
133, 3985124861, -6.836050987243652, -0.8571051955223083, 7.124835014343262, -2.7051751613616943, -1.228359580039978, -2.4603817462921143, 1.119384765625, -0.41162109375, 0.06103515625
134, 3985141528, -6.819761276245117, -0.8765372037887573, 7.125851631164551, -2.603659152984619, -1.2539465427398682, -2.445692777633667, 1.118408203125, -0.408203125, 0.06103515625
135, 3985158195, -6.802393436431885, -0.8998956084251404, 7.125034809112549, -2.593951940536499, -1.361724853515625, -2.3396947383880615, 1.118408203125, -0.40966796875, 0.05908203125
136, 3985174862, -6.816818714141846, -0.8587141036987305, 7.1084675788879395, -2.6393630504608154, -1.216001272201538, -2.3904075622558594, 1.120361328125, -0.41015625, 0.06005859375
137, 3985191529, -6.829606056213379, -0.8804624080657959, 7.110771656036377, -2.634932041168213, -1.2035664319992065, -2.337350845336914, 1.118408203125, -0.412109375, 0.0615234375
138, 3985208196, -6.8200602531433105, -0.8773167729377747, 7.102126121520996, -2.5225179195404053, -1.3408889770507812, -2.259206771850586, 1.116943359375, -0.41015625, 0.058349609375
139, 3985224863, -6.806807041168213, -0.873225748538971, 7.1346116065979, -2.424229145050049, -1.4422895908355713, -2.199439287185669, 1.119384765625, -0.41015625, 0.05908203125
140, 3985241530, -6.805867671966553, -0.89225834608078, 7.120650291442871, -2.3866426944732666, -1.5618880987167358, -2.2731270790100098, 1.118408203125, -0.4111328125, 0.0595703125
141, 3985258197, -6.835446834564209, -0.8552433252334595, 7.090972900390625, -2.3885765075683594, -1.5603386163711548, -2.232428550720215, 1.117919921875, -0.40966796875, 0.06103515625
142, 3985274864, -6.815689563751221, -0.8748090863227844, 7.119883060455322, -2.3588268756866455, -1.597489595413208, -2.200002670288086, 1.117431640625, -0.41064453125, 0.06005859375
143, 3985291531, -6.836098670959473, -0.8764753341674805, 7.10223913192749, -2.3951590061187744, -1.641172170639038, -2.2583742141723633, 1.115966796875, -0.412109375, 0.060546875
144, 3985308198, -6.806846618652344, -0.888353705406189, 7.106627464294434, -2.2907228469848633, -1.7434052228927612, -2.2217607498168945, 1.117919921875, -0.41162109375, 0.06103515625
145, 3985324865, -6.816783428192139, -0.8789026737213135, 7.0897111892700195, -2.4151110649108887, -1.6157132387161255, -2.165963888168335, 1.119873046875, -0.407470703125, 0.060546875
146, 3985341532, -6.8088884353637695, -0.8651943802833557, 7.127566337585449, -2.297638177871704, -1.5428320169448853, -2.1354713439941406, 1.119384765625, -0.41064453125, 0.06103515625
147, 3985358199, -6.828341484069824, -0.8689073324203491, 7.129942893981934, -2.362797260284424, -1.5776911973953247, -2.186556100845337, 1.118408203125, -0.40869140625, 0.06103515625
148, 3985374866, -6.811456203460693, -0.8582715392112732, 7.115853786468506, -2.4234862327575684, -1.3427072763442993, -2.112189531326294, 1.12060546875, -0.41064453125, 0.060546875
149, 3985391533, -6.817110061645508, -0.8651314377784729, 7.110128402709961, -2.539332628250122, -1.3243943452835083, -2.2102737426757812, 1.119384765625, -0.40966796875, 0.055908203125
150, 3985408200, -6.818267345428467, -0.8711572289466858, 7.103651523590088, -2.375014305114746, -1.3594835996627808, -2.2106192111968994, 1.119384765625, -0.41015625, 0.06005859375
151, 3985424867, -6.829243183135986, -0.8667598366737366, 7.094367980957031, -2.4395971298217773, -1.3998109102249146, -2.2005791664123535, 1.118408203125, -0.40869140625, 0.056884765625
152, 3985441534, -6.809946537017822, -0.8711249232292175, 7.121123790740967, -2.4706265926361084, -1.4623569250106812, -2.1941630840301514, 1.117919921875, -0.41015625, 0.060546875
153, 3985458201, -6.8126349449157715, -0.8615491986274719, 7.098559379577637, -2.3853745460510254, -1.392357587814331, -2.252572536468506, 1.118896484375, -0.40966796875, 0.05810546875
154, 3985474868, -6.814319610595703, -0.8664722442626953, 7.099577903747559, -2.3853492736816406, -1.553371787071228, -2.291132926940918, 1.119873046875, -0.41015625, 0.05859375
155, 3985491535, -6.819205284118652, -0.8726699352264404, 7.099422931671143, -2.3268368244171143, -1.6716129779815674, -2.243710994720459, 1.119384765625, -0.412109375, 0.0615234375
156, 3985508202, -6.815051078796387, -0.8626827597618103, 7.099823474884033, -2.298227548599243, -1.6152137517929077, -2.2297775745391846, 1.116455078125, -0.41064453125, 0.060546875
157, 3985524869, -6.817387104034424, -0.8663691282272339, 7.114793300628662, -2.43821382522583, -1.399695634841919, -2.3635146617889404, 1.119384765625, -0.40869140625, 0.06103515625
158, 3985541536, -6.808996677398682, -0.8917929530143738, 7.123147964477539, -2.4164812564849854, -1.2776511907577515, -2.265481472015381, 1.118896484375, -0.41015625, 0.05810546875
159, 3985558203, -6.813180923461914, -0.8694499731063843, 7.10872220993042, -2.3270161151885986, -1.4012835025787354, -2.2263965606689453, 1.119384765625, -0.41015625, 0.0595703125
160, 3985574870, -6.818116664886475, -0.8688626885414124, 7.09425163269043, -2.3314599990844727, -1.4134366512298584, -2.0798661708831787, 1.118896484375, -0.41064453125, 0.06103515625
161, 3985591537, -6.826196193695068, -0.8611833453178406, 7.095489978790283, -2.386488914489746, -1.4130140542984009, -2.113124132156372, 1.115966796875, -0.4111328125, 0.057861328125
162, 3985608204, -6.810924053192139, -0.8703248500823975, 7.115761756896973, -2.448561429977417, -1.4113622903823853, -2.2822067737579346, 1.116943359375, -0.41064453125, 0.06005859375
163, 3985624871, -6.83298921585083, -0.8744203448295593, 7.10415506362915, -2.502540349960327, -1.3443595170974731, -2.3017749786376953, 1.119873046875, -0.41064453125, 0.05859375
164, 3985641538, -6.8205342292785645, -0.8783507347106934, 7.104528427124023, -2.5214295387268066, -1.380063533782959, -2.3614909648895264, 1.117431640625, -0.41162109375, 0.0595703125
165, 3985658205, -6.8212409019470215, -0.8591619729995728, 7.09923791885376, -2.525117874145508, -1.3930747509002686, -2.395543098449707, 1.117431640625, -0.41064453125, 0.060546875
166, 3985674872, -6.821992874145508, -0.8865290880203247, 7.087400913238525, -2.4569172859191895, -1.669694185256958, -2.3401944637298584, 1.117919921875, -0.40966796875, 0.0595703125
167, 3985691539, -6.821967124938965, -0.8742468953132629, 7.127551555633545, -2.3186280727386475, -1.7785584926605225, -2.389498472213745, 1.119384765625, -0.4091796875, 0.06005859375
168, 3985708206, -6.814846515655518, -0.8613343238830566, 7.113001823425293, -2.4113075733184814, -1.6022793054580688, -2.3301281929016113, 1.117431640625, -0.41064453125, 0.060546875
169, 3985724873, -6.815844535827637, -0.8785399794578552, 7.110278606414795, -2.353961229324341, -1.6231409311294556, -2.2678639888763428, 1.118896484375, -0.40966796875, 0.05908203125
170, 3985741540, -6.828097343444824, -0.8561862111091614, 7.110204219818115, -2.2770586013793945, -1.730163335800171, -2.1694467067718506, 1.117919921875, -0.41064453125, 0.05859375
171, 3985758207, -6.826953887939453, -0.8610630631446838, 7.125271320343018, -2.3251335620880127, -1.8081414699554443, -2.2898523807525635, 1.119873046875, -0.4091796875, 0.05859375
172, 3985774874, -6.822983264923096, -0.8807745575904846, 7.1147918701171875, -2.40842604637146, -1.8949042558670044, -2.2543015480041504, 1.119873046875, -0.40869140625, 0.060546875
173, 3985791541, -6.8228230476379395, -0.8781867027282715, 7.096830368041992, -2.3774986267089844, -1.6759028434753418, -2.253866195678711, 1.118896484375, -0.4091796875, 0.060546875
174, 3985808208, -6.827536106109619, -0.8845792412757874, 7.096997261047363, -2.3155291080474854, -1.834586501121521, -2.2558515071868896, 1.116943359375, -0.40869140625, 0.058837890625
175, 3985824875, -6.826478004455566, -0.862220823764801, 7.110205173492432, -2.3791892528533936, -1.782451868057251, -2.3490946292877197, 1.115966796875, -0.4111328125, 0.0595703125
176, 3985841542, -6.816887855529785, -0.852762758731842, 7.1306867599487305, -2.5368998050689697, -1.5140053033828735, -2.484624147415161, 1.12109375, -0.41064453125, 0.05908203125
177, 3985858209, -6.818243980407715, -0.8575614094734192, 7.118755340576172, -2.5018234252929688, -1.5119178295135498, -2.4609968662261963, 1.118896484375, -0.41162109375, 0.060546875
178, 3985874876, -6.822792053222656, -0.8657947182655334, 7.109166622161865, -2.4846627712249756, -1.547391414642334, -2.4894907474517822, 1.12109375, -0.41259765625, 0.061767578125
179, 3985891543, -6.8162760734558105, -0.8753185272216797, 7.09994649887085, -2.510237216949463, -1.7240166664123535, -2.554405927658081, 1.118408203125, -0.40966796875, 0.05908203125
180, 3985908210, -6.8191704750061035, -0.8697286248207092, 7.12761926651001, -2.413421154022217, -1.7342361211776733, -2.4717795848846436, 1.118896484375, -0.4091796875, 0.05859375
181, 3985924877, -6.820976734161377, -0.869018018245697, 7.119859218597412, -2.4962525367736816, -1.733903169631958, -2.5128369331359863, 1.117919921875, -0.40966796875, 0.060546875
182, 3985941544, -6.807129859924316, -0.8872413039207458, 7.120525360107422, -2.392303466796875, -1.7259889841079712, -2.5094687938690186, 1.116943359375, -0.4091796875, 0.060546875
183, 3985958211, -6.804683685302734, -0.8776997327804565, 7.119105815887451, -2.3829030990600586, -1.6773244142532349, -2.4003710746765137, 1.118896484375, -0.4091796875, 0.05908203125
184, 3985974878, -6.808142185211182, -0.891211986541748, 7.099226951599121, -2.528332233428955, -1.5786901712417603, -2.4713315963745117, 1.118896484375, -0.41162109375, 0.05859375
185, 3985991545, -6.814871311187744, -0.8781377077102661, 7.099300384521484, -2.3998591899871826, -1.6764283180236816, -2.4466023445129395, 1.12158203125, -0.4111328125, 0.05859375
186, 3986008212, -6.81633996963501, -0.8783246874809265, 7.112458229064941, -2.4631223678588867, -1.8460482358932495, -2.3508360385894775, 1.120849609375, -0.408447265625, 0.0615234375
187, 3986024879, -6.812069892883301, -0.8650359511375427, 7.108828067779541, -2.3539352416992188, -1.8227277994155884, -2.354281187057495, 1.116943359375, -0.40869140625, 0.058837890625
188, 3986041546, -6.813417434692383, -0.8881983160972595, 7.104076862335205, -2.3479931354522705, -1.8948661088943481, -2.261089324951172, 1.117431640625, -0.4091796875, 0.05859375
189, 3986058213, -6.807254314422607, -0.8696147799491882, 7.105445384979248, -2.3771533966064453, -1.922156572341919, -2.3253133296966553, 1.117919921875, -0.40966796875, 0.058349609375
190, 3986074880, -6.818648338317871, -0.8740451335906982, 7.12067985534668, -2.362489938735962, -1.8066558837890625, -2.3129806518554688, 1.119384765625, -0.4111328125, 0.06005859375
191, 3986091547, -6.819339275360107, -0.875162661075592, 7.1382365226745605, -2.377140522003174, -1.852745771408081, -2.3107008934020996, 1.119384765625, -0.41064453125, 0.060546875
192, 3986108214, -6.812766075134277, -0.8663085103034973, 7.1122541427612305, -2.402791738510132, -1.6921288967132568, -2.4323489665985107, 1.116943359375, -0.41015625, 0.0595703125
193, 3986124881, -6.804672718048096, -0.8872713446617126, 7.114297389984131, -2.4575517177581787, -1.6960090398788452, -2.32769513130188, 1.117919921875, -0.40869140625, 0.056884765625
194, 3986141548, -6.802654266357422, -0.8764072060585022, 7.128838062286377, -2.403367519378662, -1.6926919221878052, -2.3773322105407715, 1.119873046875, -0.407958984375, 0.05859375
195, 3986158215, -6.806625843048096, -0.8751440048217773, 7.122726917266846, -2.496610641479492, -1.46662175655365, -2.41689133644104, 1.116943359375, -0.40966796875, 0.05908203125
196, 3986174882, -6.795252799987793, -0.8881493806838989, 7.118290424346924, -2.573474645614624, -1.3651314973831177, -2.45145583152771, 1.119384765625, -0.41064453125, 0.05859375
197, 3986191549, -6.805981636047363, -0.8812246918678284, 7.127913475036621, -2.656920909881592, -1.3405561447143555, -2.429403305053711, 1.119384765625, -0.40869140625, 0.05810546875
198, 3986208216, -6.824305534362793, -0.8933759331703186, 7.095241546630859, -2.6499288082122803, -1.2550609111785889, -2.460228443145752, 1.117431640625, -0.41064453125, 0.05859375
199, 3986224883, -6.813073635101318, -0.87119460105896, 7.111848831176758, -2.6615827083587646, -1.4093389511108398, -2.429492950439453, 1.118896484375, -0.40966796875, 0.060546875
200, 3986241550, -6.811424255371094, -0.8816164135932922, 7.111841201782227, -2.7160351276397705, -1.4472202062606812, -2.553868055343628, 1.119384765625, -0.40869140625, 0.05859375
201, 3986258217, -6.7981276512146, -0.8930612802505493, 7.122631549835205, -2.6712512969970703, -1.4393571615219116, -2.668651819229126, 1.119384765625, -0.40869140625, 0.05908203125
202, 3986274884, -6.818719387054443, -0.8798030018806458, 7.102036476135254, -2.6990067958831787, -1.526911973953247, -2.670808792114258, 1.117919921875, -0.4091796875, 0.05908203125
203, 3986291551, -6.811988830566406, -0.8735692501068115, 7.129807472229004, -2.764608860015869, -1.4372693300247192, -2.7681307792663574, 1.117431640625, -0.4091796875, 0.0595703125
204, 3986308218, -6.80205774307251, -0.9000950455665588, 7.119872570037842, -2.7632131576538086, -1.4156522750854492, -2.6585853099823, 1.116943359375, -0.41015625, 0.0595703125
205, 3986324885, -6.8100972175598145, -0.8992090225219727, 7.114203453063965, -2.681624412536621, -1.3016375303268433, -2.5575051307678223, 1.119384765625, -0.4091796875, 0.06005859375
206, 3986341552, -6.797652721405029, -0.8817609548568726, 7.1295318603515625, -2.6153383255004883, -1.3372520208358765, -2.5483357906341553, 1.118408203125, -0.407958984375, 0.06201171875
207, 3986358219, -6.8192548751831055, -0.8817672729492188, 7.120733261108398, -2.679818868637085, -1.3166083097457886, -2.638031482696533, 1.119384765625, -0.4091796875, 0.060546875
208, 3986374886, -6.808797836303711, -0.8902753591537476, 7.1121907234191895, -2.7351038455963135, -1.4033712148666382, -2.57816219329834, 1.118408203125, -0.408203125, 0.060546875
209, 3986391553, -6.814505577087402, -0.8829632997512817, 7.110491752624512, -2.7498953342437744, -1.3503273725509644, -2.538423776626587, 1.117919921875, -0.408203125, 0.06005859375
210, 3986408220, -6.818141460418701, -0.8795812129974365, 7.118063926696777, -2.6081161499023438, -1.415755033493042, -2.500094413757324, 1.117919921875, -0.40869140625, 0.06103515625
211, 3986424887, -6.812453746795654, -0.8751961588859558, 7.124661445617676, -2.6081416606903076, -1.498227834701538, -2.637608766555786, 1.117919921875, -0.406982421875, 0.058349609375
212, 3986441554, -6.815225601196289, -0.8877518773078918, 7.1299262046813965, -2.7508556842803955, -1.2834655046463013, -2.6075398921966553, 1.120361328125, -0.40869140625, 0.06103515625
213, 3986458221, -6.817972660064697, -0.8892390727996826, 7.095277786254883, -2.8620524406433105, -1.215898871421814, -2.7681052684783936, 1.119384765625, -0.40869140625, 0.06005859375
214, 3986474888, -6.81590461730957, -0.9014735221862793, 7.105164051055908, -2.785252809524536, -1.2915202379226685, -2.720503807067871, 1.117919921875, -0.40966796875, 0.06005859375
215, 3986491555, -6.813816547393799, -0.9179607629776001, 7.112581729888916, -2.671302556991577, -1.4248090982437134, -2.5778932571411133, 1.118896484375, -0.408203125, 0.057373046875
216, 3986508222, -6.815952777862549, -0.9268782734870911, 7.096528053283691, -2.581043243408203, -1.5677790641784668, -2.5246312618255615, 1.118896484375, -0.407470703125, 0.06103515625
217, 3986524889, -6.822015285491943, -0.9242232441902161, 7.108823776245117, -2.3592753410339355, -1.6641724109649658, -2.302300214767456, 1.117919921875, -0.407958984375, 0.058837890625
218, 3986541556, -6.795070171356201, -0.9028581380844116, 7.11322021484375, -2.3877828121185303, -1.8198721408843994, -2.1654770374298096, 1.117431640625, -0.406494140625, 0.06005859375
219, 3986558223, -6.810187339782715, -0.9147723317146301, 7.122910976409912, -2.3006224632263184, -1.6357423067092896, -2.1295039653778076, 1.118896484375, -0.406005859375, 0.06103515625
220, 3986574890, -6.80985689163208, -0.8806226849555969, 7.108503341674805, -2.4761202335357666, -1.2918405532836914, -2.2023978233337402, 1.119873046875, -0.407958984375, 0.05908203125
221, 3986591557, -6.816249370574951, -0.9055436253547668, 7.122824668884277, -2.680561065673828, -1.1956905126571655, -2.3070766925811768, 1.119873046875, -0.406982421875, 0.06103515625
222, 3986608224, -6.825157642364502, -0.9011572003364563, 7.093879699707031, -2.6240596771240234, -0.985692024230957, -2.3346235752105713, 1.117919921875, -0.407470703125, 0.06103515625
223, 3986624891, -6.811682224273682, -0.9245943427085876, 7.098353862762451, -2.516460657119751, -1.2449564933776855, -2.337120532989502, 1.119873046875, -0.406982421875, 0.057373046875
224, 3986641558, -6.813967227935791, -0.9139431715011597, 7.118815898895264, -2.4675915241241455, -1.4350796937942505, -2.202871561050415, 1.119384765625, -0.406005859375, 0.06005859375
225, 3986658225, -6.833431243896484, -0.9131457805633545, 7.097738742828369, -2.3728630542755127, -1.4862536191940308, -2.166245222091675, 1.120361328125, -0.406982421875, 0.060546875
226, 3986674892, -6.819957733154297, -0.907670259475708, 7.1170196533203125, -2.3368515968322754, -1.369933843612671, -2.0859367847442627, 1.118896484375, -0.407470703125, 0.0625
227, 3986691559, -6.8093366622924805, -0.884712815284729, 7.096805095672607, -2.355945587158203, -1.565384030342102, -2.121333122253418, 1.117431640625, -0.407470703125, 0.060546875
228, 3986708226, -6.815487861633301, -0.8853799700737, 7.083795547485352, -2.3279380798339844, -1.4900058507919312, -2.2051637172698975, 1.116943359375, -0.408203125, 0.06201171875
229, 3986724893, -6.818207740783691, -0.8870601654052734, 7.100118637084961, -2.3062446117401123, -1.5644365549087524, -2.2262558937072754, 1.119384765625, -0.406494140625, 0.05908203125
230, 3986741560, -6.817870140075684, -0.9072675108909607, 7.114025115966797, -2.307819366455078, -1.4651615619659424, -2.250267744064331, 1.120361328125, -0.406005859375, 0.05859375
231, 3986758227, -6.829595565795898, -0.9207474589347839, 7.105270862579346, -2.239971399307251, -1.6292495727539062, -2.0720162391662598, 1.116943359375, -0.407470703125, 0.0615234375
232, 3986774894, -6.810230731964111, -0.9211618304252625, 7.122291088104248, -2.141669988632202, -1.8327041864395142, -1.974969744682312, 1.118896484375, -0.407470703125, 0.05908203125
233, 3986791561, -6.813980579376221, -0.8990640640258789, 7.1335530281066895, -2.0378873348236084, -2.0458271503448486, -1.9303009510040283, 1.117919921875, -0.407470703125, 0.06103515625
234, 3986808228, -6.808924198150635, -0.9187985062599182, 7.114511966705322, -2.0108916759490967, -1.9381000995635986, -1.8627734184265137, 1.118408203125, -0.406982421875, 0.0595703125
235, 3986824895, -6.8231048583984375, -0.9019721150398254, 7.1220197677612305, -2.161942481994629, -1.7544701099395752, -1.9039201736450195, 1.117919921875, -0.407470703125, 0.06103515625
236, 3986841562, -6.807723045349121, -0.8963367938995361, 7.118668079376221, -2.24753999710083, -1.563437581062317, -1.955324649810791, 1.119873046875, -0.406982421875, 0.06005859375
237, 3986858229, -6.812778949737549, -0.897248387336731, 7.120199680328369, -2.3404881954193115, -1.4854211807250977, -2.0100972652435303, 1.120849609375, -0.407958984375, 0.0595703125
238, 3986874896, -6.813412666320801, -0.9019920825958252, 7.112556457519531, -2.289292097091675, -1.3671364784240723, -1.8956612348556519, 1.118896484375, -0.4091796875, 0.06201171875
239, 3986891563, -6.804371356964111, -0.926513671875, 7.120570659637451, -2.2827444076538086, -1.4512923955917358, -1.885581374168396, 1.118408203125, -0.40966796875, 0.06103515625
240, 3986908230, -6.803326606750488, -0.8935509324073792, 7.131672382354736, -2.243966817855835, -1.4775197505950928, -1.6782335042953491, 1.119384765625, -0.406494140625, 0.06103515625
241, 3986924897, -6.8325371742248535, -0.8803755640983582, 7.102297782897949, -2.2256669998168945, -1.41706120967865, -1.6967519521713257, 1.119873046875, -0.407470703125, 0.060546875
242, 3986941564, -6.828613758087158, -0.8847405314445496, 7.106987476348877, -2.179551124572754, -1.4580669403076172, -1.7925174236297607, 1.118896484375, -0.4091796875, 0.0595703125
243, 3986958231, -6.820468902587891, -0.9039801359176636, 7.111207485198975, -2.1728150844573975, -1.492541790008545, -1.793900728225708, 1.118896484375, -0.40966796875, 0.062744140625
244, 3986974898, -6.824515342712402, -0.8735406398773193, 7.104931831359863, -2.1612765789031982, -1.5798680782318115, -1.8469444513320923, 1.118408203125, -0.40966796875, 0.0615234375
245, 3986991565, -6.809875011444092, -0.8702521920204163, 7.124790191650391, -2.3849775791168213, -1.4449148178100586, -2.0110065937042236, 1.118896484375, -0.41064453125, 0.06005859375
246, 3987008232, -6.8173828125, -0.8880709409713745, 7.106359481811523, -2.3740153312683105, -1.253523826599121, -1.8945201635360718, 1.118896484375, -0.40869140625, 0.057861328125
247, 3987024899, -6.825313568115234, -0.8875374794006348, 7.112370014190674, -2.366792917251587, -1.289241075515747, -1.9758789539337158, 1.118408203125, -0.4091796875, 0.06005859375
248, 3987041566, -6.827760219573975, -0.8838223814964294, 7.097874641418457, -2.255300760269165, -1.4858951568603516, -1.9331954717636108, 1.119384765625, -0.4091796875, 0.05859375
249, 3987058233, -6.82362174987793, -0.8793100714683533, 7.112654209136963, -2.319127321243286, -1.4143716096878052, -1.9002315998077393, 1.118896484375, -0.41064453125, 0.060546875
250, 3987074900, -6.817898273468018, -0.8909731507301331, 7.119123458862305, -2.3722479343414307, -1.526568055152893, -2.0079970359802246, 1.117919921875, -0.41015625, 0.06005859375
251, 3987091567, -6.803226470947266, -0.8647584915161133, 7.121893405914307, -2.5139119625091553, -1.4088904857635498, -2.085437059402466, 1.118896484375, -0.412109375, 0.06005859375
252, 3987108234, -6.8206353187561035, -0.8801879286766052, 7.102716445922852, -2.4365615844726562, -1.3473559617996216, -2.032393217086792, 1.119873046875, -0.41064453125, 0.062255859375
253, 3987124901, -6.830370903015137, -0.8720920085906982, 7.09849739074707, -2.277097463607788, -1.3899757862091064, -2.050386428833008, 1.120361328125, -0.41015625, 0.05908203125
254, 3987141568, -6.828699111938477, -0.8832005858421326, 7.121863842010498, -2.26143479347229, -1.5446633100509644, -1.9827558994293213, 1.116455078125, -0.41015625, 0.05908203125
255, 3987158235, -6.832266807556152, -0.8744894862174988, 7.119441032409668, -2.1496353149414062, -1.558686375617981, -1.8808940649032593, 1.117919921875, -0.41064453125, 0.06103515625
256, 3987174902, -6.817707061767578, -0.8683275580406189, 7.100873947143555, -2.181830406188965, -1.4476808309555054, -1.96965491771698, 1.119384765625, -0.408447265625, 0.0615234375
257, 3987191569, -6.841129302978516, -0.8783327341079712, 7.109006881713867, -2.2536613941192627, -1.5697896480560303, -2.0428690910339355, 1.120361328125, -0.41015625, 0.06201171875
258, 3987208236, -6.837236404418945, -0.8552398681640625, 7.114561557769775, -2.2782623767852783, -1.5536277294158936, -1.9868922233581543, 1.117431640625, -0.41064453125, 0.0615234375
259, 3987224903, -6.824001789093018, -0.8637810945510864, 7.10706901550293, -2.423614501953125, -1.4867277145385742, -2.073309898376465, 1.118408203125, -0.408203125, 0.060546875
260, 3987241570, -6.825037479400635, -0.8795498013496399, 7.083409786224365, -2.3378117084503174, -1.4019238948822021, -2.106337070465088, 1.1201171875, -0.4111328125, 0.06103515625
261, 3987258237, -6.81582498550415, -0.887586772441864, 7.1069231033325195, -2.4053142070770264, -1.3693572282791138, -2.0510008335113525, 1.118408203125, -0.41015625, 0.06103515625
262, 3987274904, -6.821794509887695, -0.8902925848960876, 7.100015640258789, -2.2893142700195312, -1.2839388847351074, -2.0038864612579346, 1.119384765625, -0.41015625, 0.06201171875
263, 3987291571, -6.829919815063477, -0.8748481273651123, 7.1000494956970215, -2.2810540199279785, -1.3317322731018066, -1.9676697254180908, 1.118896484375, -0.4111328125, 0.06103515625
264, 3987308238, -6.827085494995117, -0.8661527633666992, 7.108608245849609, -2.1844687461853027, -1.4056761264801025, -1.9700133800506592, 1.1201171875, -0.41064453125, 0.06201171875
265, 3987324905, -6.825852394104004, -0.8626049160957336, 7.111365795135498, -2.2814385890960693, -1.3836363554000854, -1.8834940195083618, 1.119873046875, -0.40869140625, 0.06005859375
266, 3987341572, -6.841494083404541, -0.849870502948761, 7.119379997253418, -2.3828392028808594, -1.3102176189422607, -1.9685794115066528, 1.119873046875, -0.41162109375, 0.06005859375
267, 3987358239, -6.818675994873047, -0.8624776005744934, 7.128998756408691, -2.38741135597229, -1.1894538402557373, -2.0859625339508057, 1.118896484375, -0.40966796875, 0.05908203125
268, 3987374906, -6.836512088775635, -0.868797242641449, 7.096737384796143, -2.448369026184082, -1.2653952836990356, -2.1043264865875244, 1.119873046875, -0.41162109375, 0.06005859375
269, 3987391573, -6.826616287231445, -0.8665785193443298, 7.100131034851074, -2.419734239578247, -1.2523713111877441, -2.1552700996398926, 1.1201171875, -0.41064453125, 0.06201171875
270, 3987408240, -6.831830978393555, -0.8556497097015381, 7.094315052032471, -2.501720428466797, -1.1568615436553955, -2.1608028411865234, 1.119384765625, -0.4111328125, 0.06103515625
271, 3987424907, -6.843896389007568, -0.8736039400100708, 7.106192111968994, -2.483522653579712, -1.2399876117706299, -2.174262285232544, 1.1201171875, -0.4111328125, 0.06201171875
272, 3987441574, -6.821942329406738, -0.8615590929985046, 7.113844394683838, -2.516767740249634, -1.2254139184951782, -2.1003949642181396, 1.118896484375, -0.4091796875, 0.060546875
273, 3987458241, -6.841420650482178, -0.8698372840881348, 7.114498138427734, -2.3785102367401123, -1.357293725013733, -2.1370081901550293, 1.117919921875, -0.40966796875, 0.06103515625
274, 3987474908, -6.838775634765625, -0.8712347149848938, 7.073931694030762, -2.2687649726867676, -1.4739353656768799, -2.0683321952819824, 1.119384765625, -0.41162109375, 0.062744140625
275, 3987491575, -6.841013431549072, -0.87819504737854, 7.108306407928467, -2.2803497314453125, -1.6189786195755005, -2.0741288661956787, 1.1201171875, -0.4111328125, 0.06201171875
276, 3987508242, -6.83616828918457, -0.8541824221611023, 7.096037864685059, -2.241380214691162, -1.5612990856170654, -2.0994858741760254, 1.118896484375, -0.41259765625, 0.0615234375
277, 3987524909, -6.821911811828613, -0.8708949685096741, 7.095856189727783, -2.318538188934326, -1.6178004741668701, -2.065664052963257, 1.12060546875, -0.4111328125, 0.06103515625
278, 3987541576, -6.82977819442749, -0.8587241768836975, 7.101149082183838, -2.3038110733032227, -1.424283742904663, -2.1562817096710205, 1.119384765625, -0.41015625, 0.06005859375
279, 3987558243, -6.833836555480957, -0.8640617728233337, 7.095440864562988, -2.2539689540863037, -1.441802740097046, -2.227651596069336, 1.119873046875, -0.4111328125, 0.06201171875
280, 3987574910, -6.838508129119873, -0.8631412982940674, 7.084230422973633, -2.2672104835510254, -1.5705960988998413, -2.1417465209960938, 1.118408203125, -0.41015625, 0.06298828125
281, 3987591577, -6.846864223480225, -0.8694969415664673, 7.0853776931762695, -2.2623822689056396, -1.652083158493042, -2.1681787967681885, 1.1201171875, -0.413818359375, 0.06103515625
282, 3987608244, -6.835509300231934, -0.8645901083946228, 7.080921649932861, -2.259974956512451, -1.6586655378341675, -2.16709041595459, 1.1201171875, -0.4111328125, 0.0615234375
283, 3987624911, -6.8250861167907715, -0.8634388446807861, 7.098275661468506, -2.270514726638794, -1.79788339138031, -2.2432496547698975, 1.118408203125, -0.41162109375, 0.06005859375
284, 3987641578, -6.817200660705566, -0.8592578768730164, 7.104841232299805, -2.274932861328125, -1.7401012182235718, -2.228970766067505, 1.119873046875, -0.41015625, 0.060546875
285, 3987658245, -6.836403846740723, -0.8590746521949768, 7.114674091339111, -2.5096728801727295, -1.4810799360275269, -2.264137029647827, 1.11962890625, -0.41162109375, 0.06201171875
286, 3987674912, -6.84022331237793, -0.8508065938949585, 7.104103088378906, -2.4349865913391113, -1.414013147354126, -2.3003406524658203, 1.11962890625, -0.41259765625, 0.0615234375
287, 3987691579, -6.816668510437012, -0.8733164668083191, 7.102569103240967, -2.4004735946655273, -1.3946115970611572, -2.239331007003784, 1.1201171875, -0.412109375, 0.062255859375
288, 3987708246, -6.823519229888916, -0.8771171569824219, 7.112477779388428, -2.4428367614746094, -1.4711421728134155, -2.235130548477173, 1.118896484375, -0.41064453125, 0.06103515625
289, 3987724913, -6.824329376220703, -0.8591973185539246, 7.111396789550781, -2.4725093841552734, -1.4722436666488647, -2.2328128814697266, 1.118408203125, -0.41162109375, 0.060546875
290, 3987741580, -6.834010124206543, -0.8430356383323669, 7.103955268859863, -2.4719715118408203, -1.332667350769043, -2.3691365718841553, 1.117431640625, -0.41162109375, 0.0615234375
291, 3987758247, -6.8290534019470215, -0.8737043142318726, 7.0986247062683105, -2.5096349716186523, -1.2765241861343384, -2.3559203147888184, 1.12109375, -0.4091796875, 0.05908203125
292, 3987774914, -6.829232215881348, -0.8690101504325867, 7.107612133026123, -2.4761719703674316, -1.428497314453125, -2.390907049179077, 1.118896484375, -0.41162109375, 0.060546875
293, 3987791581, -6.830405235290527, -0.8623702526092529, 7.104158878326416, -2.5217113494873047, -1.5155930519104004, -2.4194014072418213, 1.118896484375, -0.41015625, 0.063232421875
294, 3987808248, -6.834025859832764, -0.8746913075447083, 7.100461006164551, -2.391214609146118, -1.544958233833313, -2.3336756229400635, 1.118896484375, -0.4130859375, 0.06201171875
295, 3987824915, -6.822824954986572, -0.8725706934928894, 7.0982561111450195, -2.3510026931762695, -1.4876497983932495, -2.300865888595581, 1.1201171875, -0.41162109375, 0.06103515625
296, 3987841582, -6.841537952423096, -0.8621786832809448, 7.102863788604736, -2.412754774093628, -1.6273541450500488, -2.1634409427642822, 1.11962890625, -0.412109375, 0.06005859375
297, 3987858249, -6.8368659019470215, -0.8618009686470032, 7.125024318695068, -2.411013126373291, -1.4253722429275513, -2.267223358154297, 1.118896484375, -0.4091796875, 0.06201171875
298, 3987874916, -6.829090118408203, -0.8606770634651184, 7.095414638519287, -2.519329309463501, -1.4261409044265747, -2.342153310775757, 1.12158203125, -0.4111328125, 0.06005859375
299, 3987891583, -6.825523376464844, -0.8702516555786133, 7.121189117431641, -2.4684624671936035, -1.4497172832489014, -2.30041766166687, 1.118896484375, -0.4111328125, 0.0625
300, 3987908250, -6.817440509796143, -0.8605927228927612, 7.093245983123779, -2.5503592491149902, -1.3158526420593262, -2.3181543350219727, 1.117919921875, -0.4130859375, 0.06201171875
301, 3987924917, -6.8350701332092285, -0.8638324737548828, 7.084496021270752, -2.510390281677246, -1.2797130346298218, -2.413996934890747, 1.118896484375, -0.41015625, 0.063232421875
302, 3987941584, -6.843581199645996, -0.8628401756286621, 7.096310615539551, -2.4567832946777344, -1.3388655185699463, -2.4429264068603516, 1.119873046875, -0.41015625, 0.06201171875
303, 3987958251, -6.840070724487305, -0.8629208207130432, 7.108263969421387, -2.3112258911132812, -1.557124137878418, -2.363079071044922, 1.1201171875, -0.4111328125, 0.064208984375
304, 3987974918, -6.835306644439697, -0.8502612709999084, 7.118666172027588, -2.3539481163024902, -1.6426321268081665, -2.3690080642700195, 1.116943359375, -0.412109375, 0.06201171875
305, 3987991585, -6.849714756011963, -0.8647539019584656, 7.1095757484436035, -2.361311674118042, -1.624139666557312, -2.334508180618286, 1.118896484375, -0.4111328125, 0.064697265625
306, 3988008252, -6.848128795623779, -0.8622076511383057, 7.1137261390686035, -2.3875136375427246, -1.6350891590118408, -2.4180309772491455, 1.118896484375, -0.4111328125, 0.0625
307, 3988024919, -6.830948352813721, -0.8679624795913696, 7.113018989562988, -2.538705587387085, -1.587936520576477, -2.3982582092285156, 1.119384765625, -0.4091796875, 0.060546875
308, 3988041586, -6.8307013511657715, -0.8557533621788025, 7.098148822784424, -2.4212582111358643, -1.630133032798767, -2.3924307823181152, 1.118408203125, -0.41015625, 0.0625
309, 3988058253, -6.82759428024292, -0.8577526211738586, 7.0888237953186035, -2.40195894241333, -1.5670747756958008, -2.4475111961364746, 1.118896484375, -0.41064453125, 0.063720703125
310, 3988074920, -6.832646369934082, -0.8714420795440674, 7.085960865020752, -2.3710429668426514, -1.7394206523895264, -2.3940422534942627, 1.118408203125, -0.4091796875, 0.0615234375
311, 3988091587, -6.82790994644165, -0.8449639081954956, 7.107906341552734, -2.2677743434906006, -1.742598533630371, -2.402266263961792, 1.1220703125, -0.412109375, 0.061767578125
312, 3988108254, -6.83657169342041, -0.853851318359375, 7.09341287612915, -2.378856658935547, -1.7221598625183105, -2.4455647468566895, 1.118896484375, -0.41064453125, 0.06201171875
313, 3988124921, -6.829837799072266, -0.8636372685432434, 7.088411331176758, -2.4733035564422607, -1.73259699344635, -2.4549648761749268, 1.118896484375, -0.41064453125, 0.0595703125
314, 3988141588, -6.828954696655273, -0.8578333854675293, 7.10272216796875, -2.4432339668273926, -1.6802189350128174, -2.447690725326538, 1.117919921875, -0.41064453125, 0.0625
315, 3988158255, -6.824448108673096, -0.8650684952735901, 7.100222110748291, -2.4638779163360596, -1.539797306060791, -2.464428663253784, 1.119384765625, -0.41259765625, 0.0615234375
316, 3988174922, -6.832326889038086, -0.8810175657272339, 7.100488185882568, -2.4456028938293457, -1.5879619121551514, -2.4814224243164062, 1.119873046875, -0.4111328125, 0.06103515625
317, 3988191589, -6.818702697753906, -0.8813487887382507, 7.094053268432617, -2.4255611896514893, -1.6065309047698975, -2.3412184715270996, 1.119384765625, -0.41259765625, 0.060546875
318, 3988208256, -6.828526973724365, -0.8741822838783264, 7.092311859130859, -2.4134461879730225, -1.6299667358398438, -2.292208671569824, 1.119384765625, -0.41064453125, 0.05908203125
319, 3988224923, -6.81680154800415, -0.853101372718811, 7.08729362487793, -2.4565908908843994, -1.6156877279281616, -2.313774585723877, 1.1201171875, -0.41064453125, 0.062255859375
320, 3988241590, -6.822059631347656, -0.869384765625, 7.10575532913208, -2.48653244972229, -1.6140869855880737, -2.4187357425689697, 1.118408203125, -0.41015625, 0.06005859375
321, 3988258257, -6.809810638427734, -0.882249653339386, 7.120288372039795, -2.4015491008758545, -1.5543707609176636, -2.438124179840088, 1.119384765625, -0.40869140625, 0.0625
322, 3988274924, -6.823782444000244, -0.880735456943512, 7.099314212799072, -2.558401584625244, -1.5398229360580444, -2.4612014293670654, 1.12060546875, -0.41064453125, 0.062744140625
323, 3988291591, -6.8221235275268555, -0.8727511167526245, 7.091531276702881, -2.5399603843688965, -1.6373432874679565, -2.4248697757720947, 1.118896484375, -0.41015625, 0.0625
324, 3988308258, -6.8237128257751465, -0.8784984946250916, 7.09370231628418, -2.464902639389038, -1.587231993675232, -2.4478702545166016, 1.1201171875, -0.41162109375, 0.06201171875
325, 3988324925, -6.82136344909668, -0.8701533079147339, 7.097851276397705, -2.5299971103668213, -1.5569065809249878, -2.522057294845581, 1.120361328125, -0.408447265625, 0.06201171875
326, 3988341592, -6.817655086517334, -0.8581500053405762, 7.105654239654541, -2.520110845565796, -1.5818535089492798, -2.398347854614258, 1.117919921875, -0.41064453125, 0.060546875
327, 3988358259, -6.833470821380615, -0.8696399331092834, 7.100144386291504, -2.5553667545318604, -1.4858571290969849, -2.507534980773926, 1.118896484375, -0.41015625, 0.060546875
328, 3988374926, -6.832021713256836, -0.8810247778892517, 7.081917762756348, -2.4296717643737793, -1.546046495437622, -2.4821393489837646, 1.1220703125, -0.41259765625, 0.060546875
329, 3988391593, -6.847706317901611, -0.8839361071586609, 7.101487159729004, -2.3770382404327393, -1.5226880311965942, -2.369917392730713, 1.1220703125, -0.40966796875, 0.062744140625
330, 3988408260, -6.823729515075684, -0.872326672077179, 7.094405174255371, -2.417403221130371, -1.5951076745986938, -2.3656656742095947, 1.12060546875, -0.41015625, 0.062255859375
331, 3988424927, -6.824102878570557, -0.8704769015312195, 7.107558727264404, -2.2786850929260254, -1.6903998851776123, -2.360530376434326, 1.116455078125, -0.41015625, 0.0615234375
332, 3988441594, -6.82902193069458, -0.8741378784179688, 7.0957441329956055, -2.3457136154174805, -1.7220956087112427, -2.4215784072875977, 1.119873046875, -0.4091796875, 0.06005859375
333, 3988458261, -6.837890148162842, -0.8774721026420593, 7.116392135620117, -2.461022138595581, -1.7571593523025513, -2.4214248657226562, 1.118896484375, -0.41064453125, 0.06201171875
334, 3988474928, -6.8409504890441895, -0.8600044250488281, 7.122785568237305, -2.376013994216919, -1.6631866693496704, -2.5016696453094482, 1.119384765625, -0.41015625, 0.060546875
335, 3988491595, -6.835574150085449, -0.8731871843338013, 7.100673198699951, -2.5612828731536865, -1.6369719505310059, -2.497981309890747, 1.118896484375, -0.41015625, 0.06201171875
336, 3988508262, -6.823854446411133, -0.8809383511543274, 7.0977678298950195, -2.585909605026245, -1.6512893438339233, -2.6165683269500732, 1.118896484375, -0.41015625, 0.062744140625
337, 3988524929, -6.831171989440918, -0.894075870513916, 7.109434604644775, -2.557377338409424, -1.6764922142028809, -2.49859619140625, 1.119873046875, -0.41015625, 0.0595703125
338, 3988541596, -6.8229570388793945, -0.8648400902748108, 7.07492733001709, -2.592146396636963, -1.6486257314682007, -2.55808162689209, 1.118896484375, -0.40966796875, 0.06005859375
339, 3988558263, -6.826663017272949, -0.8664895296096802, 7.104555130004883, -2.548246383666992, -1.70811128616333, -2.6128029823303223, 1.12109375, -0.41015625, 0.05908203125
340, 3988574930, -6.812000274658203, -0.879664957523346, 7.101587772369385, -2.601623058319092, -1.6942546367645264, -2.636507749557495, 1.118896484375, -0.41064453125, 0.060546875
341, 3988591597, -6.827823638916016, -0.8814743757247925, 7.122142791748047, -2.5204436779022217, -1.6563223600387573, -2.5438921451568604, 1.119873046875, -0.41015625, 0.0615234375
342, 3988608264, -6.802454471588135, -0.9069159030914307, 7.105095386505127, -2.5361056327819824, -1.7486557960510254, -2.396157741546631, 1.119384765625, -0.407958984375, 0.06005859375
343, 3988624931, -6.822549819946289, -0.8950864672660828, 7.1078267097473145, -2.4760565757751465, -1.4989192485809326, -2.3555362224578857, 1.118408203125, -0.4091796875, 0.06103515625
344, 3988641598, -6.835115909576416, -0.8695626258850098, 7.084081172943115, -2.5661752223968506, -1.4288944005966187, -2.4535560607910156, 1.12109375, -0.4091796875, 0.05908203125
345, 3988658265, -6.830757141113281, -0.9093948602676392, 7.100027084350586, -2.6049270629882812, -1.4744210243225098, -2.46903920173645, 1.117919921875, -0.4091796875, 0.06005859375
346, 3988674932, -6.83603048324585, -0.8685765266418457, 7.095468044281006, -2.6065375804901123, -1.4596185684204102, -2.450399398803711, 1.117431640625, -0.407470703125, 0.06005859375
347, 3988691599, -6.833464622497559, -0.8845217823982239, 7.104602813720703, -2.5359907150268555, -1.4792104959487915, -2.4938066005706787, 1.12060546875, -0.4091796875, 0.0615234375
348, 3988708266, -6.818614482879639, -0.8828389048576355, 7.1046462059021, -2.590993881225586, -1.5684963464736938, -2.6499414443969727, 1.118408203125, -0.408203125, 0.05908203125
349, 3988724933, -6.824855804443359, -0.8883920907974243, 7.112380027770996, -2.5409722328186035, -1.5609663724899292, -2.584270715713501, 1.118896484375, -0.40966796875, 0.06103515625
350, 3988741600, -6.816628456115723, -0.8792535662651062, 7.11213493347168, -2.618783712387085, -1.53192138671875, -2.609947443008423, 1.117431640625, -0.4091796875, 0.06103515625
351, 3988758267, -6.806631565093994, -0.8767802715301514, 7.1097798347473145, -2.554175615310669, -1.5281435251235962, -2.558785915374756, 1.117431640625, -0.406982421875, 0.060546875
352, 3988774934, -6.835601329803467, -0.8830590844154358, 7.091035842895508, -2.5475165843963623, -1.4676591157913208, -2.62882399559021, 1.119873046875, -0.406494140625, 0.06103515625
353, 3988791601, -6.821306228637695, -0.8994706869125366, 7.104928970336914, -2.6065664291381836, -1.5306408405303955, -2.667562961578369, 1.119384765625, -0.40966796875, 0.06103515625
354, 3988808268, -6.830299377441406, -0.878131091594696, 7.097975254058838, -2.6220364570617676, -1.572619915008545, -2.584052801132202, 1.119873046875, -0.40869140625, 0.05859375
355, 3988824935, -6.821470260620117, -0.8987674117088318, 7.108521938323975, -2.636366605758667, -1.511162281036377, -2.7025625705718994, 1.118408203125, -0.406982421875, 0.06103515625
356, 3988841602, -6.829197883605957, -0.9230935573577881, 7.101968765258789, -2.5839757919311523, -1.6095024347305298, -2.6265058517456055, 1.118408203125, -0.408203125, 0.060546875
357, 3988858269, -6.8287835121154785, -0.9044011235237122, 7.112658977508545, -2.5425732135772705, -1.5263123512268066, -2.649275779724121, 1.117919921875, -0.407470703125, 0.06005859375
358, 3988874936, -6.831851482391357, -0.9039982557296753, 7.100128173828125, -2.524951696395874, -1.6305816173553467, -2.604978322982788, 1.119384765625, -0.40966796875, 0.060546875
359, 3988891603, -6.823533058166504, -0.8964245319366455, 7.094541549682617, -2.594028949737549, -1.4869327545166016, -2.6123805046081543, 1.119384765625, -0.407470703125, 0.0615234375
360, 3988908270, -6.824447154998779, -0.9107124209403992, 7.114906311035156, -2.628119468688965, -1.4882134199142456, -2.6804466247558594, 1.118896484375, -0.408203125, 0.060546875
361, 3988924937, -6.810492992401123, -0.8667675852775574, 7.093044757843018, -2.893620252609253, -1.257583498954773, -2.887434720993042, 1.117919921875, -0.40966796875, 0.060546875
362, 3988941604, -6.824638843536377, -0.9032361507415771, 7.079408168792725, -3.055697441101074, -1.1773004531860352, -3.0218117237091064, 1.119873046875, -0.407958984375, 0.05908203125
363, 3988958271, -6.843020915985107, -0.9039260149002075, 7.094557285308838, -3.0508315563201904, -1.1997629404067993, -3.0496020317077637, 1.118896484375, -0.406494140625, 0.06298828125
364, 3988974938, -6.8130717277526855, -0.9314262270927429, 7.118002414703369, -2.9846608638763428, -1.2616559267044067, -2.8925187587738037, 1.118408203125, -0.406494140625, 0.06103515625
365, 3988991605, -6.817237377166748, -0.9050885438919067, 7.116724014282227, -2.9316556453704834, -1.3493667840957642, -2.867008924484253, 1.119873046875, -0.406982421875, 0.06103515625
366, 3989008272, -6.827131271362305, -0.9188050627708435, 7.093852996826172, -2.8759984970092773, -1.425897240638733, -2.743452548980713, 1.117431640625, -0.406982421875, 0.06005859375
367, 3989024939, -6.830898284912109, -0.9254270792007446, 7.109482288360596, -2.785227060317993, -1.3519536256790161, -2.7898378372192383, 1.119873046875, -0.405517578125, 0.0615234375
368, 3989041606, -6.827385902404785, -0.9152083396911621, 7.096311569213867, -2.6803951263427734, -1.4935535192489624, -2.6798698902130127, 1.117919921875, -0.406005859375, 0.060546875
369, 3989058273, -6.823093414306641, -0.9244388341903687, 7.087660789489746, -2.6535017490386963, -1.4947445392608643, -2.5974864959716797, 1.117919921875, -0.406494140625, 0.06103515625
370, 3989074940, -6.825188636779785, -0.9276976585388184, 7.10181999206543, -2.622330904006958, -1.4535592794418335, -2.4885172843933105, 1.119873046875, -0.405517578125, 0.0615234375
371, 3989091607, -6.82927131652832, -0.9146149754524231, 7.098764896392822, -2.611778497695923, -1.3654900789260864, -2.4393410682678223, 1.118408203125, -0.403564453125, 0.0595703125
372, 3989108274, -6.823467254638672, -0.9274385571479797, 7.086482048034668, -2.5786993503570557, -1.3969422578811646, -2.408900022506714, 1.118408203125, -0.406494140625, 0.06103515625
373, 3989124941, -6.832619667053223, -0.9203401803970337, 7.063781261444092, -2.4712672233581543, -1.3928186893463135, -2.1595094203948975, 1.120849609375, -0.405517578125, 0.06201171875
374, 3989141608, -6.821159839630127, -0.9295690059661865, 7.104367256164551, -2.4722275733947754, -1.393932819366455, -2.263087272644043, 1.119384765625, -0.404541015625, 0.05908203125
375, 3989158275, -6.820538520812988, -0.9152488112449646, 7.1160664558410645, -2.448228359222412, -1.338110089302063, -2.272153854370117, 1.119873046875, -0.405517578125, 0.06201171875
376, 3989174942, -6.834551811218262, -0.9178692102432251, 7.11789608001709, -2.5017335414886475, -1.395111083984375, -2.398322343826294, 1.119873046875, -0.407958984375, 0.0625
377, 3989191609, -6.821781158447266, -0.9298437833786011, 7.10605525970459, -2.4191324710845947, -1.404267430305481, -2.3637704849243164, 1.119873046875, -0.404541015625, 0.06201171875
378, 3989208276, -6.821375370025635, -0.9423745274543762, 7.082947731018066, -2.441326141357422, -1.4494612216949463, -2.31130313873291, 1.116943359375, -0.404052734375, 0.060546875
379, 3989224943, -6.8326191902160645, -0.919957160949707, 7.100203037261963, -2.410641670227051, -1.4624210596084595, -2.242814540863037, 1.118408203125, -0.405029296875, 0.06201171875
380, 3989241610, -6.815743923187256, -0.9364345669746399, 7.085813522338867, -2.414470911026001, -1.3707789182662964, -2.1498405933380127, 1.120361328125, -0.405517578125, 0.0615234375
381, 3989258277, -6.811923027038574, -0.9235711693763733, 7.104124069213867, -2.321253538131714, -1.3739805221557617, -2.1271092891693115, 1.120361328125, -0.404541015625, 0.0615234375
382, 3989274944, -6.827413558959961, -0.9335047602653503, 7.077720642089844, -2.24057936668396, -1.4518070220947266, -1.8998103141784668, 1.120361328125, -0.405517578125, 0.0625
383, 3989291611, -6.845963478088379, -0.9233472347259521, 7.077468395233154, -2.258143663406372, -1.624293327331543, -2.0233263969421387, 1.12255859375, -0.405029296875, 0.063720703125
384, 3989308278, -6.837609767913818, -0.9137563109397888, 7.080039978027344, -2.324122190475464, -1.7201874256134033, -2.095336675643921, 1.117431640625, -0.405517578125, 0.06201171875
385, 3989324945, -6.831160545349121, -0.9168956279754639, 7.096844673156738, -2.3002634048461914, -1.6855716705322266, -2.1298751831054688, 1.119384765625, -0.406005859375, 0.06103515625
386, 3989341612, -6.835438251495361, -0.9171506762504578, 7.102509021759033, -2.3384265899658203, -1.7682368755340576, -2.1752994060516357, 1.119873046875, -0.406005859375, 0.06103515625
387, 3989358279, -6.827591419219971, -0.9312505722045898, 7.120491027832031, -2.3498756885528564, -1.6802444458007812, -2.11724853515625, 1.120849609375, -0.406982421875, 0.0595703125
388, 3989374946, -6.839446544647217, -0.9280194640159607, 7.092972755432129, -2.391214609146118, -1.7312777042388916, -2.185032367706299, 1.121337890625, -0.406005859375, 0.063720703125
389, 3989391613, -6.83082389831543, -0.9190710783004761, 7.110563278198242, -2.3016209602355957, -1.6439125537872314, -2.0943245887756348, 1.120849609375, -0.407470703125, 0.0625
390, 3989408280, -6.84126091003418, -0.8963043093681335, 7.109354496002197, -2.5066893100738525, -1.5412315130233765, -2.291389226913452, 1.117431640625, -0.406982421875, 0.06201171875
391, 3989424947, -6.821625232696533, -0.9144837856292725, 7.109877109527588, -2.517254590988159, -1.4957305192947388, -2.3268239498138428, 1.120849609375, -0.406982421875, 0.0595703125
392, 3989441614, -6.826319694519043, -0.9226998090744019, 7.096411228179932, -2.5665206909179688, -1.357985496520996, -2.339169502258301, 1.120849609375, -0.407470703125, 0.060546875
393, 3989458281, -6.810965061187744, -0.9342237114906311, 7.093393325805664, -2.6030828952789307, -1.5450478792190552, -2.223182439804077, 1.119873046875, -0.406005859375, 0.05908203125
394, 3989474948, -6.819464206695557, -0.9250301718711853, 7.092365741729736, -2.5189194679260254, -1.2512061595916748, -2.150070905685425, 1.120361328125, -0.406005859375, 0.060546875
395, 3989491615, -6.826639652252197, -0.9243981242179871, 7.093166351318359, -2.5015411376953125, -1.1503047943115234, -2.1262638568878174, 1.119873046875, -0.404052734375, 0.06201171875
396, 3989508282, -6.837416648864746, -0.9572107791900635, 7.099459648132324, -2.290005922317505, -1.0807279348373413, -1.6547083854675293, 1.119873046875, -0.406982421875, 0.06298828125
397, 3989524949, -6.819711685180664, -0.9051595330238342, 7.1382246017456055, -2.561385154724121, -0.5047366619110107, -1.4927338361740112, 1.120849609375, -0.405517578125, 0.0615234375
398, 3989541616, -6.813422203063965, -0.8966731429100037, 7.137810230255127, -3.1034908294677734, 0.5581967234611511, -1.5738106966018677, 1.120849609375, -0.406005859375, 0.062744140625
399, 3989558283, -6.812572956085205, -0.8784818053245544, 7.09852409362793, -3.285264015197754, 1.6310615539550781, -1.8813295364379883, 1.119384765625, -0.407470703125, 0.0615234375
400, 3989574950, -6.831396102905273, -0.9004192352294922, 7.061903476715088, -3.377866744995117, 1.7647087574005127, -1.9624578952789307, 1.12255859375, -0.406005859375, 0.064697265625
401, 3989591617, -6.856727600097656, -0.9215152859687805, 7.041147232055664, -3.28627610206604, 1.4824568033218384, -1.822548747062683, 1.119873046875, -0.405029296875, 0.064697265625
402, 3989608284, -6.88323450088501, -0.9172570109367371, 7.0284342765808105, -3.172452926635742, 1.310198426246643, -1.7406775951385498, 1.121826171875, -0.404541015625, 0.063720703125
403, 3989624951, -6.883469581604004, -0.9648218154907227, 7.038519382476807, -2.818101406097412, 0.5638571977615356, -1.3675260543823242, 1.120361328125, -0.406494140625, 0.063232421875
404, 3989641618, -6.891052722930908, -0.9220729470252991, 7.050966262817383, -2.452300786972046, 0.1743648648262024, -0.9806846380233765, 1.12158203125, -0.406005859375, 0.067138671875
405, 3989658285, -6.885960578918457, -0.9277263283729553, 7.043866157531738, -2.306321144104004, -0.09321742504835129, -0.9421888589859009, 1.123046875, -0.406494140625, 0.06689453125
406, 3989674952, -6.882544040679932, -0.8410756587982178, 7.059934139251709, -2.259859800338745, -0.45059141516685486, -1.3642221689224243, 1.120849609375, -0.407470703125, 0.065673828125
407, 3989691619, -6.8903422355651855, -0.8774918913841248, 7.02163028717041, -2.2299439907073975, -0.8278408050537109, -1.8498643636703491, 1.123046875, -0.40869140625, 0.0673828125
408, 3989708286, -6.881958961486816, -0.970622718334198, 7.008358478546143, -2.203524589538574, -2.0454044342041016, -2.122741937637329, 1.12158203125, -0.406494140625, 0.066650390625
409, 3989724953, -6.864612579345703, -0.9488110542297363, 7.003200531005859, -1.7951686382293701, -3.3654065132141113, -2.0657668113708496, 1.1240234375, -0.407470703125, 0.06689453125
410, 3989741620, -6.932552814483643, -1.0395103693008423, 6.886877059936523, -1.5892939567565918, -6.458051681518555, -2.3841841220855713, 1.12158203125, -0.406982421875, 0.062744140625
411, 3989758287, -6.920273303985596, -0.8403422236442566, 6.9493584632873535, -1.0938165187835693, -11.62694263458252, -3.831085681915283, 1.12109375, -0.407958984375, 0.0615234375
412, 3989774954, -6.872790813446045, -0.5158791542053223, 6.984604835510254, -1.4631402492523193, -17.79081153869629, -7.6162285804748535, 1.118408203125, -0.406494140625, 0.06005859375
413, 3989791621, -6.55316686630249, -0.6388903260231018, 7.283278942108154, -1.2952492237091064, -20.703947067260742, -8.829570770263672, 1.116943359375, -0.406005859375, 0.055419921875
414, 3989808288, -6.459991931915283, -0.49144452810287476, 7.454216957092285, -4.245244979858398, -13.477235794067383, -9.511963844299316, 1.11279296875, -0.40234375, 0.052734375
415, 3989824955, -6.6280741691589355, -1.0218431949615479, 7.249290466308594, -6.200094699859619, -5.841978073120117, -9.611824035644531, 1.112060546875, -0.40234375, 0.047607421875
416, 3989841622, -6.844902992248535, -1.7276666164398193, 6.987100124359131, -2.212233304977417, -4.562582492828369, -3.6201376914978027, 1.111572265625, -0.39990234375, 0.051025390625
417, 3989858289, -6.761931896209717, -1.4207407236099243, 7.136000633239746, 2.325255870819092, -7.585816383361816, 0.668331503868103, 1.111083984375, -0.39892578125, 0.048583984375
418, 3989874956, -6.727121353149414, -0.8693637251853943, 7.3336381912231445, 1.9843213558197021, -6.553782939910889, 1.3546066284179688, 1.110107421875, -0.4013671875, 0.048583984375
419, 3989891623, -6.726428985595703, -0.5918952226638794, 7.367316246032715, -2.5168960094451904, -1.1237443685531616, -0.9467222094535828, 1.108642578125, -0.402587890625, 0.0458984375
420, 3989908290, -6.698774814605713, -0.6493574976921082, 7.22503662109375, -6.735973834991455, 2.66526460647583, -4.210318565368652, 1.112060546875, -0.39794921875, 0.04736328125
421, 3989924957, -6.697628974914551, -0.9534766674041748, 7.246468544006348, -8.337092399597168, 5.866995334625244, -5.999662399291992, 1.109619140625, -0.396240234375, 0.053466796875
422, 3989941624, -6.693862438201904, -1.313308596611023, 7.163127899169922, -8.058014869689941, 6.453013896942139, -5.930725574493408, 1.112060546875, -0.392333984375, 0.052001953125
423, 3989958291, -6.650625228881836, -1.4242346286773682, 7.154793739318848, -7.454104900360107, 7.07555627822876, -5.022396564483643, 1.11083984375, -0.390625, 0.054443359375
424, 3989974958, -6.737294673919678, -1.0237058401107788, 7.219735622406006, -7.832278728485107, 8.108851432800293, -5.902194023132324, 1.11083984375, -0.388671875, 0.05859375
425, 3989991625, -6.765724182128906, -1.2312856912612915, 7.212366580963135, -9.249137878417969, 10.890868186950684, -6.948448657989502, 1.112060546875, -0.38818359375, 0.060791015625
426, 3990008292, -6.750253200531006, -1.7411770820617676, 7.092815399169922, -7.745491981506348, 13.83594799041748, -4.2221550941467285, 1.114501953125, -0.385009765625, 0.064453125
427, 3990024959, -6.847323417663574, -1.776202917098999, 6.989264011383057, -5.257140159606934, 16.670204162597656, 1.8775858879089355, 1.117431640625, -0.384033203125, 0.070068359375
428, 3990041626, -7.090607643127441, -1.1694316864013672, 6.908018112182617, -2.835110664367676, 15.905840873718262, 6.91871976852417, 1.1201171875, -0.3876953125, 0.07470703125
429, 3990058293, -7.179331302642822, -0.2779412567615509, 6.943438529968262, -3.6535770893096924, 11.43614673614502, 5.092581748962402, 1.121826171875, -0.38916015625, 0.08056640625
430, 3990074960, -6.998660564422607, -0.6973111629486084, 6.970900058746338, -5.389194488525391, 4.9407734870910645, -0.03990459069609642, 1.122314453125, -0.39111328125, 0.08203125
431, 3990091627, -6.790762424468994, -1.9729466438293457, 6.960510730743408, -3.1180131435394287, 4.984199523925781, 2.966622829437256, 1.123291015625, -0.3916015625, 0.083251953125
432, 3990108294, -6.865177631378174, -2.5155625343322754, 6.847250461578369, 2.3953847885131836, 8.18077278137207, 12.634016990661621, 1.123291015625, -0.393310546875, 0.086669921875
433, 3990124961, -6.927077770233154, -0.9275348782539368, 6.950560569763184, 7.712069988250732, 8.216501235961914, 20.65387535095215, 1.12646484375, -0.39892578125, 0.090576171875
434, 3990141628, -7.071201801300049, 0.6141668558120728, 7.026756763458252, 5.768596172332764, 6.764214515686035, 17.13302993774414, 1.12646484375, -0.404541015625, 0.092529296875
435, 3990158295, -7.307800769805908, 0.8760681748390198, 6.800265789031982, 0.703279972076416, 2.7937886714935303, 5.979393482208252, 1.127197265625, -0.408447265625, 0.0966796875
436, 3990174962, -7.228250980377197, 0.6484208703041077, 6.7657976150512695, -4.30281925201416, -2.7220284938812256, -7.4936370849609375, 1.126220703125, -0.408447265625, 0.0966796875
437, 3990191629, -7.090254783630371, -0.8234348893165588, 6.669548988342285, -6.2696614265441895, -6.733046054840088, -12.596208572387695, 1.126708984375, -0.405029296875, 0.093505859375
438, 3990208296, -7.0543012619018555, -1.2625383138656616, 6.629358768463135, -1.3540289402008057, -12.388461112976074, -6.26939058303833, 1.12451171875, -0.404052734375, 0.091552734375
439, 3990224963, -6.95681095123291, -0.7398278117179871, 6.870159149169922, 3.2096784114837646, -17.426746368408203, -1.20127534866333, 1.12451171875, -0.404541015625, 0.0859375
440, 3990241630, -6.8940277099609375, -0.17798566818237305, 7.273374557495117, 3.7833268642425537, -18.299951553344727, -1.6211066246032715, 1.123046875, -0.405029296875, 0.0791015625
441, 3990258297, -6.969120502471924, -0.426765501499176, 7.33278226852417, -2.022893190383911, -15.434651374816895, -7.528451442718506, 1.12109375, -0.406005859375, 0.076904296875
442, 3990274964, -6.831845760345459, -1.211319923400879, 7.230637550354004, -8.119771957397461, -8.688118934631348, -12.070356369018555, 1.118408203125, -0.4013671875, 0.0732421875
443, 3990291631, -6.85160493850708, -1.7472848892211914, 7.124429702758789, -8.22014331817627, -2.1562447547912598, -8.338871002197266, 1.117919921875, -0.40234375, 0.0712890625
444, 3990308298, -6.93801736831665, -0.9905219078063965, 7.1902618408203125, -9.106189727783203, 2.462348222732544, -6.3317694664001465, 1.1171875, -0.39794921875, 0.07177734375
445, 3990324965, -7.019065856933594, -0.511648952960968, 7.079009056091309, -13.369741439819336, 5.950253486633301, -10.026820182800293, 1.120361328125, -0.397216796875, 0.07275390625
446, 3990341632, -7.0519208908081055, -0.5859547853469849, 7.016789436340332, -17.769193649291992, 7.656605243682861, -14.699299812316895, 1.12060546875, -0.39013671875, 0.077392578125
447, 3990358299, -6.9481892585754395, -1.2479333877563477, 6.917873382568359, -18.556697845458984, 7.341224670410156, -16.05080795288086, 1.12109375, -0.386962890625, 0.079833984375
448, 3990374966, -6.830784320831299, -1.730129361152649, 6.849620342254639, -16.15499496459961, 6.273387432098389, -14.367968559265137, 1.123779296875, -0.384033203125, 0.083984375
449, 3990391633, -6.861380577087402, -1.7869141101837158, 6.712912559509277, -11.935952186584473, 4.518961429595947, -10.053121566772461, 1.124267578125, -0.3818359375, 0.083984375
450, 3990408300, -6.8427019119262695, -1.3443613052368164, 6.927342891693115, -9.384113311767578, 2.7685739994049072, -7.833033561706543, 1.127197265625, -0.38037109375, 0.085205078125
451, 3990424967, -6.952776908874512, -1.4160478115081787, 6.883902072906494, -8.582371711730957, 3.2558178901672363, -7.503973960876465, 1.125244140625, -0.37841796875, 0.085693359375
452, 3990441634, -6.976919174194336, -1.7147325277328491, 6.725214004516602, -5.678938865661621, 1.9402966499328613, -4.642776966094971, 1.129150390625, -0.380859375, 0.086181640625
453, 3990458301, -6.998885631561279, -1.5599443912506104, 6.8144941329956055, -2.1946496963500977, 0.10048502683639526, -0.6407017111778259, 1.129150390625, -0.38037109375, 0.085693359375
454, 3990474968, -7.055451393127441, -1.4488364458084106, 6.749639511108398, 0.5119351744651794, -2.104994058609009, 2.0496039390563965, 1.127685546875, -0.380859375, 0.086669921875
455, 3990491635, -7.064006328582764, -0.7499359846115112, 7.011163711547852, 0.9938176274299622, -4.450565814971924, 1.172133207321167, 1.1298828125, -0.38134765625, 0.08935546875
456, 3990508302, -6.970438003540039, -1.116888165473938, 7.072080135345459, -1.607542634010315, -1.3245863914489746, -1.8646303415298462, 1.129638671875, -0.3818359375, 0.085693359375
457, 3990524969, -6.982702255249023, -1.4164189100265503, 6.817818641662598, -1.1724340915679932, -0.010091403499245644, -1.095391035079956, 1.128662109375, -0.3828125, 0.084716796875
458, 3990541636, -7.006344795227051, -1.2726587057113647, 6.762742042541504, 1.3615648746490479, -2.5309064388275146, 0.976759672164917, 1.127197265625, -0.384033203125, 0.087158203125
459, 3990558303, -6.995321750640869, -0.9185824394226074, 6.906041622161865, 2.167020320892334, -5.339441299438477, 0.5304454565048218, 1.127197265625, -0.383544921875, 0.085205078125
460, 3990574970, -6.956770420074463, -1.176650881767273, 6.941307067871094, 1.7996959686279297, -4.760159015655518, -0.45999130606651306, 1.1279296875, -0.387939453125, 0.084228515625
461, 3990591637, -6.962357521057129, -1.180166244506836, 6.89191198348999, 2.09919810295105, -4.306225299835205, 0.2107733190059662, 1.1298828125, -0.387451171875, 0.083740234375
462, 3990608304, -6.944045066833496, -1.2069718837738037, 6.91265344619751, 2.6775965690612793, -4.157991409301758, 0.9879266619682312, 1.12890625, -0.387939453125, 0.0810546875
463, 3990624971, -6.932267189025879, -1.0629985332489014, 6.948704719543457, 3.339582681655884, -4.118483543395996, 1.4648991823196411, 1.12744140625, -0.388671875, 0.082275390625
464, 3990641638, -6.942123889923096, -1.0263065099716187, 6.9836554527282715, 3.0747854709625244, -3.3916468620300293, 1.0284972190856934, 1.125732421875, -0.39013671875, 0.08056640625
465, 3990658305, -6.964332580566406, -1.0337461233139038, 6.96462869644165, 2.4116084575653076, -2.982112407684326, 0.6173109412193298, 1.12646484375, -0.393310546875, 0.080078125
466, 3990674972, -6.957237243652344, -1.093388557434082, 6.946104049682617, 2.3295199871063232, -3.8425838947296143, 0.6388383507728577, 1.1259765625, -0.396240234375, 0.0791015625
467, 3990691639, -6.938013076782227, -1.1963967084884644, 6.951204299926758, 3.255316972732544, -5.381625652313232, 1.5746753215789795, 1.1259765625, -0.395751953125, 0.07861328125
468, 3990708306, -6.955643177032471, -1.154889464378357, 6.937419891357422, 4.239625930786133, -6.666461944580078, 2.627946615219116, 1.12548828125, -0.39892578125, 0.074462890625
469, 3990724973, -6.9720377922058105, -1.0367194414138794, 6.973611831665039, 4.454900741577148, -7.442821502685547, 2.9596314430236816, 1.1259765625, -0.398681640625, 0.075927734375
470, 3990741640, -6.964418888092041, -0.9707486629486084, 6.982813835144043, 4.06195068359375, -7.595179080963135, 2.6629722118377686, 1.1279296875, -0.40185546875, 0.074462890625
471, 3990758307, -6.928988933563232, -0.9241599440574646, 7.022348403930664, 3.148319721221924, -7.570487976074219, 2.0284812450408936, 1.12353515625, -0.4033203125, 0.072021484375
472, 3990774974, -6.894401550292969, -0.8934412598609924, 7.083217144012451, 1.87991464138031, -6.357175350189209, 1.156214952468872, 1.12548828125, -0.406005859375, 0.071533203125
473, 3990791641, -6.895251750946045, -0.8418747782707214, 7.058389663696289, 0.5655476450920105, -5.3801398277282715, 0.17731033265590668, 1.12255859375, -0.405517578125, 0.06884765625
474, 3990808308, -6.854921340942383, -0.8826521039009094, 7.060894966125488, -0.3088763952255249, -4.475781440734863, -0.6938353180885315, 1.12353515625, -0.407958984375, 0.0673828125
475, 3990824975, -6.8647990226745605, -0.8823899626731873, 7.071516513824463, -1.0494804382324219, -3.3276660442352295, -1.1327472925186157, 1.1220703125, -0.408447265625, 0.0673828125
476, 3990841642, -6.8965864181518555, -0.8632737994194031, 7.040387153625488, -1.5205618143081665, -2.6373136043548584, -1.405829668045044, 1.1220703125, -0.408447265625, 0.06787109375
477, 3990858309, -6.8829026222229, -0.8833011984825134, 7.039141654968262, -1.8017380237579346, -2.329897403717041, -1.7864601612091064, 1.123046875, -0.406982421875, 0.066650390625
478, 3990874976, -6.8602118492126465, -0.9550462961196899, 7.042710304260254, -1.6810766458511353, -2.3748221397399902, -1.694472312927246, 1.1240234375, -0.407470703125, 0.06884765625
479, 3990891643, -6.845179080963135, -0.9505080580711365, 7.068049430847168, -1.441213846206665, -2.4366517066955566, -1.3751716613769531, 1.12255859375, -0.40966796875, 0.06640625
480, 3990908310, -6.838891506195068, -0.894231915473938, 7.094519138336182, -1.4812848567962646, -2.0692501068115234, -1.3256877660751343, 1.12255859375, -0.41064453125, 0.066162109375
481, 3990924977, -6.8632307052612305, -0.8714497089385986, 7.069517612457275, -1.5967341661453247, -1.5558050870895386, -1.3992985486984253, 1.12255859375, -0.407958984375, 0.066650390625
482, 3990941644, -6.882275581359863, -0.9043043255805969, 7.034645080566406, -1.5861432552337646, -1.4770076274871826, -1.3450125455856323, 1.12548828125, -0.41064453125, 0.06689453125
483, 3990958311, -6.861854076385498, -0.8865171670913696, 7.0581159591674805, -1.5832874774932861, -1.8219081163406372, -1.1218234300613403, 1.123046875, -0.4111328125, 0.06787109375
484, 3990974978, -6.857718467712402, -0.8659384846687317, 7.049887657165527, -1.6695382595062256, -1.8965822458267212, -1.3588945865631104, 1.12255859375, -0.41259765625, 0.0673828125
485, 3990991645, -6.839577674865723, -0.853388786315918, 7.069633960723877, -1.9436709880828857, -1.4199808835983276, -1.5635528564453125, 1.1240234375, -0.41259765625, 0.0673828125
486, 3991008312, -6.8428120613098145, -0.8890144228935242, 7.04758358001709, -2.1389169692993164, -1.2621043920516968, -1.8711614608764648, 1.12255859375, -0.40966796875, 0.06884765625
487, 3991024979, -6.87046480178833, -0.9237788915634155, 7.014399528503418, -2.1152632236480713, -1.2612205743789673, -1.8628758192062378, 1.123046875, -0.412109375, 0.065673828125
488, 3991041646, -6.876012802124023, -0.8860446810722351, 7.057517051696777, -2.0123000144958496, -1.6467812061309814, -1.8699700832366943, 1.126220703125, -0.4111328125, 0.0673828125
489, 3991058313, -6.8861775398254395, -0.8644366264343262, 7.035369873046875, -1.9526350498199463, -1.733556866645813, -1.939547061920166, 1.12255859375, -0.4111328125, 0.06787109375
490, 3991074980, -6.878845691680908, -0.8811155557632446, 7.040166854858398, -2.0458450317382812, -1.803781270980835, -1.9566928148269653, 1.123046875, -0.41064453125, 0.0673828125
491, 3991091647, -6.880178451538086, -0.8740065693855286, 7.05853271484375, -2.045353412628174, -1.8018916845321655, -2.0159242153167725, 1.12255859375, -0.4130859375, 0.06689453125
492, 3991108314, -6.872283935546875, -0.8589862585067749, 7.056734085083008, -2.06855845451355, -1.7555456161499023, -1.9654672145843506, 1.12451171875, -0.408447265625, 0.065673828125
493, 3991124981, -6.886690139770508, -0.8756170272827148, 7.044567584991455, -2.170753002166748, -1.9203248023986816, -2.279120445251465, 1.1240234375, -0.41162109375, 0.06689453125
494, 3991141648, -6.867639064788818, -0.8828699588775635, 7.053212642669678, -2.096041202545166, -2.3361220359802246, -2.409604549407959, 1.12255859375, -0.41162109375, 0.0673828125
495, 3991158315, -6.878014087677002, -0.8600667715072632, 7.043279647827148, -2.0978212356567383, -2.3930587768554688, -2.519073486328125, 1.1220703125, -0.412109375, 0.0673828125
496, 3991174982, -6.878311634063721, -0.8562906384468079, 7.060558795928955, -2.1263535022735596, -2.5755743980407715, -2.6852481365203857, 1.12353515625, -0.4130859375, 0.0654296875
497, 3991191649, -6.86297607421875, -0.8930802345275879, 7.089608669281006, -2.3876800537109375, -2.3178470134735107, -2.8287434577941895, 1.123046875, -0.4111328125, 0.06640625
498, 3991208316, -6.86975622177124, -0.8980509042739868, 7.050397872924805, -2.3932249546051025, -2.07252836227417, -2.7449638843536377, 1.12255859375, -0.4111328125, 0.064208984375
499, 3991224983, -6.858085632324219, -0.882267951965332, 7.052646160125732, -2.425753355026245, -2.370007038116455, -2.753826141357422, 1.12158203125, -0.4111328125, 0.066162109375
500, 3991241650, -6.866752624511719, -0.8652510643005371, 7.070412635803223, -2.426508665084839, -2.181894302368164, -2.73520565032959, 1.125, -0.41064453125, 0.065185546875
501, 3991258317, -6.861551284790039, -0.8715760111808777, 7.070456027984619, -2.5964877605438232, -2.0655746459960938, -2.8035149574279785, 1.1201171875, -0.41015625, 0.065673828125
502, 3991274984, -6.854792594909668, -0.8923527002334595, 7.087170600891113, -2.624558925628662, -1.9610235691070557, -2.8097643852233887, 1.1240234375, -0.41259765625, 0.0654296875
503, 3991291651, -6.83836555480957, -0.9123823642730713, 7.088418960571289, -2.4781181812286377, -1.9878143072128296, -2.656369686126709, 1.12060546875, -0.4111328125, 0.065673828125
504, 3991308318, -6.851191997528076, -0.90634685754776, 7.067196369171143, -2.2834877967834473, -1.9768396615982056, -2.4932942390441895, 1.12255859375, -0.40869140625, 0.065673828125
505, 3991324985, -6.842142105102539, -0.8916813135147095, 7.070353984832764, -2.174774408340454, -1.8046069145202637, -2.2496020793914795, 1.1220703125, -0.41162109375, 0.064697265625
506, 3991341652, -6.842820167541504, -0.8915926218032837, 7.089328289031982, -2.2097995281219482, -1.7923508882522583, -2.236462116241455, 1.12109375, -0.4091796875, 0.06689453125
507, 3991358319, -6.858503341674805, -0.8844655156135559, 7.053346157073975, -2.201411724090576, -1.7798010110855103, -2.135446071624756, 1.12255859375, -0.408447265625, 0.065673828125
508, 3991374986, -6.850595951080322, -0.8876323103904724, 7.1004109382629395, -2.0485546588897705, -1.8248406648635864, -2.0925958156585693, 1.12255859375, -0.41015625, 0.065673828125
509, 3991391653, -6.852190017700195, -0.8658664226531982, 7.0581583976745605, -2.116262435913086, -1.7496165037155151, -2.0792903900146484, 1.123046875, -0.41064453125, 0.065185546875
510, 3991408320, -6.857081413269043, -0.895856499671936, 7.060574531555176, -2.1352665424346924, -1.7616157531738281, -2.040461301803589, 1.12158203125, -0.4111328125, 0.064208984375
511, 3991424987, -6.86177396774292, -0.8720704317092896, 7.083972454071045, -2.0860908031463623, -1.865962028503418, -2.0919172763824463, 1.119384765625, -0.4091796875, 0.066650390625
512, 3991441654, -6.864818572998047, -0.8563777208328247, 7.092957973480225, -2.147611618041992, -1.8077569007873535, -2.082824468612671, 1.1201171875, -0.4111328125, 0.063720703125
513, 3991458321, -6.86900520324707, -0.8957178592681885, 7.08301305770874, -2.1283769607543945, -1.8299509286880493, -2.221043825149536, 1.119873046875, -0.40966796875, 0.065185546875
514, 3991474988, -6.863041400909424, -0.8816857933998108, 7.080706596374512, -2.1386349201202393, -1.894930124282837, -2.2445309162139893, 1.12255859375, -0.41259765625, 0.065673828125
515, 3991491655, -6.858283042907715, -0.8813269734382629, 7.093118190765381, -2.145972490310669, -1.865501046180725, -2.166565179824829, 1.119384765625, -0.41015625, 0.065673828125
516, 3991508322, -6.867709636688232, -0.8742116093635559, 7.07418966293335, -2.168665885925293, -1.8750419616699219, -2.2391648292541504, 1.12109375, -0.4111328125, 0.064697265625
517, 3991524989, -6.854377746582031, -0.8773833513259888, 7.047224044799805, -2.110666036605835, -1.9307749271392822, -2.2003870010375977, 1.1220703125, -0.4091796875, 0.063232421875
518, 3991541656, -6.85556173324585, -0.8718644976615906, 7.103813648223877, -2.2533414363861084, -1.8624529838562012, -2.1907310485839844, 1.1220703125, -0.41015625, 0.063720703125
519, 3991558323, -6.855737209320068, -0.8710978031158447, 7.075681686401367, -2.24930739402771, -1.89362370967865, -2.2610890865325928, 1.1220703125, -0.41162109375, 0.063720703125
520, 3991574990, -6.860827922821045, -0.8400039672851562, 7.07705020904541, -2.2113494873046875, -1.8902300596237183, -2.3108162879943848, 1.123046875, -0.41162109375, 0.06640625
521, 3991591657, -6.846578121185303, -0.8755001425743103, 7.083605766296387, -2.345022201538086, -1.8530021905899048, -2.4349100589752197, 1.1220703125, -0.412109375, 0.063720703125
522, 3991608324, -6.85463809967041, -0.8807830214500427, 7.0839056968688965, -2.30733323097229, -1.7749730348587036, -2.3970541954040527, 1.12255859375, -0.41015625, 0.063232421875
523, 3991624991, -6.862516403198242, -0.8803288340568542, 7.064755916595459, -2.3442277908325195, -1.762115240097046, -2.334648847579956, 1.120849609375, -0.408447265625, 0.065673828125
524, 3991641658, -6.858649730682373, -0.8795917630195618, 7.09205436706543, -2.2907230854034424, -1.8792037963867188, -2.255352258682251, 1.1220703125, -0.41259765625, 0.063720703125
525, 3991658325, -6.856636047363281, -0.8631682991981506, 7.104090213775635, -2.3052966594696045, -1.700965166091919, -2.29144024848938, 1.12109375, -0.41259765625, 0.064697265625
526, 3991674992, -6.844808101654053, -0.8761133551597595, 7.084455966949463, -2.4544718265533447, -1.701733946800232, -2.434187650680542, 1.11962890625, -0.41162109375, 0.064208984375
527, 3991691659, -6.86728572845459, -0.8805327415466309, 7.084750175476074, -2.316847801208496, -1.6988774538040161, -2.3680222034454346, 1.12255859375, -0.41064453125, 0.065673828125
528, 3991708326, -6.850122928619385, -0.8731677532196045, 7.098454475402832, -2.3179879188537598, -1.757120966911316, -2.394698143005371, 1.12255859375, -0.41162109375, 0.064208984375
529, 3991724993, -6.846427917480469, -0.886927604675293, 7.09909200668335, -2.394275188446045, -1.6061853170394897, -2.406454086303711, 1.12255859375, -0.412109375, 0.063232421875
530, 3991741660, -6.841120719909668, -0.8670880198478699, 7.089010238647461, -2.3234689235687256, -1.5853877067565918, -2.4759411811828613, 1.12060546875, -0.41015625, 0.062255859375
531, 3991758327, -6.865544319152832, -0.8715633153915405, 7.091558456420898, -2.367497444152832, -1.6242809295654297, -2.51881742477417, 1.12255859375, -0.40966796875, 0.064697265625
532, 3991774994, -6.868091583251953, -0.8740320801734924, 7.066166400909424, -2.469935417175293, -1.4838848114013672, -2.5465047359466553, 1.1220703125, -0.41259765625, 0.064208984375
533, 3991791661, -6.854896068572998, -0.8799360394477844, 7.069164752960205, -2.2649569511413574, -1.676005482673645, -2.48836350440979, 1.1220703125, -0.41064453125, 0.065185546875
534, 3991808328, -6.851619243621826, -0.8634225726127625, 7.072290420532227, -2.223349094390869, -1.747516393661499, -2.5736539363861084, 1.12109375, -0.412109375, 0.062255859375
535, 3991824995, -6.864458084106445, -0.8604385852813721, 7.087063789367676, -2.2841153144836426, -1.7634987831115723, -2.702242612838745, 1.1201171875, -0.41162109375, 0.062255859375
536, 3991841662, -6.845396995544434, -0.8786258697509766, 7.115871429443359, -2.3112263679504395, -1.8823288679122925, -2.7597177028656006, 1.12158203125, -0.41015625, 0.062255859375
537, 3991858329, -6.841538429260254, -0.893720805644989, 7.078037261962891, -2.281963586807251, -1.9625861644744873, -2.744823932647705, 1.12109375, -0.408447265625, 0.063720703125
538, 3991874996, -6.852745532989502, -0.8711822032928467, 7.088145732879639, -2.3185768127441406, -1.9739450216293335, -2.733464241027832, 1.12158203125, -0.4130859375, 0.063232421875
539, 3991891663, -6.838534355163574, -0.8983705639839172, 7.086070537567139, -2.379253625869751, -1.917277455329895, -2.6373400688171387, 1.1220703125, -0.41015625, 0.065185546875
540, 3991908330, -6.844847202301025, -0.881033718585968, 7.086791038513184, -2.3329715728759766, -1.8917158842086792, -2.690729856491089, 1.12158203125, -0.412109375, 0.062744140625
541, 3991924997, -6.844415664672852, -0.8787602186203003, 7.097762584686279, -2.468705892562866, -1.9057260751724243, -2.6049015522003174, 1.12109375, -0.41064453125, 0.062744140625
542, 3991941664, -6.840081214904785, -0.8984741568565369, 7.090655326843262, -2.4614832401275635, -2.0589025020599365, -2.500709056854248, 1.12109375, -0.40966796875, 0.063720703125
543, 3991958331, -6.835970401763916, -0.9063429832458496, 7.087921142578125, -2.314812183380127, -2.062373399734497, -2.338222026824951, 1.118408203125, -0.4111328125, 0.0625
544, 3991974998, -6.852292537689209, -0.8961673974990845, 7.0875139236450195, -2.574716806411743, -1.809383749961853, -2.1267762184143066, 1.118408203125, -0.41064453125, 0.06005859375
545, 3991991665, -6.840667724609375, -0.8849742412567139, 7.106760501861572, -2.810391902923584, -1.4938863515853882, -2.044405937194824, 1.12255859375, -0.41064453125, 0.061279296875
546, 3992008332, -6.833557605743408, -0.8764612078666687, 7.086973190307617, -2.9129836559295654, -1.4741262197494507, -2.1361889839172363, 1.12158203125, -0.41064453125, 0.062744140625
547, 3992024999, -6.834847927093506, -0.8894577026367188, 7.069118976593018, -2.7465524673461914, -1.6197601556777954, -2.239664316177368, 1.119873046875, -0.4111328125, 0.063232421875
548, 3992041666, -6.845078945159912, -0.8871898055076599, 7.087419509887695, -2.6354568004608154, -1.6038286685943604, -2.1866455078125, 1.119873046875, -0.40966796875, 0.063232421875
549, 3992058333, -6.839585304260254, -0.8931986689567566, 7.091228485107422, -2.607232093811035, -1.6661957502365112, -2.255492925643921, 1.12109375, -0.41064453125, 0.063232421875
550, 3992075000, -6.856639385223389, -0.8869779109954834, 7.098639488220215, -2.564356565475464, -1.733480453491211, -2.2787108421325684, 1.12109375, -0.41064453125, 0.064697265625
551, 3992091667, -6.839966773986816, -0.8931796550750732, 7.11475133895874, -2.4627127647399902, -1.8040820360183716, -2.3531031608581543, 1.1201171875, -0.41064453125, 0.062744140625
552, 3992108334, -6.824267387390137, -0.8885224461555481, 7.088603496551514, -2.473533868789673, -1.7752676010131836, -2.395427942276001, 1.119873046875, -0.41015625, 0.062744140625
553, 3992125001, -6.823054790496826, -0.892571210861206, 7.1061625480651855, -2.333265781402588, -1.7505896091461182, -2.3372225761413574, 1.12109375, -0.408447265625, 0.062744140625
554, 3992141668, -6.830582618713379, -0.8986268043518066, 7.096750736236572, -2.28041410446167, -1.690079689025879, -2.224194049835205, 1.12158203125, -0.41015625, 0.061767578125
555, 3992158335, -6.820891857147217, -0.8971738815307617, 7.070164203643799, -2.1410677433013916, -1.6424527168273926, -2.196096897125244, 1.12158203125, -0.407958984375, 0.062255859375
556, 3992175002, -6.838285446166992, -0.892787754535675, 7.098593235015869, -2.096630334854126, -1.5137618780136108, -2.164170980453491, 1.12060546875, -0.41064453125, 0.062255859375
557, 3992191669, -6.8337907791137695, -0.8790799379348755, 7.110048770904541, -2.0806474685668945, -1.390782356262207, -2.1506597995758057, 1.12158203125, -0.40869140625, 0.062744140625
558, 3992208336, -6.8380208015441895, -0.8912500739097595, 7.091367721557617, -2.086512804031372, -1.3844302892684937, -2.1488797664642334, 1.12109375, -0.41015625, 0.062744140625
559, 3992225003, -6.852584362030029, -0.8986750841140747, 7.068832874298096, -2.0175507068634033, -1.5190892219543457, -2.039167881011963, 1.11962890625, -0.41259765625, 0.063232421875
560, 3992241670, -6.84217643737793, -0.889472484588623, 7.082576751708984, -1.944439172744751, -1.6297234296798706, -1.9827431440353394, 1.12158203125, -0.40869140625, 0.06201171875
561, 3992258337, -6.841457843780518, -0.8898791074752808, 7.112882137298584, -1.9141777753829956, -1.7812480926513672, -1.9811038970947266, 1.12109375, -0.4130859375, 0.064208984375
562, 3992275004, -6.828455924987793, -0.872130274772644, 7.112107753753662, -1.9067507982254028, -1.7394587993621826, -1.9113609790802002, 1.12060546875, -0.41064453125, 0.064208984375
563, 3992291671, -6.837308883666992, -0.864923894405365, 7.093871116638184, -1.992719292640686, -1.746171236038208, -2.0414345264434814, 1.1220703125, -0.4130859375, 0.065185546875
564, 3992308338, -6.836462020874023, -0.8639166951179504, 7.095862865447998, -2.0198044776916504, -1.7270514965057373, -2.0501298904418945, 1.119384765625, -0.41162109375, 0.0615234375
565, 3992325005, -6.831711769104004, -0.8616702556610107, 7.10310697555542, -2.048401117324829, -1.694779396057129, -2.029409170150757, 1.12158203125, -0.41015625, 0.062255859375
566, 3992341672, -6.837512493133545, -0.8789986371994019, 7.103146076202393, -1.940456509590149, -1.6498292684555054, -1.9365761280059814, 1.12109375, -0.41064453125, 0.0615234375
567, 3992358339, -6.834635257720947, -0.8656043410301208, 7.095474720001221, -2.0576603412628174, -1.7190732955932617, -1.8539626598358154, 1.120361328125, -0.40966796875, 0.062255859375
568, 3992375006, -6.8395891189575195, -0.8560133576393127, 7.104294300079346, -2.103980779647827, -1.643618106842041, -1.9834856986999512, 1.12255859375, -0.41162109375, 0.06103515625
569, 3992391673, -6.844208717346191, -0.8640183806419373, 7.111625671386719, -2.1603543758392334, -1.542178988456726, -2.0873453617095947, 1.1220703125, -0.41162109375, 0.062744140625
570, 3992408340, -6.843155860900879, -0.8687598705291748, 7.092648983001709, -2.1890275478363037, -1.690591812133789, -2.110640048980713, 1.118896484375, -0.41162109375, 0.06201171875
571, 3992425007, -6.833467960357666, -0.8638886213302612, 7.105660915374756, -2.164337158203125, -1.6018821001052856, -2.0804169178009033, 1.120361328125, -0.41015625, 0.0595703125
572, 3992441674, -6.836734771728516, -0.8690959215164185, 7.1044840812683105, -2.2087368965148926, -1.3890790939331055, -2.122767448425293, 1.1220703125, -0.4130859375, 0.061767578125
573, 3992458341, -6.839641571044922, -0.8670748472213745, 7.103269577026367, -2.2638039588928223, -1.179887294769287, -2.0780866146087646, 1.12158203125, -0.412109375, 0.062744140625
574, 3992475008, -6.841204643249512, -0.8684152960777283, 7.113895416259766, -2.1319243907928467, -1.285923957824707, -2.215703248977661, 1.123046875, -0.4130859375, 0.065673828125
575, 3992491675, -6.854780197143555, -0.8724217414855957, 7.080492973327637, -2.019317865371704, -1.4795559644699097, -2.1936635971069336, 1.12109375, -0.41259765625, 0.062744140625
576, 3992508342, -6.850593090057373, -0.863562285900116, 7.105457782745361, -2.0902392864227295, -1.603675127029419, -2.1754913330078125, 1.12158203125, -0.4130859375, 0.063720703125
577, 3992525009, -6.873414516448975, -0.841427743434906, 7.1295552253723145, -1.9702569246292114, -1.7707979679107666, -2.316514492034912, 1.12158203125, -0.41064453125, 0.0615234375
578, 3992541676, -6.856672286987305, -0.870974063873291, 7.109737396240234, -1.834816813468933, -1.978977918624878, -2.183866500854492, 1.12109375, -0.413818359375, 0.061767578125
579, 3992558343, -6.828804969787598, -0.8570482730865479, 7.097514629364014, -1.6547597646713257, -1.7606043815612793, -1.9482301473617554, 1.12060546875, -0.41015625, 0.06103515625
580, 3992575010, -6.809857368469238, -0.8754326701164246, 7.0702362060546875, -1.6445788145065308, -1.8340229988098145, -1.9614464044570923, 1.1220703125, -0.41259765625, 0.062255859375
581, 3992591677, -6.813361167907715, -0.8574504256248474, 7.088131427764893, -1.9121544361114502, -1.6397759914398193, -2.174492597579956, 1.1201171875, -0.41259765625, 0.063720703125
582, 3992608344, -6.823479175567627, -0.8456481099128723, 7.0993146896362305, -2.123075008392334, -1.4229520559310913, -2.092250108718872, 1.119384765625, -0.41259765625, 0.0615234375
583, 3992625011, -6.824559688568115, -0.8737213611602783, 7.082042694091797, -2.2560689449310303, -1.3130477666854858, -2.0601701736450195, 1.12060546875, -0.413818359375, 0.063720703125
584, 3992641678, -6.836394309997559, -0.8615213632583618, 7.074460983276367, -2.0036816596984863, -1.4911072254180908, -1.9506759643554688, 1.12255859375, -0.41064453125, 0.061279296875
585, 3992658345, -6.827547550201416, -0.8859186768531799, 7.109443664550781, -1.870636224746704, -1.5635528564453125, -1.7753313779830933, 1.11962890625, -0.41357421875, 0.062255859375
586, 3992675012, -6.8320512771606445, -0.8588765263557434, 7.077470779418945, -1.7871133089065552, -1.6175827980041504, -1.8042864799499512, 1.12353515625, -0.416259765625, 0.060791015625
587, 3992691679, -6.846257209777832, -0.8446245789527893, 7.107069969177246, -1.8483405113220215, -1.7171010971069336, -1.8025065660476685, 1.1201171875, -0.41357421875, 0.06103515625
588, 3992708346, -6.827390193939209, -0.8468480706214905, 7.112133502960205, -1.8899611234664917, -1.6321054697036743, -1.746171474456787, 1.12109375, -0.414306640625, 0.062255859375
589, 3992725013, -6.828369617462158, -0.8360688090324402, 7.107318878173828, -1.9667476415634155, -1.6339619159698486, -1.8586236238479614, 1.11865234375, -0.414794921875, 0.06005859375
590, 3992741680, -6.8274006843566895, -0.8342816829681396, 7.110813617706299, -2.022096872329712, -1.5625923871994019, -2.0387322902679443, 1.123046875, -0.41357421875, 0.062255859375
591, 3992758347, -6.826501369476318, -0.8493965268135071, 7.076681137084961, -2.1995675563812256, -1.6076067686080933, -2.052051305770874, 1.12255859375, -0.41357421875, 0.061767578125
592, 3992775014, -6.8308515548706055, -0.860182523727417, 7.092817783355713, -2.2119510173797607, -1.607260823249817, -2.099562644958496, 1.12060546875, -0.417724609375, 0.061767578125
593, 3992791681, -6.83368444442749, -0.8479703664779663, 7.125733852386475, -2.233747959136963, -1.6137794256210327, -2.023582696914673, 1.119140625, -0.413818359375, 0.060546875
594, 3992808348, -6.839134216308594, -0.8367049694061279, 7.093067646026611, -2.193087339401245, -1.563821792602539, -2.0952212810516357, 1.1220703125, -0.413818359375, 0.062744140625
595, 3992825015, -6.837059020996094, -0.8396163582801819, 7.090057849884033, -2.2096073627471924, -1.6223723888397217, -2.1303234100341797, 1.1220703125, -0.416748046875, 0.05908203125
596, 3992841682, -6.833779335021973, -0.8421364426612854, 7.13330078125, -2.3150293827056885, -1.6559635400772095, -2.2064318656921387, 1.1201171875, -0.414306640625, 0.0595703125
597, 3992858349, -6.834314823150635, -0.8184707164764404, 7.121018886566162, -2.3673949241638184, -1.3959561586380005, -2.2081220149993896, 1.11962890625, -0.414794921875, 0.0615234375
598, 3992875016, -6.830091953277588, -0.8552151918411255, 7.084468841552734, -2.40531063079834, -1.3981516361236572, -2.30789852142334, 1.11962890625, -0.415283203125, 0.0615234375
599, 3992891683, -6.845932483673096, -0.8624373078346252, 7.075428485870361, -2.409181594848633, -1.2923399209976196, -2.130528450012207, 1.1220703125, -0.41357421875, 0.062255859375
600, 3992908350, -6.86370849609375, -0.8218041658401489, 7.106119155883789, -2.4319260120391846, -1.5042210817337036, -2.2070465087890625, 1.12158203125, -0.414794921875, 0.06103515625
601, 3992925017, -6.844604969024658, -0.835340678691864, 7.101041793823242, -2.4707674980163574, -1.5290141105651855, -2.1994779109954834, 1.12060546875, -0.416748046875, 0.06005859375
602, 3992941684, -6.852419853210449, -0.8084666728973389, 7.127890110015869, -2.609088897705078, -1.3923320770263672, -2.318666458129883, 1.1201171875, -0.414306640625, 0.06005859375
603, 3992958351, -6.851395606994629, -0.8388693928718567, 7.10371208190918, -2.561718702316284, -1.4476428031921387, -2.427149534225464, 1.12109375, -0.414306640625, 0.062255859375
604, 3992975018, -6.842556476593018, -0.8266485333442688, 7.1082258224487305, -2.538564443588257, -1.412015438079834, -2.372222661972046, 1.12158203125, -0.415283203125, 0.062255859375
605, 3992991685, -6.823835849761963, -0.8455744981765747, 7.103501319885254, -2.4793992042541504, -1.4943345785140991, -2.4560658931732178, 1.123046875, -0.41357421875, 0.063232421875
606, 3993008352, -6.838634967803955, -0.8450650572776794, 7.086277961730957, -2.5135152339935303, -1.3330514430999756, -2.362963914871216, 1.118896484375, -0.41357421875, 0.0615234375
607, 3993025019, -6.836454391479492, -0.8591282963752747, 7.091518402099609, -2.5274486541748047, -1.1403542757034302, -2.392302989959717, 1.12060546875, -0.414306640625, 0.06103515625
608, 3993041686, -6.844215393066406, -0.8377941846847534, 7.112222194671631, -2.51888108253479, -1.1453744173049927, -2.2934634685516357, 1.12255859375, -0.414794921875, 0.062255859375
609, 3993058353, -6.849851608276367, -0.8498744964599609, 7.096264362335205, -2.4994022846221924, -1.2163598537445068, -2.374809503555298, 1.12060546875, -0.4130859375, 0.062255859375
610, 3993075020, -6.823329925537109, -0.8575069904327393, 7.08345365524292, -2.359711170196533, -1.3400181531906128, -2.308011770248413, 1.12060546875, -0.41259765625, 0.064208984375
611, 3993091687, -6.837629318237305, -0.846748948097229, 7.081851482391357, -2.36350154876709, -1.607222557067871, -2.224693536758423, 1.12109375, -0.414794921875, 0.061767578125
612, 3993108354, -6.8398542404174805, -0.8329322338104248, 7.106165885925293, -2.281989097595215, -1.641658902168274, -2.1865689754486084, 1.11962890625, -0.41357421875, 0.060546875
613, 3993125021, -6.851475715637207, -0.8396535515785217, 7.110830307006836, -2.388679027557373, -1.449973464012146, -2.2796456813812256, 1.12158203125, -0.4130859375, 0.062744140625
614, 3993141688, -6.828719615936279, -0.8484312891960144, 7.1079182624816895, -2.489515542984009, -1.3871325254440308, -2.3484792709350586, 1.123046875, -0.414306640625, 0.061279296875
615, 3993158355, -6.851617336273193, -0.8369554281234741, 7.0864481925964355, -2.458293914794922, -1.3703690767288208, -2.37562894821167, 1.123046875, -0.414306640625, 0.063232421875
616, 3993175022, -6.844577312469482, -0.8531038761138916, 7.105224132537842, -2.505011796951294, -1.2564438581466675, -2.3314216136932373, 1.12158203125, -0.414794921875, 0.062255859375
617, 3993191689, -6.8265533447265625, -0.8379940390586853, 7.104923725128174, -2.6111507415771484, -1.2978339195251465, -2.413574457168579, 1.12158203125, -0.414306640625, 0.062255859375
618, 3993208356, -6.847782611846924, -0.8388046622276306, 7.103741645812988, -2.4923081398010254, -1.327378273010254, -2.43703556060791, 1.12158203125, -0.414794921875, 0.061767578125
619, 3993225023, -6.837038516998291, -0.8690516948699951, 7.092442989349365, -2.3955817222595215, -1.4757527112960815, -2.3655893802642822, 1.12255859375, -0.414794921875, 0.062255859375
620, 3993241690, -6.844071388244629, -0.8456694483757019, 7.080920219421387, -2.4163150787353516, -1.5694694519042969, -2.2823989391326904, 1.12255859375, -0.41357421875, 0.060791015625
621, 3993258357, -6.851312160491943, -0.8446162939071655, 7.093094825744629, -2.3686752319335938, -1.7994844913482666, -2.286125659942627, 1.12353515625, -0.4140625, 0.062744140625
622, 3993275024, -6.833604335784912, -0.8609851002693176, 7.092538833618164, -2.3260560035705566, -1.8044276237487793, -2.2798891067504883, 1.12109375, -0.415771484375, 0.063232421875
623, 3993291691, -6.836024761199951, -0.8524306416511536, 7.106902122497559, -2.3852338790893555, -1.6440024375915527, -2.1387245655059814, 1.12255859375, -0.414794921875, 0.063720703125
624, 3993308358, -6.858749866485596, -0.854699969291687, 7.10319709777832, -2.4128572940826416, -1.5142101049423218, -2.2101964950561523, 1.11962890625, -0.4130859375, 0.06201171875
625, 3993325025, -6.843299388885498, -0.8520504832267761, 7.0818867683410645, -2.4660933017730713, -1.546264410018921, -2.2488722801208496, 1.1220703125, -0.41357421875, 0.061767578125
626, 3993341692, -6.8459954261779785, -0.8572546243667603, 7.073126316070557, -2.262728691101074, -1.895660161972046, -2.220083236694336, 1.12255859375, -0.414306640625, 0.062744140625
627, 3993358359, -6.845621109008789, -0.8448854684829712, 7.108420372009277, -2.180448055267334, -2.2297396659851074, -2.2445693016052246, 1.12109375, -0.414794921875, 0.062744140625
628, 3993375026, -6.837023735046387, -0.8435287475585938, 7.120131015777588, -2.2676844596862793, -2.006742238998413, -2.105722665786743, 1.123046875, -0.4130859375, 0.061767578125
629, 3993391693, -6.844473361968994, -0.8326891660690308, 7.098352909088135, -2.1644651889801025, -1.8660132884979248, -2.1981332302093506, 1.12109375, -0.413818359375, 0.062255859375
630, 3993408360, -6.8208537101745605, -0.8337292075157166, 7.090938568115234, -2.307512044906616, -1.8476359844207764, -2.102034091949463, 1.123046875, -0.4130859375, 0.06005859375
631, 3993425027, -6.825057029724121, -0.8347175121307373, 7.111792087554932, -2.3002512454986572, -1.9105411767959595, -2.1909873485565186, 1.12109375, -0.413818359375, 0.060546875
632, 3993441694, -6.828506946563721, -0.8277580738067627, 7.111507892608643, -2.2564151287078857, -1.7489633560180664, -2.1850454807281494, 1.118896484375, -0.41259765625, 0.06103515625
633, 3993458361, -6.850151062011719, -0.8440442085266113, 7.098354339599609, -2.3221116065979004, -1.5664087533950806, -2.2361552715301514, 1.123046875, -0.413818359375, 0.061279296875
634, 3993475028, -6.821954250335693, -0.8647504448890686, 7.070782661437988, -2.2816598415374756, -1.5282435417175293, -2.1940314769744873, 1.1240234375, -0.414794921875, 0.062744140625
635, 3993491695, -6.843587398529053, -0.8510411977767944, 7.10604190826416, -2.239036798477173, -1.697353720664978, -2.0512828826904297, 1.12158203125, -0.41162109375, 0.060546875
636, 3993508362, -6.8333868980407715, -0.843127965927124, 7.091714859008789, -2.2701687812805176, -1.693921446800232, -2.1315016746520996, 1.118408203125, -0.414306640625, 0.063232421875
637, 3993525029, -6.854243278503418, -0.8327981233596802, 7.094775676727295, -2.2490899562835693, -1.746363639831543, -2.1242918968200684, 1.12158203125, -0.413818359375, 0.061279296875
638, 3993541696, -6.833069324493408, -0.8490371108055115, 7.116017818450928, -2.2939374446868896, -1.7454286813735962, -2.186325788497925, 1.12158203125, -0.414794921875, 0.061279296875
639, 3993558363, -6.841398239135742, -0.8395128846168518, 7.076540946960449, -2.3175525665283203, -1.7269619703292847, -2.1487135887145996, 1.12109375, -0.416259765625, 0.06103515625
640, 3993575030, -6.837927341461182, -0.8564701080322266, 7.09982442855835, -2.272371768951416, -1.839491367340088, -2.1273908615112305, 1.12060546875, -0.41357421875, 0.062255859375
641, 3993591697, -6.833588123321533, -0.8420562744140625, 7.091564655303955, -2.144307851791382, -1.7905198335647583, -1.9956775903701782, 1.12158203125, -0.414306640625, 0.061767578125
642, 3993608364, -6.83624267578125, -0.8319852948188782, 7.09135103225708, -2.1511592864990234, -1.7058441638946533, -1.915087103843689, 1.12060546875, -0.414306640625, 0.062744140625
643, 3993625031, -6.837283611297607, -0.8232637643814087, 7.085302829742432, -2.1792564392089844, -1.8018147945404053, -1.9599093198776245, 1.12109375, -0.414306640625, 0.06103515625
644, 3993641698, -6.8271164894104, -0.8222496509552002, 7.110101699829102, -2.1489310264587402, -1.7300609350204468, -2.054727554321289, 1.12158203125, -0.414306640625, 0.061767578125
645, 3993658365, -6.827744007110596, -0.8327460289001465, 7.118103504180908, -2.1990420818328857, -1.7607706785202026, -2.0592737197875977, 1.1220703125, -0.413818359375, 0.060546875
646, 3993675032, -6.832129955291748, -0.8466167449951172, 7.085057258605957, -2.1898603439331055, -1.8930219411849976, -2.1262638568878174, 1.1220703125, -0.414794921875, 0.060546875
647, 3993691699, -6.828181266784668, -0.8424883484840393, 7.099855422973633, -2.261972665786743, -1.838287353515625, -2.0246198177337646, 1.12060546875, -0.413818359375, 0.062744140625
648, 3993708366, -6.811985015869141, -0.8458341360092163, 7.117386817932129, -2.1777453422546387, -1.7723476886749268, -2.05745530128479, 1.1220703125, -0.414306640625, 0.061767578125
649, 3993725033, -6.818628787994385, -0.8357570767402649, 7.111751079559326, -2.245645046234131, -1.7492066621780396, -2.0855398178100586, 1.12158203125, -0.413818359375, 0.060546875
650, 3993741700, -6.834186553955078, -0.8296322226524353, 7.10188102722168, -2.2583489418029785, -1.6173653602600098, -1.9890952110290527, 1.1201171875, -0.414794921875, 0.061767578125
651, 3993758367, -6.817324638366699, -0.8499094843864441, 7.0845842361450195, -2.20908260345459, -1.8272356986999512, -2.0601446628570557, 1.12109375, -0.416748046875, 0.061279296875
652, 3993775034, -6.8295392990112305, -0.8447026014328003, 7.0968475341796875, -2.1390316486358643, -1.9201198816299438, -2.0371570587158203, 1.1201171875, -0.416748046875, 0.06103515625
653, 3993791701, -6.843333721160889, -0.8316998481750488, 7.11900520324707, -2.1992855072021484, -1.9486397504806519, -2.0474917888641357, 1.119140625, -0.415283203125, 0.06103515625
