sep=,
DeviceTag:,B,,,,,,,,,,,,,,,,,
FirmwareVersion:,2.2.1,,,,,,,,,,,,,,,,,
AppVersion:,2023.6.1,,,,,,,,,,,,,,,,,
SyncStatus:,Synced,,,,,,,,,,,,,,,,,
OutputRate:,60Hz,,,,,,,,,,,,,,,,,
FilterProfile:,General,,,,,,,,,,,,,,,,,
Measurement Mode:,Inertial Mode - Rate quantities (with mag),,,,,,,,,,,,,,,,,
StartTime:,2023-12-07 13:32:24.264 +0200,,,,,,,,,,,,,,,,,
 2023,,,,,,,,,,,,,,,,,,,

PacketCounter,SampleTimeFine,Acc_X,Acc_Y,Acc_Z,Gyr_X,Gyr_Y,Gyr_Z,Mag_X,Mag_Y,Mag_Z
1, 3982908150, -6.283703804016113, 1.7714853286743164, 7.112123012542725, -0.17977555096149445, -0.7470712065696716, -1.3486623764038086, 0.59716796875, 0.18310546875, -0.703125
2, 3982924817, -6.284140586853027, 1.8162165880203247, 7.139564514160156, -0.11582063883543015, -0.6093517541885376, -1.4338245391845703, 0.5986328125, 0.18359375, -0.70361328125
3, 3982941484, -6.29761266708374, 1.7949175834655762, 7.1499199867248535, -0.2344074547290802, -0.6649825572967529, -1.489186406135559, 0.59765625, 0.1826171875, -0.70263671875
4, 3982958151, -6.296769618988037, 1.78940749168396, 7.108872890472412, -0.2527333199977875, -0.7345466613769531, -1.4428019523620605, 0.59814453125, 0.18212890625, -0.70263671875
5, 3982974818, -6.294149875640869, 1.8021910190582275, 7.117021560668945, -0.21211157739162445, -0.8403655290603638, -1.3327183723449707, 0.59716796875, 0.18310546875, -0.70263671875
6, 3982991485, -6.266298294067383, 1.792555570602417, 7.14089298248291, -0.18264417350292206, -0.8027788996696472, -1.3213207721710205, 0.59716796875, 0.1845703125, -0.70166015625
7, 3983008152, -6.295618534088135, 1.7876880168914795, 7.113956928253174, -0.23566244542598724, -0.8570649027824402, -1.280763030052185, 0.59765625, 0.18505859375, -0.703125
8, 3983024819, -6.277718544006348, 1.8112313747406006, 7.160559177398682, -0.23617471754550934, -0.869384765625, -1.407699704170227, 0.59814453125, 0.18505859375, -0.70166015625
9, 3983041486, -6.287972927093506, 1.8089238405227661, 7.1332902908325195, -0.2735244333744049, -0.8104050755500793, -1.3986263275146484, 0.59765625, 0.18359375, -0.70361328125
10, 3983058153, -6.2864603996276855, 1.7986361980438232, 7.119112968444824, -0.21550524234771729, -0.7671259045600891, -1.3799866437911987, 0.5986328125, 0.1826171875, -0.7041015625
11, 3983074820, -6.287466526031494, 1.7941741943359375, 7.127048969268799, -0.22016677260398865, -0.7056170701980591, -1.4153705835342407, 0.5986328125, 0.1845703125, -0.70263671875
12, 3983091487, -6.283049583435059, 1.790035367012024, 7.121297836303711, -0.10101649165153503, -0.6099920272827148, -1.4148839712142944, 0.5966796875, 0.18505859375, -0.7021484375
13, 3983108154, -6.303205966949463, 1.787204623222351, 7.123198509216309, -0.00466151162981987, -0.619686484336853, -1.3419644832611084, 0.59814453125, 0.1845703125, -0.70263671875
14, 3983124821, -6.291192531585693, 1.7994810342788696, 7.108574390411377, -0.013100896961987019, -0.7650769948959351, -1.350416660308838, 0.5966796875, 0.1826171875, -0.70556640625
15, 3983141488, -6.2997636795043945, 1.7890827655792236, 7.1063408851623535, -0.03893130272626877, -0.7934173941612244, -1.3311047554016113, 0.59814453125, 0.1826171875, -0.70556640625
16, 3983158155, -6.2816009521484375, 1.8029210567474365, 7.1173529624938965, -0.1010805144906044, -0.8288013935089111, -1.4101455211639404, 0.60009765625, 0.18310546875, -0.700927734375
17, 3983174822, -6.2973313331604, 1.8306814432144165, 7.119071960449219, -0.23372870683670044, -0.9584273099899292, -1.4919655323028564, 0.59716796875, 0.18359375, -0.7021484375
18, 3983191489, -6.2799859046936035, 1.7785695791244507, 7.138158798217773, -0.3129231929779053, -0.9171139597892761, -1.5344569683074951, 0.59912109375, 0.18310546875, -0.701416015625
19, 3983208156, -6.291323661804199, 1.7686021327972412, 7.151655673980713, -0.2814067006111145, -0.832194983959198, -1.6571030616760254, 0.59912109375, 0.18359375, -0.703125
20, 3983224823, -6.287344455718994, 1.7972151041030884, 7.1408586502075195, -0.3315179646015167, -0.8723428845405579, -1.5214710235595703, 0.59716796875, 0.1826171875, -0.7041015625
21, 3983241490, -6.284287929534912, 1.7954350709915161, 7.115530014038086, -0.5182729959487915, -0.9439943432807922, -1.6521470546722412, 0.59814453125, 0.1845703125, -0.70458984375
22, 3983258157, -6.300504207611084, 1.7606332302093506, 7.143160343170166, -0.340354323387146, -0.9066766500473022, -1.4980995655059814, 0.59765625, 0.185302734375, -0.700927734375
23, 3983274824, -6.285302639007568, 1.7921768426895142, 7.117690086364746, -0.3280346691608429, -0.9047558903694153, -1.4001696109771729, 0.59619140625, 0.18359375, -0.70263671875
24, 3983291491, -6.294354438781738, 1.803765058517456, 7.143136501312256, -0.24022148549556732, -0.799538791179657, -1.3540409803390503, 0.5986328125, 0.1826171875, -0.70458984375
25, 3983308158, -6.303525924682617, 1.7811965942382812, 7.132920265197754, -0.20264770090579987, -0.7173733115196228, -1.351377248764038, 0.599609375, 0.1845703125, -0.7041015625
26, 3983324825, -6.300656795501709, 1.8097044229507446, 7.13450288772583, -0.15689058601856232, -0.613949179649353, -1.3146229982376099, 0.5966796875, 0.18310546875, -0.7041015625
27, 3983341492, -6.299810886383057, 1.7966742515563965, 7.136974334716797, -0.2286829799413681, -0.6971904635429382, -1.352388858795166, 0.59765625, 0.18359375, -0.7021484375
28, 3983358159, -6.295154094696045, 1.794588327407837, 7.121991157531738, -0.28209829330444336, -0.8236147165298462, -1.3688067197799683, 0.59814453125, 0.18408203125, -0.70166015625
29, 3983374826, -6.2993998527526855, 1.7815349102020264, 7.1465253829956055, -0.2375705987215042, -0.8877490162849426, -1.295708179473877, 0.59765625, 0.1826171875, -0.70263671875
30, 3983391493, -6.294694423675537, 1.7912325859069824, 7.140414237976074, -0.22555825114250183, -0.859779953956604, -1.2369654178619385, 0.5966796875, 0.18408203125, -0.7021484375
31, 3983408160, -6.282624244689941, 1.7894059419631958, 7.14263391494751, 0.11781201511621475, -0.7168994545936584, -1.0597126483917236, 0.59912109375, 0.18310546875, -0.70361328125
32, 3983424827, -6.284451007843018, 1.7724779844284058, 7.126021385192871, 0.21356506645679474, -0.4922632575035095, -1.0106513500213623, 0.59912109375, 0.1845703125, -0.70263671875
33, 3983441494, -6.281550407409668, 1.8019657135009766, 7.122506141662598, 0.3974514603614807, -0.5096414685249329, -0.8562453389167786, 0.596435546875, 0.18408203125, -0.70361328125
34, 3983458161, -6.273157596588135, 1.817171573638916, 7.1101908683776855, 0.20113013684749603, -0.672474205493927, -1.0033903121948242, 0.5986328125, 0.18310546875, -0.70361328125
35, 3983474828, -6.284256935119629, 1.798583984375, 7.1151018142700195, 0.1326545774936676, -0.5678335428237915, -1.1275991201400757, 0.5966796875, 0.18310546875, -0.70166015625
36, 3983491495, -6.280309200286865, 1.8046095371246338, 7.11690092086792, 0.09135410189628601, -0.46964728832244873, -1.3156604766845703, 0.59912109375, 0.18212890625, -0.70263671875
37, 3983508162, -6.2877607345581055, 1.8033391237258911, 7.105462551116943, 0.08399044722318649, -0.40569233894348145, -1.431045413017273, 0.59765625, 0.181640625, -0.70166015625
38, 3983524829, -6.29932165145874, 1.8106783628463745, 7.127458572387695, 0.019235137850046158, -0.2730441987514496, -1.380793571472168, 0.5986328125, 0.1826171875, -0.703125
39, 3983541496, -6.299492835998535, 1.7932361364364624, 7.1175432205200195, 0.08454111218452454, -0.40416839718818665, -1.4048693180084229, 0.5986328125, 0.18310546875, -0.703125
40, 3983558163, -6.296175956726074, 1.7944939136505127, 7.120103359222412, 0.026899736374616623, -0.4894842803478241, -1.4417643547058105, 0.59765625, 0.181640625, -0.703125
41, 3983574830, -6.304393768310547, 1.7888623476028442, 7.131702899932861, 0.03540315106511116, -0.5635817646980286, -1.4491920471191406, 0.60009765625, 0.18359375, -0.700927734375
42, 3983591497, -6.294242858886719, 1.798823595046997, 7.137533664703369, -0.06714367866516113, -0.7037729620933533, -1.4173939228057861, 0.599609375, 0.1845703125, -0.701416015625
43, 3983608164, -6.293663501739502, 1.7808785438537598, 7.112735748291016, -0.07492996752262115, -0.8821783065795898, -1.354578971862793, 0.59912109375, 0.18310546875, -0.70166015625
44, 3983624831, -6.296133518218994, 1.7992154359817505, 7.106954097747803, -0.05134065821766853, -0.82346111536026, -1.2419854402542114, 0.59814453125, 0.18359375, -0.703125
45, 3983641498, -6.289639472961426, 1.8078091144561768, 7.107627868652344, -0.034615565091371536, -0.8387391567230225, -1.257020115852356, 0.59765625, 0.1826171875, -0.7021484375
46, 3983658165, -6.305633068084717, 1.7985472679138184, 7.114317417144775, -0.15134543180465698, -0.9279096126556396, -1.2492337226867676, 0.5986328125, 0.1845703125, -0.703125
47, 3983674832, -6.30232572555542, 1.7995884418487549, 7.143824100494385, -0.1665593981742859, -0.9537401795387268, -1.366309404373169, 0.59912109375, 0.18212890625, -0.703125
48, 3983691499, -6.29322624206543, 1.7936265468597412, 7.102265357971191, -0.08071841299533844, -0.9392688274383545, -1.2026954889297485, 0.59912109375, 0.18212890625, -0.70263671875
49, 3983708166, -6.284140110015869, 1.7960364818572998, 7.128897666931152, -0.1363620012998581, -0.7891656756401062, -1.2458784580230713, 0.6005859375, 0.184814453125, -0.703125
50, 3983724833, -6.295115947723389, 1.7873497009277344, 7.129608631134033, -0.14430195093154907, -0.7323311567306519, -1.3088089227676392, 0.59765625, 0.18310546875, -0.7041015625
51, 3983741500, -6.280453681945801, 1.8044114112854004, 7.105982303619385, -0.08310040831565857, -0.6811825037002563, -1.3419902324676514, 0.59765625, 0.18359375, -0.700927734375
52, 3983758167, -6.29279088973999, 1.8053332567214966, 7.136664390563965, -0.17909680306911469, -0.8169042468070984, -1.3183624744415283, 0.59814453125, 0.18212890625, -0.703125
53, 3983774834, -6.300410270690918, 1.7852696180343628, 7.1071319580078125, -0.026778075844049454, -0.7471352219581604, -1.2804555892944336, 0.59765625, 0.18310546875, -0.701416015625
54, 3983791501, -6.300626277923584, 1.8005658388137817, 7.115729808807373, -0.03789398819208145, -0.7751044034957886, -1.1423135995864868, 0.5966796875, 0.18212890625, -0.70263671875
55, 3983808168, -6.283869743347168, 1.8036450147628784, 7.133854866027832, 0.0638972818851471, -0.7535000443458557, -0.8547213673591614, 0.59814453125, 0.18115234375, -0.701904296875
56, 3983824835, -6.301494598388672, 1.7714093923568726, 7.125082015991211, 0.35825759172439575, -0.45963266491889954, -0.8388542532920837, 0.599609375, 0.18310546875, -0.703125
57, 3983841502, -6.2779059410095215, 1.812941074371338, 7.153565883636475, 0.3627846837043762, -0.46280866861343384, -0.8481517434120178, 0.59716796875, 0.18310546875, -0.70166015625
58, 3983858169, -6.287987232208252, 1.8218770027160645, 7.108224868774414, 0.24243062734603882, -0.5809729099273682, -0.8043925166130066, 0.599609375, 0.18017578125, -0.702392578125
59, 3983874836, -6.279987812042236, 1.837321162223816, 7.1380486488342285, 0.10339207202196121, -0.6714370250701904, -0.9948229193687439, 0.59765625, 0.181640625, -0.701416015625
60, 3983891503, -6.292030334472656, 1.8203822374343872, 7.117961883544922, -0.034653984010219574, -0.7531286478042603, -1.1808351278305054, 0.599609375, 0.1806640625, -0.7021484375
61, 3983908170, -6.290925025939941, 1.806727409362793, 7.139930725097656, -0.23646926879882812, -0.7846450805664062, -1.3432068824768066, 0.5986328125, 0.1806640625, -0.70556640625
62, 3983924837, -6.298946380615234, 1.8231698274612427, 7.109665393829346, -0.2807920277118683, -0.8316828608512878, -1.396378993988037, 0.59912109375, 0.18115234375, -0.700927734375
63, 3983941504, -6.296934604644775, 1.8020516633987427, 7.127512454986572, -0.1491171270608902, -0.7055914402008057, -1.4210052490234375, 0.59814453125, 0.18017578125, -0.70361328125
64, 3983958171, -6.305367946624756, 1.8106175661087036, 7.1301493644714355, -0.22098638117313385, -0.7760392427444458, -1.4381402730941772, 0.5986328125, 0.181640625, -0.7021484375
65, 3983974838, -6.297751426696777, 1.8193320035934448, 7.1286115646362305, -0.25637033581733704, -0.7274903655052185, -1.3698697090148926, 0.59912109375, 0.18212890625, -0.701904296875
66, 3983991505, -6.304159164428711, 1.8235194683074951, 7.104356288909912, -0.24405059218406677, -0.7919959425926208, -1.3637993335723877, 0.59716796875, 0.18212890625, -0.699951171875
67, 3984008172, -6.293038368225098, 1.7986639738082886, 7.112131118774414, -0.35400596261024475, -0.9004400968551636, -1.450280785560608, 0.5986328125, 0.18115234375, -0.701904296875
68, 3984024839, -6.290365219116211, 1.821373462677002, 7.108982563018799, -0.41182658076286316, -1.008423089981079, -1.4820916652679443, 0.59619140625, 0.180419921875, -0.70263671875
69, 3984041506, -6.300060749053955, 1.8059989213943481, 7.111860752105713, -0.4209575057029724, -0.9561347961425781, -1.5279510021209717, 0.599609375, 0.18310546875, -0.703125
70, 3984058173, -6.297314643859863, 1.807828664779663, 7.122462749481201, -0.44956690073013306, -1.0079492330551147, -1.5413211584091187, 0.60009765625, 0.18408203125, -0.703125
71, 3984074840, -6.301239490509033, 1.8050190210342407, 7.125295639038086, -0.45005348324775696, -1.0526049137115479, -1.5771143436431885, 0.59912109375, 0.18359375, -0.699951171875
72, 3984091507, -6.293638706207275, 1.8011996746063232, 7.137808322906494, -0.43390464782714844, -1.0859782695770264, -1.44764244556427, 0.5986328125, 0.18359375, -0.705078125
73, 3984108174, -6.286072254180908, 1.8037797212600708, 7.119675636291504, -0.39417949318885803, -1.0686259269714355, -1.3824454545974731, 0.59814453125, 0.18408203125, -0.7041015625
74, 3984124841, -6.281357288360596, 1.798366904258728, 7.137101173400879, -0.19081461429595947, -0.8441946506500244, -1.3302851915359497, 0.59814453125, 0.1826171875, -0.70361328125
75, 3984141508, -6.311802387237549, 1.804161787033081, 7.113337516784668, -0.13326287269592285, -0.729116678237915, -1.2758710384368896, 0.59765625, 0.1826171875, -0.700927734375
76, 3984158175, -6.27953577041626, 1.8027805089950562, 7.107369899749756, -0.14898908138275146, -0.9421888589859009, -1.3423616886138916, 0.59716796875, 0.18212890625, -0.70361328125
77, 3984174842, -6.292074680328369, 1.7954243421554565, 7.154663562774658, -0.060202647000551224, -0.9055113792419434, -1.2362226247787476, 0.5986328125, 0.18359375, -0.70166015625
78, 3984191509, -6.293545246124268, 1.8151483535766602, 7.112579822540283, 0.007703019306063652, -0.809079647064209, -1.227795958518982, 0.599609375, 0.18115234375, -0.7021484375
79, 3984208176, -6.294752597808838, 1.807685375213623, 7.140750408172607, -0.08627638220787048, -0.8746736645698547, -1.1595381498336792, 0.60009765625, 0.18115234375, -0.70361328125
80, 3984224843, -6.290285587310791, 1.8001559972763062, 7.12116813659668, -0.032195162028074265, -0.9457104802131653, -1.186367392539978, 0.59814453125, 0.18408203125, -0.7021484375
81, 3984241510, -6.287331581115723, 1.7994979619979858, 7.114017963409424, 0.013645164668560028, -0.7556769847869873, -1.108171820640564, 0.5986328125, 0.1826171875, -0.70263671875
82, 3984258177, -6.2888875007629395, 1.8231289386749268, 7.1198811531066895, 0.006640092935413122, -0.8176854252815247, -1.1091707944869995, 0.59765625, 0.1826171875, -0.700927734375
83, 3984274844, -6.3024373054504395, 1.802849531173706, 7.110702037811279, -0.09347354620695114, -0.8344233632087708, -1.1751362085342407, 0.59716796875, 0.18359375, -0.700927734375
84, 3984291511, -6.2912116050720215, 1.8122270107269287, 7.12740421295166, -0.046435821801424026, -0.8683602213859558, -1.181052803993225, 0.59716796875, 0.18310546875, -0.70263671875
85, 3984308178, -6.279761791229248, 1.809323787689209, 7.124675273895264, -0.05422208085656166, -0.829262375831604, -1.1532117128372192, 0.5986328125, 0.1806640625, -0.7021484375
86, 3984324845, -6.302704811096191, 1.8044646978378296, 7.124690532684326, -0.048638518899679184, -0.7342904806137085, -1.1638154983520508, 0.5986328125, 0.18115234375, -0.700927734375
87, 3984341512, -6.300337791442871, 1.830495834350586, 7.114954948425293, -0.12758967280387878, -0.9171651601791382, -1.0848900079727173, 0.5986328125, 0.1826171875, -0.70166015625
88, 3984358179, -6.280734062194824, 1.8161855936050415, 7.127304553985596, -0.09777648001909256, -0.9044229388237, -1.1459506750106812, 0.599609375, 0.181640625, -0.7021484375
89, 3984374846, -6.287032127380371, 1.7941704988479614, 7.124962329864502, -0.034167345613241196, -0.9429828524589539, -1.1573867797851562, 0.59912109375, 0.18212890625, -0.700439453125
90, 3984391513, -6.295271873474121, 1.7975599765777588, 7.123824119567871, 0.08437463641166687, -0.8687699437141418, -1.0352011919021606, 0.5986328125, 0.18212890625, -0.703125
91, 3984408180, -6.298003673553467, 1.8245047330856323, 7.126069068908691, 0.030760854482650757, -0.8820502161979675, -0.9612574577331543, 0.59814453125, 0.181640625, -0.703125
92, 3984424847, -6.280459403991699, 1.8173980712890625, 7.094995021820068, 0.02698938362300396, -0.8650561571121216, -0.9965134263038635, 0.599609375, 0.18212890625, -0.70263671875
93, 3984441514, -6.288790225982666, 1.8180878162384033, 7.139791011810303, 0.08201825618743896, -0.7872318625450134, -1.0100111961364746, 0.59912109375, 0.18310546875, -0.7041015625
94, 3984458181, -6.3001508712768555, 1.8104643821716309, 7.119986057281494, -0.009668794460594654, -0.8043156862258911, -1.0417454242706299, 0.595703125, 0.181640625, -0.701416015625
95, 3984474848, -6.2881178855896, 1.8345677852630615, 7.120222091674805, -0.06857800483703613, -0.8011780977249146, -1.1157788038253784, 0.59814453125, 0.1806640625, -0.7041015625
96, 3984491515, -6.281972408294678, 1.8315112590789795, 7.106735706329346, -0.10337284952402115, -0.799884557723999, -1.2871278524398804, 0.59765625, 0.1806640625, -0.703125
97, 3984508182, -6.297574520111084, 1.8059355020523071, 7.1286444664001465, -0.11356671899557114, -0.9335573315620422, -1.2243894338607788, 0.59912109375, 0.18017578125, -0.70458984375
98, 3984524849, -6.300399303436279, 1.8313215970993042, 7.1309685707092285, -0.17347481846809387, -1.0576764345169067, -1.0964797735214233, 0.59814453125, 0.18310546875, -0.70556640625
99, 3984541516, -6.280906677246094, 1.8254709243774414, 7.123469829559326, -0.17367970943450928, -0.8974817395210266, -1.114485263824463, 0.59912109375, 0.1806640625, -0.703125
100, 3984558183, -6.287443161010742, 1.8226292133331299, 7.113107681274414, -0.022334273904561996, -0.993209183216095, -1.1471543312072754, 0.5966796875, 0.18017578125, -0.70263671875
101, 3984574850, -6.290653705596924, 1.8086578845977783, 7.119621753692627, -0.10640795528888702, -0.9635497331619263, -1.142082929611206, 0.59716796875, 0.179931640625, -0.7041015625
102, 3984591517, -6.292622089385986, 1.8050631284713745, 7.1258392333984375, -0.03588338941335678, -0.8234354257583618, -1.19241201877594, 0.59716796875, 0.18115234375, -0.703125
103, 3984608184, -6.28145694732666, 1.850273609161377, 7.127333641052246, -0.05040579289197922, -0.7806494235992432, -1.124218225479126, 0.59716796875, 0.18212890625, -0.7060546875
104, 3984624851, -6.275386810302734, 1.8245550394058228, 7.122274875640869, -0.06929516792297363, -0.790856122970581, -1.1979060173034668, 0.59814453125, 0.1806640625, -0.7021484375
105, 3984641518, -6.286091327667236, 1.8359932899475098, 7.138461589813232, -0.1598488688468933, -0.7554849982261658, -1.2676494121551514, 0.6005859375, 0.18017578125, -0.70263671875
106, 3984658185, -6.294253349304199, 1.8225373029708862, 7.118701457977295, -0.17862297594547272, -0.7598135471343994, -1.1933726072311401, 0.60009765625, 0.18115234375, -0.705078125
107, 3984674852, -6.287613868713379, 1.8103183507919312, 7.134868144989014, -0.14038319885730743, -0.6965245604515076, -1.2911361455917358, 0.5986328125, 0.181640625, -0.700927734375
108, 3984691519, -6.275891304016113, 1.837814211845398, 7.1128411293029785, -0.19892102479934692, -0.7633480429649353, -1.281185507774353, 0.595703125, 0.181640625, -0.70166015625
109, 3984708186, -6.2840962409973145, 1.828668475151062, 7.139837265014648, -0.11384844779968262, -0.714248538017273, -1.3554240465164185, 0.5966796875, 0.1806640625, -0.70458984375
110, 3984724853, -6.273414134979248, 1.8164042234420776, 7.1064453125, -0.1340312510728836, -0.5592789053916931, -1.3118568658828735, 0.5986328125, 0.18017578125, -0.701904296875
111, 3984741520, -6.274437427520752, 1.8281142711639404, 7.102761268615723, -0.06818100810050964, -0.5809729099273682, -1.327327013015747, 0.5986328125, 0.1806640625, -0.703125
112, 3984758187, -6.2949419021606445, 1.8401800394058228, 7.105852127075195, -0.06989706307649612, -0.6406504511833191, -1.3436039686203003, 0.5966796875, 0.18017578125, -0.70361328125
113, 3984774854, -6.270376205444336, 1.834009051322937, 7.117152214050293, 0.053613774478435516, -0.5283130407333374, -1.3839308023452759, 0.5966796875, 0.18017578125, -0.700927734375
114, 3984791521, -6.262202262878418, 1.8577743768692017, 7.117622375488281, -0.09877537190914154, -0.46008095145225525, -1.528745174407959, 0.5986328125, 0.18017578125, -0.7041015625
115, 3984808188, -6.284090042114258, 1.8179856538772583, 7.117778778076172, -0.276117742061615, -0.40478312969207764, -1.6426066160202026, 0.59716796875, 0.179931640625, -0.7021484375
116, 3984824855, -6.288779258728027, 1.8265354633331299, 7.128175258636475, -0.2024683803319931, -0.38499724864959717, -1.6243444681167603, 0.59912109375, 0.18115234375, -0.7060546875
117, 3984841522, -6.287447452545166, 1.8472040891647339, 7.110970973968506, -0.15608379244804382, -0.3848436176776886, -1.6266114711761475, 0.599609375, 0.1806640625, -0.7021484375
118, 3984858189, -6.287747383117676, 1.822219729423523, 7.1240973472595215, -0.12926729023456573, -0.39816221594810486, -1.5636553764343262, 0.59765625, 0.179443359375, -0.7021484375
119, 3984874856, -6.300075054168701, 1.8333103656768799, 7.123688220977783, -0.2745681405067444, -0.39365440607070923, -1.7449164390563965, 0.59912109375, 0.18115234375, -0.70263671875
120, 3984891523, -6.299044609069824, 1.803263545036316, 7.125759124755859, -0.3755717873573303, -0.5563206076622009, -1.7288955450057983, 0.599609375, 0.181640625, -0.700927734375
121, 3984908190, -6.2917890548706055, 1.8103750944137573, 7.107861042022705, -0.4109556972980499, -0.6617552042007446, -1.7601813077926636, 0.59814453125, 0.181640625, -0.701904296875
122, 3984924857, -6.296090602874756, 1.7899116277694702, 7.1007819175720215, -0.39005571603775024, -0.681118369102478, -1.6683213710784912, 0.60009765625, 0.1826171875, -0.70263671875
123, 3984941524, -6.2902984619140625, 1.8199653625488281, 7.103811264038086, -0.3678751587867737, -0.7212791442871094, -1.664210557937622, 0.59765625, 0.18310546875, -0.70263671875
124, 3984958191, -6.286530494689941, 1.8053637742996216, 7.120270729064941, -0.21852754056453705, -0.6122204065322876, -1.5409497022628784, 0.59912109375, 0.18310546875, -0.70166015625
125, 3984974858, -6.310404300689697, 1.808426856994629, 7.124423980712891, -0.19620607793331146, -0.523920476436615, -1.4986118078231812, 0.5986328125, 0.18212890625, -0.70263671875
126, 3984991525, -6.310670375823975, 1.8205167055130005, 7.117751121520996, -0.2173749804496765, -0.6539177894592285, -1.4235154390335083, 0.59814453125, 0.18359375, -0.7021484375
127, 3985008192, -6.301782608032227, 1.8262501955032349, 7.120347499847412, -0.2950454652309418, -0.7116231918334961, -1.5057064294815063, 0.5986328125, 0.18310546875, -0.70166015625
128, 3985024859, -6.305203437805176, 1.806190013885498, 7.117063522338867, -0.2675246596336365, -0.7729400992393494, -1.564987301826477, 0.59814453125, 0.18017578125, -0.700439453125
129, 3985041526, -6.292569637298584, 1.805404782295227, 7.128113269805908, -0.28127866983413696, -0.6333637237548828, -1.5872318744659424, 0.59716796875, 0.1806640625, -0.700927734375
130, 3985058193, -6.29888391494751, 1.8071154356002808, 7.125387191772461, -0.2312442809343338, -0.4614511728286743, -1.6346536874771118, 0.5986328125, 0.18212890625, -0.7021484375
131, 3985074860, -6.301304817199707, 1.802588939666748, 7.11761474609375, -0.2731338143348694, -0.46452468633651733, -1.596349835395813, 0.60009765625, 0.18359375, -0.7021484375
132, 3985091527, -6.30667781829834, 1.8099745512008667, 7.103029251098633, -0.3452272117137909, -0.6033648252487183, -1.5958441495895386, 0.6015625, 0.181640625, -0.702392578125
133, 3985108194, -6.308922290802002, 1.8159772157669067, 7.123166561126709, -0.3596663773059845, -0.6507163047790527, -1.649829387664795, 0.59912109375, 0.181640625, -0.70263671875
134, 3985124861, -6.309163570404053, 1.8081363439559937, 7.116659641265869, -0.43434014916419983, -0.8249722123146057, -1.6947153806686401, 0.60009765625, 0.18310546875, -0.701904296875
135, 3985141528, -6.316918849945068, 1.8173800706863403, 7.135760307312012, -0.42523476481437683, -0.7979763746261597, -1.601318597793579, 0.59912109375, 0.18212890625, -0.700927734375
136, 3985158195, -6.3050336837768555, 1.7988985776901245, 7.120588779449463, -0.30831286311149597, -0.7145558595657349, -1.5303459167480469, 0.59814453125, 0.18310546875, -0.701416015625
137, 3985174862, -6.2959442138671875, 1.8142629861831665, 7.131070137023926, -0.2792808413505554, -0.7636426091194153, -1.4407910108566284, 0.59912109375, 0.18212890625, -0.700439453125
138, 3985191529, -6.303145408630371, 1.8134859800338745, 7.108404636383057, -0.22936169803142548, -0.704784631729126, -1.4247959852218628, 0.59814453125, 0.18310546875, -0.7021484375
139, 3985208196, -6.303303241729736, 1.7976861000061035, 7.111863613128662, -0.24343591928482056, -0.5958923101425171, -1.4201345443725586, 0.6005859375, 0.1806640625, -0.701416015625
140, 3985224863, -6.296411514282227, 1.8233764171600342, 7.112074851989746, -0.2340744584798813, -0.5607644319534302, -1.5008400678634644, 0.59716796875, 0.18310546875, -0.7021484375
141, 3985241530, -6.2980756759643555, 1.809740424156189, 7.116783142089844, -0.18549999594688416, -0.5889896750450134, -1.4553265571594238, 0.60107421875, 0.1826171875, -0.7021484375
142, 3985258197, -6.315626621246338, 1.816996455192566, 7.1052565574646, -0.19775564968585968, -0.6315963864326477, -1.4721027612686157, 0.59765625, 0.18310546875, -0.701416015625
143, 3985274864, -6.309839725494385, 1.8094700574874878, 7.107306957244873, -0.15863226354122162, -0.7434598803520203, -1.41617751121521, 0.5986328125, 0.18115234375, -0.701904296875
144, 3985291531, -6.306833744049072, 1.8121070861816406, 7.089053630828857, -0.14527523517608643, -0.7096766233444214, -1.345396637916565, 0.60107421875, 0.18212890625, -0.698974609375
145, 3985308198, -6.289233207702637, 1.8093981742858887, 7.077246189117432, -0.1545342206954956, -0.8129086494445801, -1.3636585474014282, 0.59765625, 0.18212890625, -0.700439453125
146, 3985324865, -6.306023597717285, 1.814959168434143, 7.115389347076416, -0.1701451539993286, -0.7817379832267761, -1.4459009170532227, 0.59814453125, 0.1806640625, -0.700927734375
147, 3985341532, -6.295608997344971, 1.8226252794265747, 7.104714870452881, -0.23201261460781097, -0.6902877688407898, -1.4103631973266602, 0.599609375, 0.184814453125, -0.700439453125
148, 3985358199, -6.2920756340026855, 1.8118128776550293, 7.122731685638428, -0.15225468575954437, -0.7413724064826965, -1.3779503107070923, 0.5986328125, 0.181640625, -0.701904296875
149, 3985374866, -6.3065032958984375, 1.8080586194992065, 7.089638710021973, -0.12318429350852966, -0.6182137727737427, -1.4222347736358643, 0.599609375, 0.1826171875, -0.699951171875
150, 3985391533, -6.311049938201904, 1.8095357418060303, 7.1212239265441895, -0.17963466048240662, -0.5311049222946167, -1.5112900733947754, 0.595947265625, 0.1845703125, -0.703125
151, 3985408200, -6.300565719604492, 1.8211089372634888, 7.097883224487305, -0.3117194175720215, -0.6410219073295593, -1.5488001108169556, 0.5986328125, 0.18212890625, -0.701904296875
152, 3985424867, -6.31666374206543, 1.7950866222381592, 7.126104831695557, -0.3586162328720093, -0.7840303778648376, -1.4962812662124634, 0.59814453125, 0.1826171875, -0.70263671875
153, 3985441534, -6.317138195037842, 1.7939475774765015, 7.109842300415039, -0.381680428981781, -0.8613294363021851, -1.4507161378860474, 0.60009765625, 0.18310546875, -0.700927734375
154, 3985458201, -6.302544116973877, 1.8262348175048828, 7.120911598205566, -0.26941999793052673, -0.792789876461029, -1.4094796180725098, 0.599853515625, 0.18017578125, -0.698486328125
155, 3985474868, -6.315306663513184, 1.7856117486953735, 7.094320774078369, -0.27596402168273926, -0.8882100582122803, -1.446528434753418, 0.6005859375, 0.181640625, -0.699462890625
156, 3985491535, -6.303825378417969, 1.8163857460021973, 7.077911376953125, -0.36195868253707886, -1.0524131059646606, -1.4101840257644653, 0.60009765625, 0.1826171875, -0.701904296875
157, 3985508202, -6.317188739776611, 1.80216646194458, 7.109277725219727, -0.37795373797416687, -1.0288492441177368, -1.5222649574279785, 0.59765625, 0.18310546875, -0.7021484375
158, 3985524869, -6.302154541015625, 1.8021438121795654, 7.103821277618408, -0.3162783682346344, -0.8157644271850586, -1.5480440855026245, 0.5986328125, 0.18310546875, -0.70166015625
159, 3985541536, -6.302846431732178, 1.7972100973129272, 7.095022201538086, -0.39999356865882874, -0.6857800483703613, -1.5650640726089478, 0.599609375, 0.184814453125, -0.701416015625
160, 3985558203, -6.303640365600586, 1.7999317646026611, 7.111602306365967, -0.2950838804244995, -0.7690596580505371, -1.6026761531829834, 0.59765625, 0.18212890625, -0.698486328125
161, 3985574870, -6.3114519119262695, 1.7838654518127441, 7.122503757476807, -0.40407878160476685, -0.7050151228904724, -1.4378842115402222, 0.59619140625, 0.18359375, -0.700927734375
162, 3985591537, -6.308718204498291, 1.7996081113815308, 7.128934383392334, -0.3655828833580017, -0.8167250156402588, -1.4587458372116089, 0.5986328125, 0.1845703125, -0.703125
163, 3985608204, -6.310304164886475, 1.810837745666504, 7.126867771148682, -0.28946831822395325, -0.8079206347465515, -1.3819522857666016, 0.59765625, 0.18505859375, -0.700439453125
164, 3985624871, -6.3034749031066895, 1.8140034675598145, 7.117695331573486, -0.18100497126579285, -0.8683602213859558, -1.3471384048461914, 0.59716796875, 0.18212890625, -0.699951171875
165, 3985641538, -6.298981189727783, 1.7942664623260498, 7.1286444664001465, -0.181248277425766, -0.8503159880638123, -1.2351468801498413, 0.599609375, 0.18408203125, -0.703125
166, 3985658205, -6.313687801361084, 1.8109105825424194, 7.1051411628723145, -0.21975697576999664, -0.8535816073417664, -1.258018970489502, 0.59814453125, 0.18359375, -0.699951171875
167, 3985674872, -6.316468715667725, 1.8214223384857178, 7.094151496887207, -0.17569032311439514, -0.9452623128890991, -1.1960234642028809, 0.60009765625, 0.1845703125, -0.70263671875
168, 3985691539, -6.313539505004883, 1.8001303672790527, 7.129322528839111, -0.2270565629005432, -1.0400291681289673, -1.2156810760498047, 0.60107421875, 0.18310546875, -0.7021484375
169, 3985708206, -6.311179161071777, 1.7934906482696533, 7.0957183837890625, -0.20488880574703217, -0.9455825090408325, -1.227629542350769, 0.6005859375, 0.181640625, -0.701904296875
170, 3985724873, -6.2920756340026855, 1.8004893064498901, 7.110495090484619, -0.2428596019744873, -0.9110181331634521, -1.32146155834198, 0.599609375, 0.18359375, -0.700439453125
171, 3985741540, -6.302077293395996, 1.7944321632385254, 7.114847183227539, -0.20263488590717316, -1.0365203619003296, -1.3017014265060425, 0.5966796875, 0.1826171875, -0.701416015625
172, 3985758207, -6.314257621765137, 1.8168584108352661, 7.125214576721191, -0.18409126996994019, -0.9761127233505249, -1.285526990890503, 0.60009765625, 0.18408203125, -0.700927734375
173, 3985774874, -6.3146185874938965, 1.7847152948379517, 7.1461873054504395, -0.09025914967060089, -0.9051271677017212, -1.158026933670044, 0.59765625, 0.18212890625, -0.700439453125
174, 3985791541, -6.290886878967285, 1.8148502111434937, 7.113802909851074, -0.09754597395658493, -0.8151498436927795, -1.1920150518417358, 0.599609375, 0.184814453125, -0.699951171875
175, 3985808208, -6.2902984619140625, 1.812998652458191, 7.119132041931152, -0.14887382090091705, -0.9762793183326721, -1.3123050928115845, 0.59619140625, 0.18408203125, -0.70166015625
176, 3985824875, -6.31265115737915, 1.7950106859207153, 7.124438285827637, -0.3465910851955414, -1.0364307165145874, -1.371188759803772, 0.59814453125, 0.18359375, -0.70263671875
177, 3985841542, -6.30787467956543, 1.7882579565048218, 7.110237121582031, -0.3202868103981018, -1.0790503025054932, -1.328069806098938, 0.599609375, 0.181640625, -0.701904296875
178, 3985858209, -6.317405700683594, 1.8121191263198853, 7.102251052856445, -0.2978244423866272, -1.0773980617523193, -1.2628085613250732, 0.59912109375, 0.18310546875, -0.698974609375
179, 3985874876, -6.297052383422852, 1.8142675161361694, 7.11246395111084, -0.2955705523490906, -1.0964667797088623, -1.1951781511306763, 0.59814453125, 0.18212890625, -0.7021484375
180, 3985891543, -6.298818588256836, 1.8003952503204346, 7.1474127769470215, -0.21048517525196075, -1.0376089811325073, -1.2355952262878418, 0.599609375, 0.18359375, -0.701416015625
181, 3985908210, -6.289737224578857, 1.799848198890686, 7.131622791290283, -0.25319433212280273, -1.001763939857483, -1.2293199300765991, 0.59765625, 0.18359375, -0.7021484375
182, 3985924877, -6.3072919845581055, 1.7862138748168945, 7.114770412445068, -0.21112549304962158, -1.0281963348388672, -1.1327216625213623, 0.60009765625, 0.18359375, -0.700927734375
183, 3985941544, -6.312750816345215, 1.8103440999984741, 7.113773345947266, -0.14659430086612701, -1.0431541204452515, -1.092432975769043, 0.60009765625, 0.1826171875, -0.701904296875
184, 3985958211, -6.281058311462402, 1.8020833730697632, 7.118438720703125, -0.10344967991113663, -1.0797929763793945, -1.1327087879180908, 0.60009765625, 0.181640625, -0.70263671875
185, 3985974878, -6.277255535125732, 1.806509017944336, 7.132467746734619, -0.17448653280735016, -1.0214473009109497, -1.1645070314407349, 0.60009765625, 0.18359375, -0.7041015625
186, 3985991545, -6.274518966674805, 1.8240302801132202, 7.1203389167785645, -0.14294448494911194, -0.8979300856590271, -1.215783715248108, 0.5986328125, 0.18310546875, -0.70263671875
187, 3986008212, -6.295731067657471, 1.7967315912246704, 7.119770526885986, -0.11164575070142746, -0.8604457974433899, -1.2987046241760254, 0.599609375, 0.181640625, -0.703125
188, 3986024879, -6.285882949829102, 1.7960630655288696, 7.130350589752197, -0.1739230453968048, -0.8186331391334534, -1.2309207916259766, 0.59814453125, 0.1826171875, -0.701416015625
189, 3986041546, -6.293037414550781, 1.806870698928833, 7.125953674316406, 0.040589723736047745, -0.8984167575836182, -1.195844054222107, 0.599609375, 0.18115234375, -0.701416015625
190, 3986058213, -6.307814121246338, 1.7984338998794556, 7.1298370361328125, -0.07259918749332428, -0.7631174921989441, -1.235044240951538, 0.6005859375, 0.181640625, -0.70263671875
191, 3986074880, -6.300088882446289, 1.7969313859939575, 7.125164031982422, -0.13547837734222412, -0.8490610122680664, -1.0805102586746216, 0.5986328125, 0.18212890625, -0.701416015625
192, 3986091547, -6.293088436126709, 1.8088245391845703, 7.142071723937988, -0.15864506363868713, -0.9040642380714417, -1.2565333843231201, 0.59912109375, 0.18310546875, -0.701416015625
193, 3986108214, -6.290957450866699, 1.8040199279785156, 7.141034126281738, -0.23306278884410858, -0.8625333309173584, -1.3539642095565796, 0.59912109375, 0.18212890625, -0.701904296875
194, 3986124881, -6.2904181480407715, 1.811156153678894, 7.128331184387207, -0.2893594801425934, -0.970862090587616, -1.3272373676300049, 0.59912109375, 0.18310546875, -0.70166015625
195, 3986141548, -6.2885918617248535, 1.800363302230835, 7.134311199188232, -0.3246666193008423, -1.0426290035247803, -1.3946244716644287, 0.599609375, 0.18408203125, -0.70166015625
196, 3986158215, -6.291172504425049, 1.8149594068527222, 7.119698524475098, -0.29578831791877747, -0.9887270927429199, -1.4135394096374512, 0.59619140625, 0.1826171875, -0.7021484375
197, 3986174882, -6.288072109222412, 1.8052740097045898, 7.126098155975342, -0.3354879319667816, -0.8663879632949829, -1.4445178508758545, 0.5986328125, 0.1826171875, -0.70166015625
198, 3986191549, -6.281362533569336, 1.8071479797363281, 7.117951393127441, -0.3262033462524414, -0.848382294178009, -1.5300132036209106, 0.5986328125, 0.18310546875, -0.701416015625
199, 3986208216, -6.291039943695068, 1.8121285438537598, 7.121868133544922, -0.4353006184101105, -0.853696882724762, -1.5826342105865479, 0.5966796875, 0.1826171875, -0.70263671875
200, 3986224883, -6.285212516784668, 1.791466474533081, 7.093924045562744, -0.5170179605484009, -1.0387870073318481, -1.6148806810379028, 0.59814453125, 0.1845703125, -0.70263671875
201, 3986241550, -6.299131870269775, 1.8005266189575195, 7.1256489753723145, -0.428487628698349, -1.055294394493103, -1.526977777481079, 0.5966796875, 0.1845703125, -0.7021484375
202, 3986258217, -6.280512809753418, 1.790756106376648, 7.137754440307617, -0.4937358498573303, -1.1722545623779297, -1.5000971555709839, 0.6005859375, 0.1806640625, -0.702392578125
203, 3986274884, -6.294890880584717, 1.7908084392547607, 7.131046772003174, -0.5662199258804321, -1.248260498046875, -1.5383883714675903, 0.59814453125, 0.18212890625, -0.700927734375
204, 3986291551, -6.2824835777282715, 1.7880423069000244, 7.1156792640686035, -0.5215385556221008, -1.256840705871582, -1.4522656202316284, 0.59765625, 0.18408203125, -0.701416015625
205, 3986308218, -6.2879228591918945, 1.7910302877426147, 7.128750324249268, -0.5518896579742432, -1.2409096956253052, -1.44911527633667, 0.5986328125, 0.18359375, -0.703125
206, 3986324885, -6.266854286193848, 1.8091837167739868, 7.156695365905762, -0.640599250793457, -1.2649215459823608, -1.5865274667739868, 0.5966796875, 0.1826171875, -0.70361328125
207, 3986341552, -6.28085994720459, 1.7838369607925415, 7.125388145446777, -0.7409369945526123, -1.1256141662597656, -1.7455693483352661, 0.59716796875, 0.18359375, -0.7021484375
208, 3986358219, -6.2847676277160645, 1.7794045209884644, 7.136346817016602, -0.532641589641571, -1.0924710035324097, -1.477890968322754, 0.596435546875, 0.18408203125, -0.703125
209, 3986374886, -6.280603885650635, 1.792663812637329, 7.1357221603393555, -0.4077413082122803, -0.9083030223846436, -1.5792020559310913, 0.59765625, 0.18212890625, -0.7021484375
210, 3986391553, -6.270730495452881, 1.8001855611801147, 7.137627124786377, -0.4236980676651001, -0.9127084612846375, -1.5675867795944214, 0.59912109375, 0.18408203125, -0.701416015625
211, 3986408220, -6.2890143394470215, 1.7808723449707031, 7.133627414703369, -0.38422891497612, -0.890566349029541, -1.5389773845672607, 0.59716796875, 0.18505859375, -0.703125
212, 3986424887, -6.292071342468262, 1.8061177730560303, 7.145078182220459, -0.40744680166244507, -0.9346969723701477, -1.548620581626892, 0.5966796875, 0.1826171875, -0.703125
213, 3986441554, -6.276211261749268, 1.8067361116409302, 7.120992660522461, -0.3834221363067627, -0.7550496459007263, -1.6126909255981445, 0.5986328125, 0.18408203125, -0.7021484375
214, 3986458221, -6.289564609527588, 1.7889076471328735, 7.142438888549805, -0.4014534056186676, -0.6641371846199036, -1.6861478090286255, 0.59716796875, 0.18505859375, -0.703125
215, 3986474888, -6.293299198150635, 1.7775568962097168, 7.1402387619018555, -0.33278584480285645, -0.6563510298728943, -1.6405575275421143, 0.59814453125, 0.181640625, -0.703125
216, 3986491555, -6.287943363189697, 1.8000568151474, 7.14146089553833, -0.35012564063072205, -0.7021849751472473, -1.6338469982147217, 0.59765625, 0.185302734375, -0.703125
217, 3986508222, -6.276729106903076, 1.7689961194992065, 7.140809059143066, -0.4198881685733795, -0.708210289478302, -1.6328415870666504, 0.596923828125, 0.1845703125, -0.70556640625
218, 3986524889, -6.276157379150391, 1.784516453742981, 7.1314826011657715, -0.5506473779678345, -0.7847346067428589, -1.6156489849090576, 0.597900390625, 0.186767578125, -0.70263671875
219, 3986541556, -6.287092685699463, 1.811128854751587, 7.130808353424072, -0.5092700719833374, -0.9015540480613708, -1.6461150646209717, 0.59765625, 0.1845703125, -0.70166015625
220, 3986558223, -6.294707775115967, 1.7947065830230713, 7.11319637298584, -0.531143307685852, -0.9501798748970032, -1.6680269241333008, 0.59912109375, 0.185302734375, -0.699951171875
221, 3986574890, -6.289119720458984, 1.7873554229736328, 7.156844615936279, -0.4932749271392822, -0.7867196798324585, -1.7045378684997559, 0.597900390625, 0.185791015625, -0.705078125
222, 3986591557, -6.289658546447754, 1.759230375289917, 7.160882949829102, -0.38142433762550354, -0.7660759091377258, -1.5431139469146729, 0.59912109375, 0.185791015625, -0.70458984375
223, 3986608224, -6.284183025360107, 1.776753306388855, 7.130766868591309, -0.139128178358078, -0.6165105104446411, -1.342118263244629, 0.60009765625, 0.184814453125, -0.70263671875
224, 3986624891, -6.287839889526367, 1.7858117818832397, 7.1243367195129395, -0.15745407342910767, -0.744970977306366, -1.4383066892623901, 0.596435546875, 0.185546875, -0.70263671875
225, 3986641558, -6.297484397888184, 1.7791950702667236, 7.148165225982666, -0.21996185183525085, -0.7981685400009155, -1.4243990182876587, 0.59619140625, 0.18310546875, -0.7021484375
226, 3986658225, -6.283847808837891, 1.789450764656067, 7.127729892730713, -0.27424800395965576, -0.8732906579971313, -1.3464339971542358, 0.597412109375, 0.185302734375, -0.7041015625
227, 3986674892, -6.28971004486084, 1.7904082536697388, 7.156528949737549, -0.2746962010860443, -0.9497957825660706, -1.2681232690811157, 0.59716796875, 0.185302734375, -0.70166015625
228, 3986691559, -6.277858257293701, 1.7881531715393066, 7.142340183258057, -0.13314761221408844, -0.8615983724594116, -1.262283444404602, 0.5986328125, 0.18359375, -0.70458984375
229, 3986708226, -6.293695449829102, 1.7881499528884888, 7.134964942932129, -0.09229536354541779, -0.7371206879615784, -1.2598375082015991, 0.59716796875, 0.18408203125, -0.70263671875
230, 3986724893, -6.2850213050842285, 1.7669888734817505, 7.163422584533691, -0.13522224128246307, -0.723763644695282, -1.2323421239852905, 0.5966796875, 0.1845703125, -0.70263671875
231, 3986741560, -6.291570663452148, 1.7733736038208008, 7.122847080230713, -0.09068175405263901, -0.6139748096466064, -1.2526401281356812, 0.597412109375, 0.185791015625, -0.703125
232, 3986758227, -6.286256790161133, 1.770156979560852, 7.130404472351074, -0.08686547726392746, -0.6479372978210449, -1.2567895650863647, 0.59912109375, 0.18408203125, -0.70458984375
233, 3986774894, -6.278171539306641, 1.7825171947479248, 7.1396284103393555, 0.006025387439876795, -0.6966654062271118, -1.1205427646636963, 0.59814453125, 0.185791015625, -0.70263671875
234, 3986791561, -6.287407398223877, 1.7784699201583862, 7.139791965484619, 0.012595044448971748, -0.7885125279426575, -1.157271385192871, 0.5966796875, 0.18359375, -0.70361328125
235, 3986808228, -6.264468193054199, 1.779813289642334, 7.147426128387451, 0.042978107929229736, -0.8447708487510681, -1.1457968950271606, 0.59912109375, 0.1845703125, -0.7041015625
236, 3986824895, -6.286893844604492, 1.7946820259094238, 7.144059181213379, 0.060913410037755966, -0.6348364353179932, -1.0788710117340088, 0.60009765625, 0.185302734375, -0.703125
237, 3986841562, -6.280815601348877, 1.792567491531372, 7.1239914894104, 0.21999387443065643, -0.438732773065567, -1.1153818368911743, 0.597412109375, 0.186279296875, -0.70361328125
238, 3986858229, -6.291403770446777, 1.790407419204712, 7.125307559967041, 0.2018088549375534, -0.27036768198013306, -1.0874512195587158, 0.5966796875, 0.18505859375, -0.70166015625
239, 3986874896, -6.274022102355957, 1.8004810810089111, 7.134876251220703, 0.15409240126609802, -0.3941025733947754, -1.2500662803649902, 0.59765625, 0.1845703125, -0.7021484375
240, 3986891563, -6.273837566375732, 1.8111628293991089, 7.141294479370117, 0.145717054605484, -0.3477948307991028, -1.2707101106643677, 0.59814453125, 0.1845703125, -0.70263671875
241, 3986908230, -6.267821311950684, 1.795853853225708, 7.100174427032471, 0.07866300642490387, -0.17266800999641418, -1.420556902885437, 0.59619140625, 0.18408203125, -0.700927734375
242, 3986924897, -6.302981376647949, 1.776875615119934, 7.118893623352051, 0.07092797756195068, -0.1536249816417694, -1.4625108242034912, 0.59765625, 0.18310546875, -0.700439453125
243, 3986941564, -6.2838053703308105, 1.7894662618637085, 7.134979248046875, 0.012095597572624683, -0.19755074381828308, -1.4283946752548218, 0.59814453125, 0.1845703125, -0.70263671875
244, 3986958231, -6.300745964050293, 1.7907381057739258, 7.130403995513916, 0.0746161937713623, -0.24146370589733124, -1.452816367149353, 0.59765625, 0.1826171875, -0.7021484375
245, 3986974898, -6.3044304847717285, 1.7952945232391357, 7.119581699371338, -0.02540779858827591, -0.4118522107601166, -1.428330659866333, 0.59814453125, 0.185302734375, -0.7021484375
246, 3986991565, -6.3057637214660645, 1.7915419340133667, 7.136932849884033, -0.04241463169455528, -0.37756961584091187, -1.4051640033721924, 0.59912109375, 0.18310546875, -0.700927734375
247, 3987008232, -6.297825813293457, 1.7820799350738525, 7.112123966217041, 0.027834603562951088, -0.31043875217437744, -1.3527989387512207, 0.59912109375, 0.1845703125, -0.7021484375
248, 3987024899, -6.297030925750732, 1.801972508430481, 7.116515159606934, 0.07697257399559021, -0.2861194908618927, -1.3406327962875366, 0.59814453125, 0.185791015625, -0.70166015625
249, 3987041566, -6.297856330871582, 1.7846195697784424, 7.117918014526367, 0.09870494157075882, -0.37978509068489075, -1.2801482677459717, 0.5986328125, 0.18408203125, -0.7021484375
250, 3987058233, -6.304986476898193, 1.7854347229003906, 7.119296073913574, 0.18175412714481354, -0.3718707859516144, -1.1605371236801147, 0.59912109375, 0.18310546875, -0.70166015625
251, 3987074900, -6.3080034255981445, 1.797029972076416, 7.122838020324707, 0.260564386844635, -0.32450008392333984, -1.1071856021881104, 0.599609375, 0.18359375, -0.700439453125
252, 3987091567, -6.288459300994873, 1.7868907451629639, 7.109043598175049, 0.21143925189971924, -0.2536810040473938, -1.1423519849777222, 0.599609375, 0.1826171875, -0.70263671875
253, 3987108234, -6.30543327331543, 1.8203033208847046, 7.107566833496094, 0.2090444564819336, -0.3394707441329956, -1.2175253629684448, 0.59912109375, 0.18310546875, -0.700439453125
254, 3987124901, -6.297411918640137, 1.8046109676361084, 7.102880477905273, 0.08203107863664627, -0.41337621212005615, -1.2935566902160645, 0.59912109375, 0.185302734375, -0.70166015625
255, 3987141568, -6.3082990646362305, 1.8050007820129395, 7.124992370605469, -0.08080806583166122, -0.4118521809577942, -1.4015909433364868, 0.599609375, 0.184814453125, -0.700927734375
256, 3987158235, -6.317755222320557, 1.8034900426864624, 7.106424808502197, -0.08759543299674988, -0.29679998755455017, -1.3238435983657837, 0.59765625, 0.1826171875, -0.697998046875
257, 3987174902, -6.3047285079956055, 1.7732182741165161, 7.1175217628479, -0.017378218472003937, -0.4608877897262573, -1.2625396251678467, 0.6005859375, 0.1826171875, -0.701416015625
258, 3987191569, -6.303548812866211, 1.7914884090423584, 7.088576793670654, 0.003425698494538665, -0.5800507664680481, -1.270172119140625, 0.599609375, 0.18359375, -0.700439453125
259, 3987208236, -6.31035041809082, 1.7989866733551025, 7.119511127471924, 2.497238456271589E-4, -0.7673949003219604, -1.1722036600112915, 0.59912109375, 0.18212890625, -0.701416015625
260, 3987224903, -6.302806377410889, 1.786763072013855, 7.101941108703613, -0.02621459774672985, -0.6492050886154175, -1.2584160566329956, 0.60009765625, 0.18408203125, -0.700927734375
261, 3987241570, -6.313558101654053, 1.7905564308166504, 7.116069316864014, 0.10824566334486008, -0.38285860419273376, -1.2060762643814087, 0.5986328125, 0.18310546875, -0.701416015625
262, 3987258237, -6.306178569793701, 1.7941279411315918, 7.125491142272949, 0.17418557405471802, -0.4221741557121277, -1.1162015199661255, 0.59912109375, 0.1826171875, -0.700927734375
263, 3987274904, -6.298520088195801, 1.799678087234497, 7.109442234039307, 0.06878930330276489, -0.4772542417049408, -1.236081600189209, 0.59814453125, 0.18408203125, -0.698974609375
264, 3987291571, -6.298325538635254, 1.8110466003417969, 7.094412326812744, -0.01904304325580597, -0.40876585245132446, -1.3316683769226074, 0.59912109375, 0.18408203125, -0.701416015625
265, 3987308238, -6.318373680114746, 1.7975809574127197, 7.106049537658691, 0.012069985270500183, -0.33756256103515625, -1.331335425376892, 0.59716796875, 0.18359375, -0.703125
266, 3987324905, -6.31296443939209, 1.7934566736221313, 7.109625339508057, 0.09442762285470963, -0.32480746507644653, -1.308027744293213, 0.59814453125, 0.18310546875, -0.701416015625
267, 3987341572, -6.30679178237915, 1.808504343032837, 7.1065144538879395, 0.024287240579724312, -0.4987560510635376, -1.3127532005310059, 0.602294921875, 0.18310546875, -0.701416015625
268, 3987358239, -6.294999122619629, 1.8123162984848022, 7.1352434158325195, 0.008637882769107819, -0.6324543952941895, -1.2726054191589355, 0.601806640625, 0.1826171875, -0.699951171875
269, 3987374906, -6.318111419677734, 1.7940737009048462, 7.112992763519287, 0.040397632867097855, -0.47845807671546936, -1.225170612335205, 0.60009765625, 0.18310546875, -0.699462890625
270, 3987391573, -6.3256025314331055, 1.7870447635650635, 7.1001152992248535, 0.12240950763225555, -0.5622628331184387, -1.1254220008850098, 0.599609375, 0.18310546875, -0.699462890625
271, 3987408240, -6.3191986083984375, 1.8095723390579224, 7.098641872406006, 0.1586514562368393, -0.5731865763664246, -1.1085689067840576, 0.60009765625, 0.181640625, -0.701416015625
272, 3987424907, -6.3158721923828125, 1.8124408721923828, 7.079561710357666, 0.04521281644701958, -0.47058215737342834, -1.167772650718689, 0.6005859375, 0.18115234375, -0.700927734375
273, 3987441574, -6.323531627655029, 1.815596342086792, 7.097253799438477, -0.024536963552236557, -0.3891977369785309, -1.292826533317566, 0.60009765625, 0.1826171875, -0.701416015625
274, 3987458241, -6.324444770812988, 1.8128535747528076, 7.126701354980469, -0.15536661446094513, -0.6137442588806152, -1.3971726894378662, 0.600341796875, 0.1826171875, -0.696533203125
275, 3987474908, -6.321908950805664, 1.7998526096343994, 7.105937480926514, -0.20089319348335266, -0.6768155097961426, -1.522533893585205, 0.5986328125, 0.1845703125, -0.697998046875
276, 3987491575, -6.328015327453613, 1.801375389099121, 7.105924606323242, -0.17630501091480255, -0.632134199142456, -1.3294782638549805, 0.600341796875, 0.181640625, -0.697998046875
277, 3987508242, -6.328380107879639, 1.8004465103149414, 7.104130268096924, -0.1834893822669983, -0.7219707369804382, -1.4111316204071045, 0.60009765625, 0.181640625, -0.701416015625
278, 3987524909, -6.324756145477295, 1.817232370376587, 7.109649658203125, -0.14884820580482483, -0.7173477411270142, -1.3873504400253296, 0.60009765625, 0.18310546875, -0.701416015625
279, 3987541576, -6.327986717224121, 1.8057608604431152, 7.091397285461426, -0.13561923801898956, -0.6748049855232239, -1.3992857933044434, 0.60009765625, 0.18359375, -0.698974609375
280, 3987558243, -6.317499160766602, 1.7834216356277466, 7.086756706237793, -0.09602201730012894, -0.6198273301124573, -1.3346009254455566, 0.600341796875, 0.181640625, -0.697998046875
281, 3987574910, -6.319106101989746, 1.8075859546661377, 7.074150085449219, -0.13104097545146942, -0.7792727947235107, -1.3588370084762573, 0.601318359375, 0.181640625, -0.699951171875
282, 3987591577, -6.337777137756348, 1.779438853263855, 7.092818737030029, -0.11214520782232285, -0.9628197550773621, -1.2360432147979736, 0.60205078125, 0.18359375, -0.700927734375
283, 3987608244, -6.3270182609558105, 1.8104304075241089, 7.100589752197266, -0.13175173103809357, -0.9622435569763184, -1.2119289636611938, 0.59814453125, 0.1826171875, -0.698974609375
284, 3987624911, -6.316073417663574, 1.8244609832763672, 7.105910778045654, -0.0978148952126503, -0.9040002226829529, -1.2068703174591064, 0.60009765625, 0.181640625, -0.699951171875
285, 3987641578, -6.303063869476318, 1.824284315109253, 7.112267017364502, -0.0033296511974185705, -0.9044612646102905, -1.202439308166504, 0.60107421875, 0.18212890625, -0.699951171875
286, 3987658245, -6.304434776306152, 1.8103241920471191, 7.070305347442627, -0.048279937356710434, -0.9076115489006042, -1.1292895078659058, 0.599609375, 0.18310546875, -0.697509765625
287, 3987674912, -6.308082103729248, 1.8220704793930054, 7.097262382507324, -0.12346602231264114, -0.7715953588485718, -1.1388559341430664, 0.600341796875, 0.18115234375, -0.698486328125
288, 3987691579, -6.328256607055664, 1.8029377460479736, 7.0796799659729, -0.056565653532743454, -0.8176854848861694, -1.225093960762024, 0.599609375, 0.18310546875, -0.699951171875
289, 3987708246, -6.307971477508545, 1.8162001371383667, 7.106192111968994, -0.04592357575893402, -0.7966702580451965, -1.1802332401275635, 0.59912109375, 0.1826171875, -0.701904296875
290, 3987724913, -6.302432060241699, 1.823351263999939, 7.101652145385742, -0.025907248258590698, -0.7238277196884155, -1.1799899339675903, 0.6005859375, 0.18115234375, -0.70263671875
291, 3987741580, -6.329164505004883, 1.7975105047225952, 7.088030815124512, 0.017781617119908333, -0.6921831965446472, -1.2471593618392944, 0.599609375, 0.1826171875, -0.701416015625
292, 3987758247, -6.322633266448975, 1.832331895828247, 7.094089508056641, -0.04571866989135742, -0.876825213432312, -1.228615641593933, 0.6005859375, 0.18115234375, -0.699951171875
293, 3987774914, -6.318064212799072, 1.8053935766220093, 7.08784294128418, -0.12552784383296967, -0.9927226305007935, -1.1728568077087402, 0.60009765625, 0.181640625, -0.699462890625
294, 3987791581, -6.313807964324951, 1.810214877128601, 7.101820468902588, -0.1245417669415474, -0.9476571679115295, -1.2080614566802979, 0.60009765625, 0.181640625, -0.701416015625
295, 3987808248, -6.329282283782959, 1.8324929475784302, 7.109099864959717, -0.19509193301200867, -0.9600024223327637, -1.338225245475769, 0.601318359375, 0.18115234375, -0.701416015625
296, 3987824915, -6.308256149291992, 1.8055042028427124, 7.104966163635254, -0.15271571278572083, -0.9491041302680969, -1.3444105386734009, 0.59912109375, 0.1796875, -0.700927734375
297, 3987841582, -6.31504487991333, 1.8152525424957275, 7.108414649963379, -0.21556927263736725, -0.933890163898468, -1.3829962015151978, 0.602294921875, 0.18212890625, -0.699951171875
298, 3987858249, -6.314177989959717, 1.8084716796875, 7.099611282348633, -0.22202368080615997, -0.6792359352111816, -1.3595349788665771, 0.60009765625, 0.1796875, -0.700927734375
299, 3987874916, -6.308712959289551, 1.8167415857315063, 7.09245491027832, -0.11073651164770126, -0.747634768486023, -1.3562437295913696, 0.599853515625, 0.18115234375, -0.697021484375
300, 3987891583, -6.303438186645508, 1.8121615648269653, 7.090997219085693, -0.1570955067873001, -0.8764154314994812, -1.387235164642334, 0.601318359375, 0.1806640625, -0.699462890625
301, 3987908250, -6.320911407470703, 1.803903579711914, 7.1058125495910645, -0.19965098798274994, -0.8142277002334595, -1.3428994417190552, 0.60009765625, 0.1806640625, -0.701416015625
302, 3987924917, -6.325431823730469, 1.8264309167861938, 7.091546058654785, -0.19789649546146393, -0.8426065444946289, -1.3848401308059692, 0.59912109375, 0.1826171875, -0.700439453125
303, 3987941584, -6.32058572769165, 1.8177589178085327, 7.108495712280273, -0.3960363566875458, -0.9290237426757812, -1.4445433616638184, 0.60009765625, 0.1826171875, -0.700439453125
304, 3987958251, -6.324194431304932, 1.791561245918274, 7.122408866882324, -0.32716381549835205, -0.9208790063858032, -1.3569096326828003, 0.59912109375, 0.18115234375, -0.698974609375
305, 3987974918, -6.317772388458252, 1.8172876834869385, 7.092754364013672, -0.3392786383628845, -0.9383084774017334, -1.2630774974822998, 0.601318359375, 0.181640625, -0.698486328125
306, 3987991585, -6.320672035217285, 1.8152369260787964, 7.112943649291992, -0.33147957921028137, -1.0624403953552246, -1.2742575407028198, 0.599609375, 0.18310546875, -0.700927734375
307, 3988008252, -6.319645881652832, 1.802307367324829, 7.112584114074707, -0.21120233833789825, -1.0919848680496216, -1.2794185876846313, 0.599609375, 0.18310546875, -0.701904296875
308, 3988024919, -6.314825534820557, 1.8183616399765015, 7.084881782531738, -0.25922611355781555, -1.0370453596115112, -1.276895523071289, 0.60009765625, 0.18310546875, -0.699462890625
309, 3988041586, -6.304830551147461, 1.8198277950286865, 7.0940375328063965, -0.25523054599761963, -1.0985158681869507, -1.331079125404358, 0.59912109375, 0.18212890625, -0.699951171875
310, 3988058253, -6.323892116546631, 1.813673973083496, 7.106058597564697, -0.3017432391643524, -1.0291439294815063, -1.3716881275177002, 0.599609375, 0.181640625, -0.697998046875
311, 3988074920, -6.31964635848999, 1.798570990562439, 7.1265058517456055, -0.23945312201976776, -1.1238723993301392, -1.2589921951293945, 0.59912109375, 0.1806640625, -0.699951171875
312, 3988091587, -6.314754009246826, 1.808695912361145, 7.121413707733154, -0.210626021027565, -1.0762840509414673, -1.1205171346664429, 0.59814453125, 0.18212890625, -0.700439453125
313, 3988108254, -6.3032002449035645, 1.8023005723953247, 7.132697105407715, -0.16315288841724396, -1.183831810951233, -1.1295711994171143, 0.60009765625, 0.18212890625, -0.698974609375
314, 3988124921, -6.302036285400391, 1.8175209760665894, 7.118829727172852, -0.2089996486902237, -1.2055258750915527, -1.1746113300323486, 0.5986328125, 0.181640625, -0.70263671875
315, 3988141588, -6.296069145202637, 1.8089197874069214, 7.10524320602417, -0.24730344116687775, -1.1516239643096924, -1.1867132186889648, 0.6005859375, 0.18115234375, -0.698974609375
316, 3988158255, -6.293264389038086, 1.796324372291565, 7.1178483963012695, -0.2387872040271759, -1.0967230796813965, -1.2624244689941406, 0.5986328125, 0.1826171875, -0.698486328125
317, 3988174922, -6.302717685699463, 1.8130977153778076, 7.116249084472656, -0.22627541422843933, -1.0642846822738647, -1.2794698476791382, 0.6005859375, 0.18115234375, -0.700439453125
318, 3988191589, -6.317232608795166, 1.8272454738616943, 7.102967262268066, -0.26699957251548767, -1.0681904554367065, -1.2365171909332275, 0.599609375, 0.1826171875, -0.699951171875
319, 3988208256, -6.307343482971191, 1.8177584409713745, 7.124845027923584, -0.2979781925678253, -1.0646175146102905, -1.3636715412139893, 0.60009765625, 0.18212890625, -0.701904296875
320, 3988224923, -6.317331790924072, 1.8009779453277588, 7.091669082641602, -0.21231648325920105, -1.0049911737442017, -1.3626340627670288, 0.59814453125, 0.18115234375, -0.700927734375
321, 3988241590, -6.299627304077148, 1.813795804977417, 7.1318488121032715, -0.19532248377799988, -0.9757543206214905, -1.4137187004089355, 0.60009765625, 0.18212890625, -0.699462890625
322, 3988258257, -6.308622360229492, 1.8040398359298706, 7.125001430511475, -0.251516729593277, -0.8040210604667664, -1.297296166419983, 0.59912109375, 0.18310546875, -0.701416015625
323, 3988274924, -6.310358047485352, 1.8196533918380737, 7.097916126251221, -0.21590226888656616, -0.6269603967666626, -1.3371366262435913, 0.600830078125, 0.181640625, -0.699462890625
324, 3988291591, -6.30596923828125, 1.8025128841400146, 7.1132025718688965, -0.1867678016424179, -0.8143044710159302, -1.348098874092102, 0.599609375, 0.18408203125, -0.700927734375
325, 3988308258, -6.296308994293213, 1.8286088705062866, 7.107278347015381, -0.2480718046426773, -0.9287293553352356, -1.3660789728164673, 0.59912109375, 0.1806640625, -0.701416015625
326, 3988324925, -6.299018383026123, 1.8113148212432861, 7.10146951675415, -0.27201971411705017, -0.9102370142936707, -1.428637981414795, 0.59814453125, 0.18310546875, -0.70166015625
327, 3988341592, -6.298001766204834, 1.7912439107894897, 7.123128414154053, -0.2678320109844208, -0.9048967957496643, -1.354386806488037, 0.59912109375, 0.18212890625, -0.700439453125
328, 3988358259, -6.297445774078369, 1.8175938129425049, 7.1057939529418945, -0.37774893641471863, -0.9403446912765503, -1.3272117376327515, 0.6015625, 0.18310546875, -0.699951171875
329, 3988374926, -6.312277317047119, 1.7927387952804565, 7.125677585601807, -0.28238001465797424, -0.9257838129997253, -1.3350619077682495, 0.599609375, 0.1826171875, -0.700927734375
330, 3988391593, -6.302465915679932, 1.8113611936569214, 7.117546081542969, -0.2747857868671417, -0.9730775356292725, -1.3013044595718384, 0.5986328125, 0.181640625, -0.700439453125
331, 3988408260, -6.30787467956543, 1.806715488433838, 7.109922409057617, -0.26984259486198425, -0.9569929838180542, -1.2818260192871094, 0.59912109375, 0.1806640625, -0.7021484375
332, 3988424927, -6.315056324005127, 1.8261971473693848, 7.102276802062988, -0.19413144886493683, -1.002020001411438, -1.187391996383667, 0.60009765625, 0.18212890625, -0.701416015625
333, 3988441594, -6.300949573516846, 1.809995174407959, 7.115928649902344, -0.23005326092243195, -1.0426161289215088, -1.1809120178222656, 0.599609375, 0.18115234375, -0.700439453125
334, 3988458261, -6.310363292694092, 1.8018028736114502, 7.108447551727295, -0.22631381452083588, -1.012175440788269, -1.172331690788269, 0.59912109375, 0.18017578125, -0.699462890625
335, 3988474928, -6.31220817565918, 1.8005034923553467, 7.101254463195801, -0.18059515953063965, -1.0966717004776, -1.1677982807159424, 0.59814453125, 0.18115234375, -0.701904296875
336, 3988491595, -6.288218021392822, 1.8096637725830078, 7.090651988983154, -0.18256732821464539, -1.1528276205062866, -1.167183756828308, 0.59765625, 0.18212890625, -0.7021484375
337, 3988508262, -6.285412788391113, 1.8206089735031128, 7.094980239868164, -0.25711309909820557, -1.2355055809020996, -1.2055513858795166, 0.5986328125, 0.181640625, -0.7021484375
338, 3988524929, -6.290672302246094, 1.8018141984939575, 7.107684135437012, -0.24116918444633484, -1.1634055376052856, -1.232470154762268, 0.5966796875, 0.18310546875, -0.70263671875
339, 3988541596, -6.280054569244385, 1.8207204341888428, 7.103153705596924, -0.20983202755451202, -1.2027339935302734, -1.160997986793518, 0.599609375, 0.1826171875, -0.70263671875
340, 3988558263, -6.284248352050781, 1.8250361680984497, 7.110901355743408, -0.20076514780521393, -1.0361745357513428, -1.3048261404037476, 0.601806640625, 0.18115234375, -0.701416015625
341, 3988574930, -6.293134689331055, 1.8057305812835693, 7.135944366455078, -0.2848004400730133, -1.0314363241195679, -1.3220891952514648, 0.59619140625, 0.1826171875, -0.70458984375
342, 3988591597, -6.279467582702637, 1.8120414018630981, 7.124891757965088, -0.28127866983413696, -1.044114589691162, -1.399541974067688, 0.59765625, 0.18017578125, -0.701416015625
343, 3988608264, -6.295200824737549, 1.8153260946273804, 7.124414443969727, -0.32277125120162964, -1.0667048692703247, -1.3235620260238647, 0.595703125, 0.18212890625, -0.7021484375
344, 3988624931, -6.285881519317627, 1.823473334312439, 7.104879379272461, -0.333234041929245, -0.9699529409408569, -1.4267683029174805, 0.60205078125, 0.18115234375, -0.703125
345, 3988641598, -6.308826446533203, 1.790055274963379, 7.119246959686279, -0.3087226450443268, -0.9196110367774963, -1.4492048025131226, 0.59814453125, 0.181640625, -0.700439453125
346, 3988658265, -6.283834934234619, 1.7974674701690674, 7.127956867218018, -0.3014999032020569, -0.8930636644363403, -1.4940272569656372, 0.59912109375, 0.18115234375, -0.699462890625
347, 3988674932, -6.298985958099365, 1.8147426843643188, 7.119361400604248, -0.3381260931491852, -0.9395251870155334, -1.382086992263794, 0.59912109375, 0.18212890625, -0.701904296875
348, 3988691599, -6.2856364250183105, 1.8231033086776733, 7.125591278076172, -0.29583948850631714, -1.035969614982605, -1.4877904653549194, 0.5986328125, 0.18359375, -0.7021484375
349, 3988708266, -6.289810657501221, 1.7971165180206299, 7.136621952056885, -0.389351487159729, -0.9975890517234802, -1.396660566329956, 0.5986328125, 0.18115234375, -0.70458984375
350, 3988724933, -6.295951843261719, 1.8015011548995972, 7.131877422332764, -0.402529239654541, -1.0647711753845215, -1.3967503309249878, 0.59814453125, 0.18310546875, -0.703125
351, 3988741600, -6.3044328689575195, 1.8074910640716553, 7.119505405426025, -0.37415027618408203, -1.1329903602600098, -1.4130141735076904, 0.59912109375, 0.1826171875, -0.701904296875
352, 3988758267, -6.292206764221191, 1.8002291917800903, 7.11519193649292, -0.35897475481033325, -1.0632343292236328, -1.305837869644165, 0.5966796875, 0.18310546875, -0.700927734375
353, 3988774934, -6.288210868835449, 1.801003098487854, 7.119736671447754, -0.3476283848285675, -1.1143829822540283, -1.3726359605789185, 0.5986328125, 0.18115234375, -0.699951171875
354, 3988791601, -6.285608768463135, 1.7878687381744385, 7.132028579711914, -0.38343486189842224, -1.1885188817977905, -1.3768489360809326, 0.60009765625, 0.18359375, -0.7021484375
355, 3988808268, -6.279178142547607, 1.817780613899231, 7.127532005310059, -0.4754997491836548, -1.3515307903289795, -1.412886142730713, 0.59716796875, 0.1845703125, -0.7021484375
356, 3988824935, -6.284263610839844, 1.8083301782608032, 7.165719509124756, -0.44810694456100464, -1.2146438360214233, -1.4602439403533936, 0.595703125, 0.1826171875, -0.70166015625
357, 3988841602, -6.26687479019165, 1.7720005512237549, 7.112856864929199, -0.5457810163497925, -1.2202786207199097, -1.5633735656738281, 0.59765625, 0.18115234375, -0.7021484375
358, 3988858269, -6.2984442710876465, 1.8033905029296875, 7.113295078277588, -0.6199041604995728, -1.2633464336395264, -1.5185002088546753, 0.5986328125, 0.18212890625, -0.70263671875
359, 3988874936, -6.288371562957764, 1.8034557104110718, 7.113643169403076, -0.5548862814903259, -1.2308439016342163, -1.5762181282043457, 0.5986328125, 0.181640625, -0.7021484375
360, 3988891603, -6.2774739265441895, 1.8052446842193604, 7.1097869873046875, -0.6656869053840637, -1.5584560632705688, -1.671843409538269, 0.59814453125, 0.18310546875, -0.70556640625
361, 3988908270, -6.266870021820068, 1.8106560707092285, 7.134734153747559, -0.9012340903282166, -1.702962875366211, -1.865821123123169, 0.59814453125, 0.1826171875, -0.70361328125
362, 3988924937, -6.291528701782227, 1.8064582347869873, 7.122156620025635, -1.0929834842681885, -1.605109453201294, -1.949715495109558, 0.599609375, 0.18408203125, -0.70458984375
363, 3988941604, -6.270129203796387, 1.7868608236312866, 7.144637107849121, -1.022663950920105, -1.5684577226638794, -1.975417971611023, 0.599609375, 0.184814453125, -0.7041015625
364, 3988958271, -6.2748212814331055, 1.80657958984375, 7.135576248168945, -0.9540987014770508, -1.5653713941574097, -2.004654884338379, 0.59716796875, 0.18408203125, -0.7021484375
365, 3988974938, -6.278500556945801, 1.7799263000488281, 7.102205753326416, -0.9932604432106018, -1.4825910329818726, -2.039757013320923, 0.59716796875, 0.18310546875, -0.7041015625
366, 3988991605, -6.271012306213379, 1.7814183235168457, 7.152952671051025, -0.9731161594390869, -1.5596725940704346, -1.9566948413848877, 0.5966796875, 0.18359375, -0.7021484375
367, 3989008272, -6.265367031097412, 1.770176887512207, 7.122651100158691, -0.7929948568344116, -1.3443081378936768, -1.9143316745758057, 0.5966796875, 0.18310546875, -0.705078125
368, 3989024939, -6.268136024475098, 1.7447060346603394, 7.130402088165283, -0.4810320734977722, -1.1153305768966675, -1.6604584455490112, 0.596435546875, 0.18505859375, -0.7060546875
369, 3989041606, -6.269204616546631, 1.7670458555221558, 7.155309677124023, -0.3173413574695587, -0.9537273049354553, -1.5063724517822266, 0.595947265625, 0.18359375, -0.70361328125
370, 3989058273, -6.271296501159668, 1.776646614074707, 7.140003204345703, -0.2856071889400482, -0.9599511027336121, -1.5366082191467285, 0.594970703125, 0.18310546875, -0.705078125
371, 3989074940, -6.257505416870117, 1.7862979173660278, 7.144398212432861, -0.3466039001941681, -0.9599639773368835, -1.4685426950454712, 0.596435546875, 0.18408203125, -0.70556640625
372, 3989091607, -6.271655082702637, 1.7658807039260864, 7.139986038208008, -0.2718532085418701, -0.6350540518760681, -1.393100380897522, 0.596435546875, 0.185546875, -0.705078125
373, 3989108274, -6.277078628540039, 1.775451898574829, 7.155977725982666, -0.19273556768894196, -0.6246809959411621, -1.3017910718917847, 0.599609375, 0.185791015625, -0.70654296875
374, 3989124941, -6.266665458679199, 1.7550829648971558, 7.162046909332275, -0.13277623057365417, -0.6957946419715881, -1.3742494583129883, 0.59912109375, 0.18408203125, -0.70458984375
375, 3989141608, -6.27031135559082, 1.7903014421463013, 7.153023719787598, -0.08379194140434265, -0.6986759901046753, -1.236363410949707, 0.59765625, 0.18359375, -0.7041015625
376, 3989158275, -6.279935836791992, 1.7633529901504517, 7.1514129638671875, 0.030972156673669815, -0.6224398612976074, -1.2229678630828857, 0.595947265625, 0.1845703125, -0.70263671875
377, 3989174942, -6.26198148727417, 1.776658058166504, 7.146117210388184, -0.0790407806634903, -0.82967209815979, -1.1243846416473389, 0.599609375, 0.18359375, -0.70361328125
378, 3989191609, -6.2798991203308105, 1.7700039148330688, 7.128668308258057, -0.14234256744384766, -0.8419662117958069, -1.1487550735473633, 0.59814453125, 0.1845703125, -0.70556640625
379, 3989208276, -6.277848243713379, 1.76894211769104, 7.139298915863037, -0.27237826585769653, -1.0400549173355103, -1.2652288675308228, 0.595947265625, 0.18505859375, -0.706298828125
380, 3989224943, -6.268104076385498, 1.7548999786376953, 7.140415668487549, -0.166162371635437, -0.982157289981842, -1.3102943897247314, 0.59814453125, 0.18408203125, -0.70458984375
381, 3989241610, -6.254013538360596, 1.7694252729415894, 7.140100955963135, 0.018505174666643143, -0.7202035188674927, -1.158180594444275, 0.596923828125, 0.185791015625, -0.706787109375
382, 3989258277, -6.256710052490234, 1.786478877067566, 7.13350772857666, -0.09059213101863861, -0.7521041631698608, -1.2698009014129639, 0.595947265625, 0.18310546875, -0.70361328125
383, 3989274944, -6.266671180725098, 1.8034136295318604, 7.123897075653076, -0.19068653881549835, -0.6855238676071167, -1.453840732574463, 0.595458984375, 0.1845703125, -0.703125
384, 3989291611, -6.26911735534668, 1.766830325126648, 7.1220598220825195, -0.2600841224193573, -0.7121354937553406, -1.4575674533843994, 0.59765625, 0.1845703125, -0.703125
385, 3989308278, -6.283192157745361, 1.7793376445770264, 7.149616718292236, -0.3124237358570099, -0.8449118137359619, -1.4545069932937622, 0.5986328125, 0.1826171875, -0.70654296875
386, 3989324945, -6.270969390869141, 1.789955973625183, 7.140466690063477, -0.26411813497543335, -0.788282036781311, -1.37675940990448, 0.596435546875, 0.18408203125, -0.706787109375
387, 3989341612, -6.282332897186279, 1.7711577415466309, 7.139997482299805, -0.08110262453556061, -0.7535513043403625, -1.348124623298645, 0.595458984375, 0.185791015625, -0.703125
388, 3989358279, -6.276648998260498, 1.767350196838379, 7.1325578689575195, 0.22774174809455872, -0.5380331873893738, -1.0954551696777344, 0.59765625, 0.1845703125, -0.70458984375
389, 3989374946, -6.2840800285339355, 1.7703616619110107, 7.161205768585205, 0.5988889336585999, -0.3556707203388214, -0.8097070455551147, 0.59619140625, 0.18408203125, -0.70166015625
390, 3989391613, -6.282652854919434, 1.7800697088241577, 7.1490960121154785, 0.7203251719474792, -0.3436583876609802, -0.6408040523529053, 0.596435546875, 0.18408203125, -0.70361328125
391, 3989408280, -6.2711029052734375, 1.8047608137130737, 7.140744686126709, 0.7820773124694824, -0.44915708899497986, -0.5955720543861389, 0.59619140625, 0.1826171875, -0.70458984375
392, 3989424947, -6.258955478668213, 1.7836896181106567, 7.156670093536377, 0.5871390700340271, -0.2340744584798813, -0.7724149227142334, 0.597412109375, 0.185302734375, -0.7041015625
393, 3989441614, -6.269885063171387, 1.7777211666107178, 7.1469926834106445, 0.5464277863502502, -0.1913525015115738, -0.7782546877861023, 0.5986328125, 0.18359375, -0.70703125
394, 3989458281, -6.270792007446289, 1.8059414625167847, 7.1487274169921875, 0.34221765398979187, -0.3568105101585388, -0.8682448267936707, 0.59765625, 0.18115234375, -0.700439453125
395, 3989474948, -6.273040771484375, 1.7703951597213745, 7.128070831298828, 0.3441898226737976, -0.37865814566612244, -0.7452142834663391, 0.59716796875, 0.18212890625, -0.703125
396, 3989491615, -6.297128677368164, 1.7205638885498047, 7.1465840339660645, 1.075855016708374, -0.1893162876367569, -0.09155260026454926, 0.5966796875, 0.18115234375, -0.7041015625
397, 3989508282, -6.2766923904418945, 1.8023715019226074, 7.111282825469971, 1.3059338331222534, -0.5719571709632874, 0.1386735439300537, 0.59912109375, 0.18212890625, -0.7041015625
398, 3989524949, -6.2523956298828125, 1.7885085344314575, 7.083281993865967, 1.194422721862793, -1.313035011291504, 0.24849443137645721, 0.59912109375, 0.18212890625, -0.7041015625
399, 3989541616, -6.252591133117676, 1.5859202146530151, 7.116209506988525, 1.146366834640503, -2.5764453411102295, 1.0161519050598145, 0.59765625, 0.1806640625, -0.701416015625
400, 3989558283, -6.354190349578857, 1.6170635223388672, 7.137489318847656, 2.4982054233551025, -2.4022538661956787, 2.9552769660949707, 0.59521484375, 0.179443359375, -0.7041015625
401, 3989574950, -6.288446426391602, 2.0366551876068115, 7.135411739349365, 2.839123010635376, -2.777198314666748, 3.5234432220458984, 0.59716796875, 0.178466796875, -0.70361328125
402, 3989591617, -6.234071254730225, 2.045497179031372, 7.144336700439453, 2.008195400238037, -3.135288953781128, 2.188765048980713, 0.59716796875, 0.177978515625, -0.7060546875
403, 3989608284, -6.230605125427246, 2.083387613296509, 7.137567043304443, 0.43335404992103577, -3.218722105026245, 0.3009876012802124, 0.59765625, 0.173828125, -0.7060546875
404, 3989624951, -6.23050594329834, 1.9571924209594727, 7.188371181488037, -0.970670223236084, -3.2954328060150146, -1.2477740049362183, 0.595703125, 0.176025390625, -0.70703125
405, 3989641618, -6.224756240844727, 1.8619205951690674, 7.154565811157227, -1.5609275102615356, -3.196746587753296, -1.9953444004058838, 0.593505859375, 0.177490234375, -0.70654296875
406, 3989658285, -6.220141410827637, 1.8300056457519531, 7.181293964385986, -1.63648521900177, -2.7632393836975098, -2.1125869750976562, 0.595703125, 0.1748046875, -0.70751953125
407, 3989674952, -6.229775428771973, 1.8203781843185425, 7.202419757843018, -1.019641637802124, -1.990567922592163, -1.8710718154907227, 0.594482421875, 0.177001953125, -0.708251953125
408, 3989691619, -6.220695495605469, 1.8245056867599487, 7.20196008682251, -0.6439160108566284, -1.3390063047409058, -1.722415804862976, 0.594482421875, 0.178955078125, -0.708740234375
409, 3989708286, -6.225038051605225, 1.8774433135986328, 7.186618804931641, -0.7039650678634644, -0.9481053948402405, -1.7746657133102417, 0.59521484375, 0.177001953125, -0.709716796875
410, 3989724953, -6.223196983337402, 1.8912107944488525, 7.160593509674072, -0.4930700957775116, -0.5916149020195007, -1.8695988655090332, 0.595458984375, 0.179443359375, -0.708251953125
411, 3989741620, -6.199450492858887, 1.90592360496521, 7.21030855178833, -0.2970176935195923, 0.4739822745323181, -2.359480381011963, 0.595458984375, 0.179931640625, -0.707275390625
412, 3989758287, -6.224360942840576, 1.9548932313919067, 7.1911540031433105, -0.07514766603708267, 1.7923063039779663, -3.127502679824829, 0.595947265625, 0.179931640625, -0.708251953125
413, 3989774954, -6.239817142486572, 2.1439573764801025, 7.0907087326049805, 0.6769630312919617, 4.362976551055908, -4.532001495361328, 0.59716796875, 0.179443359375, -0.70703125
414, 3989791621, -6.186306476593018, 1.8751437664031982, 7.158871173858643, 3.268956422805786, 8.665746688842773, -6.137202739715576, 0.5966796875, 0.179443359375, -0.70556640625
415, 3989808288, -6.040375709533691, 0.35688480734825134, 7.637533187866211, 10.036284446716309, 19.477272033691406, -3.639404773712158, 0.6005859375, 0.17919921875, -0.701904296875
416, 3989824955, -6.0367560386657715, -0.8540248870849609, 8.287023544311523, 20.94914436340332, 37.44606018066406, 6.745399475097656, 0.60302734375, 0.175048828125, -0.693359375
417, 3989841622, -6.608055114746094, -1.388036847114563, 9.625332832336426, 36.22660446166992, 55.377323150634766, 32.187313079833984, 0.609375, 0.165771484375, -0.680908203125
418, 3989858289, -2.1242780685424805, 0.39230477809906006, 13.35201644897461, 24.65996551513672, 100.53142547607422, 91.26199340820312, 0.62158203125, 0.14404296875, -0.65869140625
419, 3989874956, 5.135583877563477, -10.422259330749512, 25.04625701904297, -148.1454315185547, 175.161865234375, 137.802490234375, 0.635498046875, 0.12646484375, -0.625244140625
420, 3989891623, -3.4200549125671387, -26.46954345703125, 35.41799545288086, -161.40061950683594, 132.97494506835938, 137.8156280517578, 0.648681640625, 0.108642578125, -0.58935546875
421, 3989908290, -9.590317726135254, -31.95378875732422, 39.5738525390625, -89.36138916015625, -72.72160339355469, 24.148731231689453, 0.64697265625, 0.1015625, -0.598876953125
422, 3989924957, -8.644763946533203, -29.06832504272461, 34.07389450073242, -12.787812232971191, -242.96597290039062, -128.4813690185547, 0.6279296875, 0.119140625, -0.6513671875
423, 3989941624, -12.448844909667969, -17.581262588500977, 29.354093551635742, 1.1644902229309082, -316.17767333984375, -231.31295776367188, 0.5947265625, 0.158935546875, -0.726318359375
424, 3989958291, -17.28815269470215, -8.934378623962402, 25.824039459228516, -31.09238052368164, -343.09332275390625, -249.7665557861328, 0.54833984375, 0.21142578125, -0.80126953125
425, 3989974958, -19.451295852661133, -3.323483467102051, 21.48724365234375, -82.62371826171875, -333.1971130371094, -244.73020935058594, 0.494384765625, 0.271484375, -0.877685546875
426, 3989991625, -20.183242797851562, -1.5975391864776611, 17.4002742767334, -113.74067687988281, -300.39593505859375, -255.7698211669922, 0.4306640625, 0.3388671875, -0.9404296875
427, 3990008292, -19.908479690551758, 0.2072637379169464, 15.066788673400879, -96.50182342529297, -264.9216003417969, -272.00042724609375, 0.364501953125, 0.405517578125, -0.986572265625
428, 3990024959, -18.47606086730957, 5.1438140869140625, 12.32891845703125, -74.21910095214844, -249.3288116455078, -272.6888122558594, 0.29150390625, 0.462646484375, -1.024658203125
429, 3990041626, -16.225135803222656, 7.818756103515625, 10.347138404846191, -70.6795425415039, -233.6523895263672, -259.37548828125, 0.21337890625, 0.51171875, -1.04931640625
430, 3990058293, -15.251585960388184, 11.550705909729004, 9.446320533752441, -61.27397537231445, -216.27108764648438, -219.00906372070312, 0.138671875, 0.554931640625, -1.072509765625
431, 3990074960, -16.756450653076172, 17.134193420410156, 6.294527053833008, -74.04376220703125, -206.49075317382812, -167.58804321289062, 0.067138671875, 0.583984375, -1.08154296875
432, 3990091627, -22.353084564208984, 21.995079040527344, -1.2635170221328735, -116.67908477783203, -193.4608154296875, -138.18666076660156, -7.32421875E-4, 0.619873046875, -1.081787109375
433, 3990108294, -25.897687911987305, 17.544931411743164, -12.170104026794434, -66.99282836914062, -178.96673583984375, -131.30233764648438, -0.06298828125, 0.647705078125, -1.078857421875
434, 3990124961, -23.17346954345703, 18.842870712280273, -21.476295471191406, 86.90829467773438, -129.7905731201172, -112.53770446777344, -0.113037109375, 0.636962890625, -1.092041015625
435, 3990141628, -21.55846405029297, 22.453231811523438, -24.44999885559082, 141.0779571533203, -47.81831359863281, -64.37669372558594, -0.14404296875, 0.605224609375, -1.10791015625
436, 3990158295, -20.48249626159668, 21.424081802368164, -23.402088165283203, 79.07637023925781, 38.64337921142578, 32.0716438293457, -0.14208984375, 0.57763671875, -1.1162109375
437, 3990174962, -19.978933334350586, 16.53877830505371, -20.03764533996582, -17.44487762451172, 118.60536193847656, 130.81817626953125, -0.10498046875, 0.574951171875, -1.117431640625
438, 3990191629, -21.470703125, 11.27075481414795, -14.749951362609863, -76.39651489257812, 180.13888549804688, 186.41903686523438, -0.0419921875, 0.586669921875, -1.10546875
439, 3990208296, -22.45542335510254, 8.28754711151123, -8.752771377563477, -82.2832260131836, 221.3378143310547, 200.7270965576172, 0.03515625, 0.598388671875, -1.081298828125
440, 3990224963, -22.1464786529541, 7.467165470123291, -2.815943717956543, -61.02891540527344, 250.793701171875, 184.05172729492188, 0.117919921875, 0.6015625, -1.05322265625
441, 3990241630, -22.102205276489258, 7.42868709564209, 3.5912256240844727, -20.362228393554688, 266.681640625, 162.13438415527344, 0.200927734375, 0.589111328125, -1.0224609375
442, 3990258297, -21.745006561279297, 7.164423942565918, 9.004481315612793, 34.50095748901367, 265.7285461425781, 150.2081298828125, 0.27783203125, 0.565673828125, -0.9853515625
443, 3990274964, -20.847135543823242, 6.3454413414001465, 13.616127967834473, 93.27721405029297, 259.2887878417969, 137.8743133544922, 0.349853515625, 0.526611328125, -0.94921875
444, 3990291631, -18.041738510131836, 4.110551357269287, 16.698366165161133, 147.66294860839844, 256.9590148925781, 130.8028564453125, 0.409912109375, 0.474853515625, -0.916259765625
445, 3990308298, -14.862994194030762, 2.306633949279785, 20.3499698638916, 191.03610229492188, 263.3411560058594, 127.2090072631836, 0.469482421875, 0.4130859375, -0.873291015625
446, 3990324965, -9.77863883972168, 2.8733737468719482, 25.57436180114746, 184.5556182861328, 263.940185546875, 143.5800323486328, 0.519775390625, 0.3515625, -0.824951171875
447, 3990341632, -4.980607032775879, 1.2404227256774902, 30.99146270751953, 114.29486846923828, 259.99554443359375, 195.90020751953125, 0.561279296875, 0.291748046875, -0.76953125
448, 3990358299, -2.662889003753662, -5.162483215332031, 33.43700408935547, 38.235618591308594, 220.68661499023438, 240.16371154785156, 0.598388671875, 0.23681640625, -0.714111328125
449, 3990374966, -2.128941297531128, -13.864971160888672, 32.223079681396484, 32.83667755126953, 147.86746215820312, 243.62124633789062, 0.6181640625, 0.180419921875, -0.6748046875
450, 3990391633, -4.471952438354492, -18.912431716918945, 27.48843002319336, 74.53010559082031, 65.8046875, 191.66244506835938, 0.624267578125, 0.126708984375, -0.65234375
451, 3990408300, -6.057480812072754, -20.07027816772461, 22.555238723754883, 124.04533386230469, 19.94002914428711, 94.90074157714844, 0.6220703125, 0.09033203125, -0.643310546875
452, 3990424967, -7.510464668273926, -15.76308536529541, 19.674745559692383, 129.1130828857422, 6.57090425491333, 7.735915660858154, 0.62353515625, 0.0693359375, -0.635009765625
453, 3990441634, -12.061256408691406, -7.587754726409912, 23.267221450805664, 26.054424285888672, -23.277864456176758, -79.78582763671875, 0.62548828125, 0.074462890625, -0.635498046875
454, 3990458301, -2.5264222621917725, -14.46561050415039, 18.458642959594727, -97.78347778320312, -75.61617279052734, -117.96764373779297, 0.621337890625, 0.114990234375, -0.656494140625
455, 3990474968, -1.4604250192642212, -3.7237794399261475, 14.1754789352417, -72.28633117675781, -35.8477783203125, -131.09315490722656, 0.618408203125, 0.15625, -0.6650390625
456, 3990491635, -4.741833686828613, 4.861289024353027, 9.714487075805664, -64.73796844482422, 5.623889923095703, -96.7207260131836, 0.6181640625, 0.189697265625, -0.668701171875
457, 3990508302, -9.401636123657227, -5.834298133850098, 7.5443501472473145, -28.110355377197266, 14.254804611206055, -36.24082565307617, 0.622314453125, 0.20556640625, -0.666748046875
458, 3990524969, -8.384868621826172, 0.506844699382782, 6.308965682983398, 0.21615229547023773, -17.21268081665039, 9.797159194946289, 0.619873046875, 0.2080078125, -0.66748046875
459, 3990541636, -6.247406005859375, 1.4811744689941406, 7.5178608894348145, 7.448807239532471, -20.237112045288086, 22.28925323486328, 0.6162109375, 0.201416015625, -0.674560546875
460, 3990558303, -6.840117931365967, 3.4663429260253906, 6.642475128173828, 4.5705108642578125, -15.259419441223145, 15.515220642089844, 0.614990234375, 0.195068359375, -0.677001953125
461, 3990574970, -6.566401481628418, 3.2385754585266113, 6.78262996673584, -1.5371476411819458, -16.458890914916992, 4.77761173248291, 0.61279296875, 0.194091796875, -0.6806640625
462, 3990591637, -6.5383830070495605, 2.8956077098846436, 6.702380657196045, -8.617602348327637, -21.4432373046875, -4.391408443450928, 0.61181640625, 0.195068359375, -0.68359375
463, 3990608304, -6.331711292266846, 2.0600943565368652, 7.029212474822998, -12.816183090209961, -23.814041137695312, -8.668720245361328, 0.60595703125, 0.19873046875, -0.68994140625
464, 3990624971, -6.414064407348633, 1.481135368347168, 7.146425724029541, -13.221832275390625, -21.611318588256836, -8.891624450683594, 0.602783203125, 0.20263671875, -0.694091796875
465, 3990641638, -6.333916187286377, 1.1310018301010132, 7.235571384429932, -9.781940460205078, -16.53660774230957, -6.164166450500488, 0.600830078125, 0.20458984375, -0.6982421875
466, 3990658305, -6.356393814086914, 1.0943894386291504, 7.21032190322876, -4.061906814575195, -10.238896369934082, -1.7314445972442627, 0.60107421875, 0.208251953125, -0.7001953125
467, 3990674972, -6.359335422515869, 1.3939539194107056, 7.145420551300049, 0.8118266463279724, -5.435425281524658, 1.9806240797042847, 0.59765625, 0.206787109375, -0.703857421875
468, 3990691639, -6.380227565765381, 1.6868762969970703, 7.076337814331055, 2.744560956954956, -3.894360065460205, 3.6215271949768066, 0.60009765625, 0.206298828125, -0.704345703125
469, 3990708306, -6.373736381530762, 1.9335566759109497, 7.056004524230957, 2.6024107933044434, -4.225340366363525, 3.34301495552063, 0.59716796875, 0.2021484375, -0.705322265625
470, 3990724973, -6.362758636474609, 2.04963755607605, 7.055093765258789, 1.1733883619308472, -4.779432773590088, 1.559794545173645, 0.59765625, 0.20263671875, -0.705810546875
471, 3990741640, -6.340753555297852, 1.891230583190918, 7.083356857299805, -0.28373754024505615, -5.272682189941406, -0.05954953283071518, 0.59814453125, 0.200439453125, -0.704833984375
472, 3990758307, -6.322359085083008, 1.750471830368042, 7.103046417236328, -0.6121179461479187, -4.9092116355896, -0.4208422899246216, 0.595703125, 0.199951171875, -0.709228515625
473, 3990774974, -6.285378456115723, 1.6273146867752075, 7.151100158691406, 0.14925161004066467, -3.6613357067108154, -0.07168995589017868, 0.593505859375, 0.201904296875, -0.707763671875
474, 3990791641, -6.302211284637451, 1.7169545888900757, 7.132938861846924, 0.9987928867340088, -2.455848217010498, 0.5393266081809998, 0.594970703125, 0.2041015625, -0.70947265625
475, 3990808308, -6.292995452880859, 1.8046867847442627, 7.13175106048584, 1.5211830139160156, -1.7906607389450073, 0.7045861482620239, 0.593017578125, 0.202392578125, -0.7109375
476, 3990824975, -6.286379814147949, 1.7975536584854126, 7.1292643547058105, 1.5123467445373535, -1.5177829265594482, 0.657804548740387, 0.59423828125, 0.198486328125, -0.70947265625
477, 3990841642, -6.281897068023682, 1.843139410018921, 7.119548320770264, 1.3406903743743896, -1.6249080896377563, 0.4869166612625122, 0.5947265625, 0.197998046875, -0.70947265625
478, 3990858309, -6.2693023681640625, 1.8496354818344116, 7.095879554748535, 1.1197423934936523, -1.5983476638793945, 0.2481037974357605, 0.59375, 0.198974609375, -0.7099609375
479, 3990874976, -6.29866886138916, 1.7430464029312134, 7.13350248336792, 1.4693942070007324, -1.0426545143127441, 0.48745450377464294, 0.59521484375, 0.196533203125, -0.709716796875
480, 3990891643, -6.2877702713012695, 1.7861404418945312, 7.110107421875, 1.6401156187057495, -0.9494242668151855, 0.6444346904754639, 0.59423828125, 0.197509765625, -0.708740234375
481, 3990908310, -6.293844223022461, 1.7752702236175537, 7.128238677978516, 1.6672331094741821, -1.1907730102539062, 0.7732858657836914, 0.59326171875, 0.197509765625, -0.70947265625
482, 3990924977, -6.281043529510498, 1.891811728477478, 7.132169723510742, 1.7244327068328857, -1.2081382274627686, 0.8735275864601135, 0.59375, 0.19677734375, -0.709228515625
483, 3990941644, -6.263603687286377, 1.882914662361145, 7.1697998046875, 1.362768530845642, -1.095416784286499, 0.3940961956977844, 0.59521484375, 0.19482421875, -0.7138671875
484, 3990958311, -6.264289379119873, 1.8921722173690796, 7.1320481300354, 1.0848579406738281, -0.669682502746582, -0.09947972744703293, 0.595703125, 0.19189453125, -0.710205078125
485, 3990974978, -6.283200263977051, 1.8707455396652222, 7.13161039352417, 0.6778336763381958, -0.6098383665084839, -0.5734810829162598, 0.59521484375, 0.1943359375, -0.71240234375
486, 3990991645, -6.278407096862793, 1.8464642763137817, 7.103486061096191, 0.4487409293651581, -0.8147015571594238, -0.8461284041404724, 0.59326171875, 0.19384765625, -0.708251953125
487, 3991008312, -6.285244941711426, 1.8595598936080933, 7.1143479347229, 0.4100785255432129, -0.771441638469696, -0.8612526059150696, 0.595703125, 0.19384765625, -0.71142578125
488, 3991024979, -6.279270648956299, 1.8902623653411865, 7.11972188949585, 0.2788262367248535, -0.6666857600212097, -1.0978370904922485, 0.59375, 0.193359375, -0.71044921875
489, 3991041646, -6.28633451461792, 1.9063405990600586, 7.113286972045898, -0.1622820645570755, -0.7562661170959473, -1.499533772468567, 0.595703125, 0.190673828125, -0.710205078125
490, 3991058313, -6.2764410972595215, 1.85709547996521, 7.097350120544434, -0.4705308973789215, -0.7472248673439026, -1.7925814390182495, 0.59423828125, 0.19287109375, -0.708740234375
491, 3991074980, -6.297648906707764, 1.8293596506118774, 7.121244430541992, -0.5014582276344299, -0.8604714274406433, -1.6944080591201782, 0.59228515625, 0.19384765625, -0.7099609375
492, 3991091647, -6.288424015045166, 1.8329174518585205, 7.111054420471191, -0.39786767959594727, -0.8264833688735962, -1.632758378982544, 0.59423828125, 0.1923828125, -0.7109375
493, 3991108314, -6.305227279663086, 1.8165496587753296, 7.126397132873535, -0.21811774373054504, -0.8200161457061768, -1.3850579261779785, 0.5947265625, 0.19384765625, -0.7119140625
494, 3991124981, -6.306596279144287, 1.8647072315216064, 7.115599632263184, -0.307544469833374, -1.0673067569732666, -1.4466692209243774, 0.59423828125, 0.19482421875, -0.71142578125
495, 3991141648, -6.284953594207764, 1.879443883895874, 7.1371283531188965, -0.6340680122375488, -1.4466179609298706, -1.6822166442871094, 0.595703125, 0.193359375, -0.7109375
496, 3991158315, -6.306623458862305, 1.8340386152267456, 7.111724853515625, -0.7236100435256958, -1.3800252676010132, -1.8337284326553345, 0.59521484375, 0.1962890625, -0.708740234375
497, 3991174982, -6.298943996429443, 1.8188525438308716, 7.150756359100342, -0.616753876209259, -1.2201634645462036, -1.6523650884628296, 0.59423828125, 0.19384765625, -0.7109375
498, 3991191649, -6.294993877410889, 1.7928889989852905, 7.127030372619629, -0.4482734203338623, -1.1725749969482422, -1.5304611921310425, 0.59423828125, 0.19384765625, -0.709716796875
499, 3991208316, -6.291019439697266, 1.8354861736297607, 7.1098785400390625, -0.49451717734336853, -1.2251194715499878, -1.2933900356292725, 0.59228515625, 0.192138671875, -0.71337890625
500, 3991224983, -6.273684501647949, 1.8592445850372314, 7.1223955154418945, -0.5408248901367188, -1.4088135957717896, -1.3304131031036377, 0.59375, 0.193359375, -0.71337890625
501, 3991241650, -6.26698637008667, 1.8336094617843628, 7.119760513305664, -0.6229649782180786, -1.460577130317688, -1.4899803400039673, 0.59228515625, 0.19384765625, -0.712890625
502, 3991258317, -6.262910842895508, 1.8411592245101929, 7.134868621826172, -0.6893402338027954, -1.5698792934417725, -1.4873040914535522, 0.59326171875, 0.19580078125, -0.7109375
503, 3991274984, -6.264241695404053, 1.830960750579834, 7.138112545013428, -0.8257918953895569, -1.680756688117981, -1.6738923788070679, 0.59423828125, 0.193359375, -0.71240234375
504, 3991291651, -6.278072834014893, 1.8044989109039307, 7.116408348083496, -0.8842529058456421, -1.6029324531555176, -1.609924554824829, 0.5947265625, 0.1953125, -0.71142578125
505, 3991308318, -6.2784504890441895, 1.8189560174942017, 7.1312761306762695, -0.38417765498161316, -1.3625314235687256, -1.2554575204849243, 0.591064453125, 0.19580078125, -0.71240234375
506, 3991324985, -6.2862043380737305, 1.8478829860687256, 7.143046855926514, -0.3356800377368927, -1.2596707344055176, -1.1715888977050781, 0.59228515625, 0.19482421875, -0.7119140625
507, 3991341652, -6.283299922943115, 1.828355073928833, 7.137616157531738, -0.3168163299560547, -1.354245901107788, -1.1583343744277954, 0.592529296875, 0.19580078125, -0.71337890625
508, 3991358319, -6.266735553741455, 1.822088599205017, 7.148879051208496, -0.2737741470336914, -1.3177862167358398, -1.1576428413391113, 0.59326171875, 0.1953125, -0.7109375
509, 3991374986, -6.237109661102295, 1.8220363855361938, 7.15116548538208, -0.2240086793899536, -1.1014485359191895, -1.075835943222046, 0.59228515625, 0.1943359375, -0.71337890625
510, 3991391653, -6.248927116394043, 1.8287118673324585, 7.136842727661133, -0.014996234327554703, -0.9205331802368164, -1.0507993698120117, 0.59423828125, 0.19384765625, -0.712890625
511, 3991408320, -6.262321472167969, 1.8567448854446411, 7.11995267868042, -0.06134241074323654, -0.8437591195106506, -1.143555760383606, 0.59521484375, 0.1953125, -0.71337890625
512, 3991424987, -6.257925033569336, 1.834694266319275, 7.1367363929748535, -0.03565287962555885, -0.8239221572875977, -1.2331361770629883, 0.5927734375, 0.1953125, -0.71337890625
513, 3991441654, -6.263888835906982, 1.8434287309646606, 7.136910915374756, -0.07633864879608154, -0.8419150114059448, -1.248567819595337, 0.59326171875, 0.19482421875, -0.71240234375
514, 3991458321, -6.252882957458496, 1.8595330715179443, 7.1373610496521, -0.23525263369083405, -0.7720563411712646, -1.3695238828659058, 0.59423828125, 0.1953125, -0.7109375
515, 3991474988, -6.262339115142822, 1.8340554237365723, 7.16682243347168, -0.1895211637020111, -0.6494996547698975, -1.4401253461837769, 0.59423828125, 0.19482421875, -0.7119140625
516, 3991491655, -6.264778137207031, 1.8498106002807617, 7.1472625732421875, -0.2115352749824524, -0.6401893496513367, -1.5249288082122803, 0.5927734375, 0.19580078125, -0.71337890625
517, 3991508322, -6.282299518585205, 1.8282935619354248, 7.153682231903076, -0.34828147292137146, -0.6773150563240051, -1.595094919204712, 0.591552734375, 0.1943359375, -0.71484375
518, 3991524989, -6.297111511230469, 1.8119748830795288, 7.132758617401123, -0.30484235286712646, -0.7689700126647949, -1.388464331626892, 0.591552734375, 0.1943359375, -0.712890625
519, 3991541656, -6.270458698272705, 1.821985125541687, 7.121973514556885, -0.20830807089805603, -0.9614494442939758, -1.3475865125656128, 0.592041015625, 0.1943359375, -0.71484375
520, 3991558323, -6.264045238494873, 1.8127235174179077, 7.143897533416748, -0.017058059573173523, -0.778651773929596, -1.1076340675354004, 0.5947265625, 0.19580078125, -0.71240234375
521, 3991574990, -6.273441314697266, 1.8258130550384521, 7.136543273925781, 0.16625840961933136, -0.6273574233055115, -0.9039745926856995, 0.59423828125, 0.1953125, -0.7138671875
522, 3991591657, -6.26558780670166, 1.8314536809921265, 7.106201171875, 0.12967070937156677, -0.8035216331481934, -0.854401171207428, 0.5927734375, 0.193359375, -0.71435546875
523, 3991608324, -6.267700672149658, 1.8283668756484985, 7.141409397125244, 0.21378281712532043, -0.8131904602050781, -0.7897035479545593, 0.59423828125, 0.19384765625, -0.7138671875
524, 3991624991, -6.2609381675720215, 1.8596391677856445, 7.114670753479004, 0.05767980217933655, -0.8590307831764221, -0.8261952996253967, 0.59375, 0.19189453125, -0.712890625
525, 3991641658, -6.2478766441345215, 1.8400371074676514, 7.148654460906982, -0.09120682626962662, -0.9198289513587952, -1.1254348754882812, 0.59423828125, 0.193359375, -0.71337890625
526, 3991658325, -6.269965648651123, 1.809448003768921, 7.161985397338867, 0.0611439123749733, -0.8926026225090027, -0.9618721604347229, 0.5927734375, 0.19287109375, -0.7119140625
527, 3991674992, -6.251128673553467, 1.8410578966140747, 7.13088321685791, 0.09333907812833786, -0.7821606397628784, -0.8862249255180359, 0.59375, 0.19384765625, -0.71142578125
528, 3991691659, -6.271666526794434, 1.8518829345703125, 7.128628253936768, 0.05453583970665932, -0.7371333837509155, -0.8741998076438904, 0.59375, 0.19287109375, -0.71435546875
529, 3991708326, -6.262219429016113, 1.8454980850219727, 7.13689661026001, 0.15920212864875793, -0.7120969891548157, -0.8172499537467957, 0.5927734375, 0.192138671875, -0.712890625
530, 3991724993, -6.266955375671387, 1.8476401567459106, 7.13419771194458, 0.38678380846977234, -0.7784980535507202, -0.8789254426956177, 0.5927734375, 0.192138671875, -0.71337890625
531, 3991741660, -6.283773422241211, 1.832651138305664, 7.129058361053467, 0.6235347986221313, -0.7549983263015747, -0.6889944672584534, 0.59375, 0.191162109375, -0.71435546875
532, 3991758327, -6.269330978393555, 1.8859083652496338, 7.130185127258301, 0.9068624973297119, -0.6786212921142578, -0.5644527077674866, 0.5947265625, 0.1943359375, -0.71044921875
533, 3991774994, -6.278273105621338, 1.8552141189575195, 7.143572807312012, 0.880993664264679, -0.5627110004425049, -0.636680543422699, 0.5927734375, 0.193359375, -0.71044921875
534, 3991791661, -6.26371431350708, 1.853463888168335, 7.160374641418457, 0.8939664959907532, -0.523651659488678, -0.6558772325515747, 0.59130859375, 0.1923828125, -0.71240234375
535, 3991808328, -6.277356147766113, 1.8864119052886963, 7.150170803070068, 1.1812257766723633, -0.2695480287075043, -0.6281258463859558, 0.59326171875, 0.190673828125, -0.71435546875
536, 3991824995, -6.279083251953125, 1.8729524612426758, 7.1479082107543945, 1.3421119451522827, -0.06103505939245224, -0.6886102557182312, 0.589599609375, 0.192626953125, -0.71337890625
537, 3991841662, -6.276050567626953, 1.8944237232208252, 7.129349231719971, 1.2748273611068726, -0.23064236342906952, -0.8050456047058105, 0.5947265625, 0.19189453125, -0.7109375
538, 3991858329, -6.26168155670166, 1.8747109174728394, 7.117575645446777, 1.055364966392517, -0.38419049978256226, -0.9808895587921143, 0.59521484375, 0.189697265625, -0.71240234375
539, 3991874996, -6.248485565185547, 1.827459692955017, 7.1409502029418945, 0.9008177518844604, -0.3774031102657318, -0.9919285178184509, 0.59375, 0.19189453125, -0.71044921875
540, 3991891663, -6.262942790985107, 1.8421374559402466, 7.101359844207764, 0.8332643508911133, -0.37662193179130554, -0.6970623731613159, 0.59521484375, 0.19140625, -0.708740234375
541, 3991908330, -6.2612104415893555, 1.8966727256774902, 7.115489959716797, 0.6875792741775513, -0.3460659980773926, -0.6794409155845642, 0.59521484375, 0.189697265625, -0.712890625
542, 3991924997, -6.276773929595947, 1.8870662450790405, 7.137414932250977, 0.8316059708595276, -0.3745473027229309, -0.6781090497970581, 0.596435546875, 0.189208984375, -0.712890625
543, 3991941664, -6.260918617248535, 1.8929446935653687, 7.1266984939575195, 0.4216170310974121, -0.7517712116241455, -0.7379146218299866, 0.59521484375, 0.189697265625, -0.71240234375
544, 3991958331, -6.259361743927002, 1.8908082246780396, 7.143336296081543, 0.026016099378466606, -0.8110517263412476, -0.9915316104888916, 0.59423828125, 0.189208984375, -0.7119140625
545, 3991974998, -6.291120529174805, 1.8618541955947876, 7.149719715118408, -0.18670378625392914, -0.35040736198425293, -1.3071953058242798, 0.595703125, 0.190185546875, -0.71142578125
546, 3991991665, -6.276698112487793, 1.9085725545883179, 7.0916008949279785, -0.14837436378002167, -0.21618397533893585, -1.3766697645187378, 0.591796875, 0.187744140625, -0.709716796875
547, 3992008332, -6.256455421447754, 1.9112017154693604, 7.081151962280273, -0.18026216328144073, -0.6103634238243103, -1.424616813659668, 0.5947265625, 0.188720703125, -0.710693359375
548, 3992024999, -6.247523307800293, 1.8977632522583008, 7.074953079223633, -0.11879170686006546, -0.7071154713630676, -1.4174965620040894, 0.59375, 0.189697265625, -0.709228515625
549, 3992041666, -6.255726337432861, 1.9046611785888672, 7.115624904632568, 0.5656116604804993, 0.01020025834441185, -1.385903239250183, 0.59521484375, 0.189208984375, -0.71337890625
550, 3992058333, -6.263458728790283, 1.9414056539535522, 7.0915069580078125, 0.6232658624649048, 0.12217898666858673, -1.543959140777588, 0.594970703125, 0.189208984375, -0.708740234375
551, 3992075000, -6.2744622230529785, 1.9070837497711182, 7.130754470825195, 0.3369670808315277, 0.0024780286476016045, -1.7534325122833252, 0.594970703125, 0.189697265625, -0.710205078125
552, 3992091667, -6.267391204833984, 1.8656781911849976, 7.129387378692627, -0.043029338121414185, -0.4454433023929596, -1.739486575126648, 0.595947265625, 0.190185546875, -0.708251953125
553, 3992108334, -6.284819602966309, 1.8608680963516235, 7.1160125732421875, 0.007370054256170988, -0.5640684366226196, -1.4214279651641846, 0.59521484375, 0.189697265625, -0.71142578125
554, 3992125001, -6.294600009918213, 1.8396815061569214, 7.113709926605225, 0.32447442412376404, -0.6842047572135925, -1.067165732383728, 0.594970703125, 0.188720703125, -0.710693359375
555, 3992141668, -6.281132221221924, 1.8867260217666626, 7.141735076904297, 0.5607708692550659, -0.8048279285430908, -0.8890424370765686, 0.596923828125, 0.190673828125, -0.710205078125
556, 3992158335, -6.287464141845703, 1.9037350416183472, 7.1047043800354, 0.8451101779937744, -0.6280617713928223, -0.7977588176727295, 0.595947265625, 0.189697265625, -0.711181640625
557, 3992175002, -6.282438278198242, 1.8831812143325806, 7.113956451416016, 0.8628727197647095, -0.6704764366149902, -0.7278489470481873, 0.595458984375, 0.189208984375, -0.707763671875
558, 3992191669, -6.307817459106445, 1.8405030965805054, 7.11445951461792, 1.0435831546783447, -0.40917572379112244, -0.5209367275238037, 0.597900390625, 0.187744140625, -0.707763671875
559, 3992208336, -6.279465675354004, 1.9182556867599487, 7.110412120819092, 1.165102481842041, -0.6085449457168579, -0.13973009586334229, 0.595458984375, 0.186279296875, -0.709228515625
560, 3992225003, -6.2699666023254395, 1.9648582935333252, 7.088798522949219, 1.0944498777389526, -0.6730121374130249, -0.2677808105945587, 0.595458984375, 0.188720703125, -0.708740234375
561, 3992241670, -6.260660648345947, 1.999748945236206, 7.07936954498291, 0.7789206504821777, -0.7803677320480347, -0.7233538627624512, 0.594482421875, 0.18603515625, -0.710205078125
562, 3992258337, -6.2558512687683105, 1.9648306369781494, 7.100442409515381, 0.21274548768997192, -0.8650816679000854, -1.097299337387085, 0.594482421875, 0.18603515625, -0.706787109375
563, 3992275004, -6.250855922698975, 1.9267895221710205, 7.0882134437561035, 0.028961559757590294, -0.7941473126411438, -1.115151286125183, 0.59326171875, 0.187255859375, -0.710693359375
564, 3992291671, -6.272810935974121, 1.889448881149292, 7.123090744018555, 0.0818646028637886, -0.5287485718727112, -0.9932221174240112, 0.594970703125, 0.187255859375, -0.708740234375
565, 3992308338, -6.287026882171631, 1.941314935684204, 7.101982593536377, 0.25444296002388, -0.6508826613426208, -0.8191709518432617, 0.596923828125, 0.186279296875, -0.709716796875
566, 3992325005, -6.249960899353027, 2.012848377227783, 7.082785606384277, -0.00457186670973897, -0.7653715014457703, -1.0686001777648926, 0.594482421875, 0.18505859375, -0.711181640625
567, 3992341672, -6.267758369445801, 1.931398868560791, 7.107038497924805, -0.25995609164237976, -0.9981397390365601, -1.0672043561935425, 0.595947265625, 0.186279296875, -0.709228515625
568, 3992358339, -6.282674312591553, 1.9179381132125854, 7.1138081550598145, -0.24068252742290497, -0.906190037727356, -1.0557042360305786, 0.595458984375, 0.187255859375, -0.708251953125
569, 3992375006, -6.2855963706970215, 1.9163933992385864, 7.110378742218018, 0.21540923416614532, -0.6948213577270508, -0.8803470134735107, 0.594482421875, 0.18603515625, -0.710205078125
570, 3992391673, -6.297029972076416, 1.9539966583251953, 7.094089031219482, 0.6807406544685364, -0.5890664458274841, -0.6067392230033875, 0.595458984375, 0.186767578125, -0.710205078125
571, 3992408340, -6.261016845703125, 1.963727355003357, 7.090399742126465, 0.5801852941513062, -0.6895579695701599, -0.6270117163658142, 0.594970703125, 0.186767578125, -0.710693359375
572, 3992425007, -6.284646987915039, 1.962087869644165, 7.110682487487793, 0.7222589254379272, -0.5036737322807312, -0.7186410427093506, 0.595947265625, 0.1845703125, -0.709716796875
573, 3992441674, -6.287353992462158, 1.9299241304397583, 7.123750686645508, 0.8824278712272644, -0.27351799607276917, -0.6477579474449158, 0.595947265625, 0.18310546875, -0.709228515625
574, 3992458341, -6.328803062438965, 1.8617579936981201, 7.122538089752197, 1.702700138092041, 0.08543755859136581, 0.04336869716644287, 0.597900390625, 0.18408203125, -0.707275390625
575, 3992475008, -6.332087516784668, 1.914247989654541, 7.113970756530762, 2.5778989791870117, 0.2400357723236084, 0.7166624665260315, 0.595458984375, 0.18310546875, -0.70654296875
576, 3992491675, -6.312150001525879, 1.9237276315689087, 7.1273088455200195, 3.104560375213623, 0.2339400053024292, 1.153487205505371, 0.595458984375, 0.181640625, -0.709716796875
577, 3992508342, -6.338676452636719, 1.9146523475646973, 7.107438564300537, 3.369741439819336, 0.03496773913502693, 1.2312474250793457, 0.595947265625, 0.18115234375, -0.709228515625
578, 3992525009, -6.306501388549805, 2.0068511962890625, 7.106167793273926, 3.5834407806396484, -0.3634314239025116, 1.2425553798675537, 0.595947265625, 0.179931640625, -0.709716796875
579, 3992541676, -6.26246452331543, 2.0430545806884766, 7.031893730163574, 3.315890312194824, -0.43656837940216064, 0.7783890962600708, 0.594482421875, 0.179443359375, -0.708251953125
580, 3992558343, -6.248626232147217, 2.036393404006958, 7.09349250793457, 2.804776430130005, -0.38347333669662476, 0.3294113278388977, 0.595703125, 0.177490234375, -0.7060546875
581, 3992575010, -6.254210948944092, 2.0306649208068848, 7.055479526519775, 2.23514986038208, -0.9572747349739075, 0.05556034296751022, 0.594482421875, 0.178466796875, -0.70654296875
582, 3992591677, -6.299862861633301, 1.9995743036270142, 7.093271732330322, 2.5325005054473877, -1.394393801689148, 0.1284797191619873, 0.59619140625, 0.177490234375, -0.708251953125
583, 3992608344, -6.23909854888916, 2.0954153537750244, 7.050849914550781, 2.2434611320495605, -1.7326992750167847, 0.285139799118042, 0.59521484375, 0.176025390625, -0.70654296875
584, 3992625011, -6.208020210266113, 2.0831236839294434, 7.033640384674072, 1.3807613849639893, -1.699774146080017, -0.19108353555202484, 0.59423828125, 0.1748046875, -0.708740234375
585, 3992641678, -6.19643497467041, 2.114922046661377, 7.050703525543213, 0.4121915400028229, -1.2381049394607544, -0.8524546027183533, 0.59326171875, 0.17529296875, -0.70751953125
586, 3992658345, -6.240961074829102, 2.061339855194092, 7.085937023162842, 0.07911122590303421, -0.9267444014549255, -1.0888726711273193, 0.5966796875, 0.173828125, -0.70751953125
587, 3992675012, -6.237785339355469, 2.092801809310913, 7.058166027069092, -0.11269588023424149, -0.7545758485794067, -1.400092601776123, 0.5947265625, 0.176025390625, -0.709716796875
588, 3992691679, -6.251422882080078, 2.0604166984558105, 7.057510852813721, -0.4076516926288605, -0.6565943360328674, -1.6760308742523193, 0.5947265625, 0.17578125, -0.70751953125
589, 3992708346, -6.2521185874938965, 2.0718791484832764, 7.069900035858154, -0.7566119432449341, -0.5459858775138855, -1.8842240571975708, 0.5947265625, 0.17431640625, -0.70751953125
590, 3992725013, -6.254870414733887, 2.039494276046753, 7.069485187530518, -0.9909554719924927, -0.6314042806625366, -1.9565030336380005, 0.59521484375, 0.17529296875, -0.7080078125
591, 3992741680, -6.287140846252441, 2.036365270614624, 7.096571922302246, -0.97365403175354, -0.6979076862335205, -1.8018277883529663, 0.5947265625, 0.176025390625, -0.710205078125
592, 3992758347, -6.255545616149902, 2.0757269859313965, 7.059812068939209, -1.0902942419052124, -0.7212408185005188, -1.8720834255218506, 0.59716796875, 0.177001953125, -0.709228515625
593, 3992775014, -6.274043083190918, 2.0598599910736084, 7.0800065994262695, -1.314418077468872, -0.7649872899055481, -2.0670857429504395, 0.5947265625, 0.17529296875, -0.709228515625
594, 3992791681, -6.276832103729248, 2.0379278659820557, 7.066624641418457, -1.221354365348816, -0.9225821495056152, -2.009751558303833, 0.59619140625, 0.176025390625, -0.708740234375
595, 3992808348, -6.276264667510986, 2.028271436691284, 7.059391975402832, -0.9625893235206604, -0.9378858208656311, -1.8026090860366821, 0.594482421875, 0.177978515625, -0.70751953125
596, 3992825015, -6.236764907836914, 2.067437171936035, 7.0507097244262695, -1.142390489578247, -0.7825576663017273, -1.9329266548156738, 0.595703125, 0.177978515625, -0.708251953125
597, 3992841682, -6.2567620277404785, 2.060635805130005, 7.03590202331543, -1.5647438764572144, -0.8457697629928589, -2.1500837802886963, 0.594482421875, 0.176513671875, -0.708740234375
598, 3992858349, -6.265811443328857, 2.001758575439453, 7.084012985229492, -1.6090795993804932, -0.9696968793869019, -2.1127660274505615, 0.594482421875, 0.179931640625, -0.70654296875
599, 3992875016, -6.299961090087891, 1.9825451374053955, 7.084036350250244, -1.1825640201568604, -0.9708878397941589, -1.7643053531646729, 0.5947265625, 0.177978515625, -0.70751953125
600, 3992891683, -6.261189937591553, 2.075295925140381, 7.066532135009766, -1.2176916599273682, -1.1252810955047607, -1.675429105758667, 0.595947265625, 0.178955078125, -0.709716796875
601, 3992908350, -6.293210506439209, 2.0356757640838623, 7.108175277709961, -1.4239892959594727, -1.1910929679870605, -2.1026105880737305, 0.59619140625, 0.177978515625, -0.711181640625
602, 3992925017, -6.2807440757751465, 1.9691582918167114, 7.1428070068359375, -1.3848018646240234, -1.3221148252487183, -2.2032811641693115, 0.595947265625, 0.180419921875, -0.707763671875
603, 3992941684, -6.309347152709961, 1.9392329454421997, 7.115355968475342, -0.9596438407897949, -1.0621330738067627, -1.9458097219467163, 0.59716796875, 0.178955078125, -0.711669921875
604, 3992958351, -6.324413299560547, 1.9345601797103882, 7.1209259033203125, -0.25626784563064575, -0.7296545505523682, -1.6753522157669067, 0.595947265625, 0.180419921875, -0.707763671875
605, 3992975018, -6.287681579589844, 1.9349905252456665, 7.117127895355225, 0.22534693777561188, -0.6790438890457153, -1.355296015739441, 0.594970703125, 0.180419921875, -0.707275390625
606, 3992991685, -6.290388584136963, 1.980586290359497, 7.0941996574401855, 0.7515727281570435, -0.7115976810455322, -0.951012372970581, 0.595458984375, 0.180419921875, -0.710205078125
607, 3993008352, -6.2699408531188965, 2.0008761882781982, 7.083876132965088, 0.9245609045028687, -0.5662199854850769, -0.9481309056282043, 0.593505859375, 0.180908203125, -0.708740234375
608, 3993025019, -6.268968105316162, 2.0077946186065674, 7.086272716522217, 0.8641788363456726, -0.41609108448028564, -0.9308167099952698, 0.595703125, 0.178955078125, -0.708740234375
609, 3993041686, -6.2835693359375, 1.9824254512786865, 7.127167701721191, 0.9890791773796082, -0.24309012293815613, -0.6701690554618835, 0.593505859375, 0.176513671875, -0.709716796875
610, 3993058353, -6.269510746002197, 2.03851580619812, 7.083765506744385, 1.1227519512176514, -0.1011829674243927, -0.6231313347816467, 0.5966796875, 0.176025390625, -0.70654296875
611, 3993075020, -6.248265266418457, 2.056642770767212, 7.048959732055664, 0.7839919328689575, -0.25966155529022217, -0.825689435005188, 0.594970703125, 0.178955078125, -0.708740234375
612, 3993091687, -6.257452487945557, 2.0515711307525635, 7.075115203857422, 0.28890490531921387, -0.5956617593765259, -1.1490498781204224, 0.595458984375, 0.177490234375, -0.710693359375
613, 3993108354, -6.270900726318359, 2.0312116146087646, 7.048068046569824, -0.10735563933849335, -0.8705629110336304, -1.3498276472091675, 0.595458984375, 0.177978515625, -0.709716796875
614, 3993125021, -6.257490158081055, 2.0308868885040283, 7.073114395141602, -0.3544670045375824, -0.9429572224617004, -1.3609565496444702, 0.59619140625, 0.177001953125, -0.708740234375
615, 3993141688, -6.259157657623291, 2.031752347946167, 7.064519882202148, -0.4534471929073334, -0.790420651435852, -1.3826760053634644, 0.59716796875, 0.178955078125, -0.709228515625
616, 3993158355, -6.277892589569092, 2.012397527694702, 7.07212495803833, -0.3288798928260803, -0.7093949913978577, -1.3238052129745483, 0.594482421875, 0.178955078125, -0.70654296875
617, 3993175022, -6.283953666687012, 2.0494608879089355, 7.073206424713135, -0.3195952773094177, -0.743882417678833, -1.303110122680664, 0.594482421875, 0.177490234375, -0.70751953125
618, 3993191689, -6.270519256591797, 2.020742893218994, 7.088592052459717, -0.3905808627605438, -0.6851781606674194, -1.3800251483917236, 0.59619140625, 0.177978515625, -0.709228515625
619, 3993208356, -6.278857231140137, 2.007957935333252, 7.0792155265808105, -0.3297891318798065, -0.6742671728134155, -1.239513874053955, 0.5966796875, 0.176025390625, -0.708251953125
620, 3993225023, -6.274343967437744, 2.01961088180542, 7.0617451667785645, -0.2610190212726593, -0.8323999047279358, -1.2503352165222168, 0.594482421875, 0.178955078125, -0.709228515625
621, 3993241690, -6.255299091339111, 2.044353723526001, 7.066830158233643, -0.48413121700286865, -0.9435845613479614, -1.3364578485488892, 0.59619140625, 0.177001953125, -0.711181640625
622, 3993258357, -6.272697448730469, 2.0387699604034424, 7.076487064361572, -0.5565383434295654, -1.0771803855895996, -1.483064889907837, 0.594482421875, 0.179443359375, -0.707763671875
623, 3993275024, -6.247034549713135, 2.049790859222412, 7.0651631355285645, -0.65469890832901, -1.0559474229812622, -1.4342215061187744, 0.59619140625, 0.176025390625, -0.7080078125
624, 3993291691, -6.265233039855957, 2.0173227787017822, 7.09715461730957, -0.7097919583320618, -1.1760839223861694, -1.6214888095855713, 0.59619140625, 0.178466796875, -0.709228515625
625, 3993308358, -6.255184173583984, 2.051952600479126, 7.0729804039001465, -1.0489298105239868, -1.1473464965820312, -1.750769019126892, 0.593505859375, 0.179443359375, -0.709228515625
626, 3993325025, -6.2412309646606445, 2.0723061561584473, 7.063770294189453, -1.1921942234039307, -1.229896068572998, -1.8678057193756104, 0.596435546875, 0.179443359375, -0.712158203125
627, 3993341692, -6.256634712219238, 2.039623975753784, 7.047605037689209, -1.5113284587860107, -1.4441208839416504, -2.154834747314453, 0.593017578125, 0.180908203125, -0.707763671875
628, 3993358359, -6.254960536956787, 2.0445685386657715, 7.073234558105469, -1.7393648624420166, -1.8770841360092163, -2.3220791816711426, 0.594482421875, 0.178466796875, -0.709228515625
629, 3993375026, -6.276149272918701, 1.9995437860488892, 7.091276168823242, -2.309471845626831, -1.806976318359375, -2.6089866161346436, 0.592529296875, 0.180419921875, -0.708740234375
630, 3993391693, -6.2778496742248535, 1.9682056903839111, 7.075560569763184, -2.481550931930542, -1.7132465839385986, -2.542957305908203, 0.595458984375, 0.180908203125, -0.711181640625
631, 3993408360, -6.28556489944458, 1.9541995525360107, 7.086114406585693, -2.795408248901367, -1.9315687417984009, -2.578878402709961, 0.595947265625, 0.18115234375, -0.711181640625
632, 3993425027, -6.275557041168213, 1.9517536163330078, 7.149829387664795, -2.662721633911133, -1.978235125541687, -2.52262020111084, 0.594482421875, 0.18359375, -0.710205078125
633, 3993441694, -6.280769348144531, 1.94868803024292, 7.107138633728027, -2.4994027614593506, -1.931185007095337, -2.3975026607513428, 0.592041015625, 0.18310546875, -0.711669921875
634, 3993458361, -6.280555248260498, 1.9246553182601929, 7.113692283630371, -1.9780174493789673, -1.5661269426345825, -2.216766357421875, 0.594970703125, 0.18212890625, -0.710205078125
635, 3993475028, -6.262490749359131, 1.9431819915771484, 7.13133430480957, -1.413027048110962, -1.2124669551849365, -2.08003306388855, 0.593505859375, 0.18359375, -0.710693359375
636, 3993491695, -6.2574896812438965, 1.9399898052215576, 7.100516319274902, -1.1797465085983276, -1.191080093383789, -2.0638327598571777, 0.594482421875, 0.18408203125, -0.709716796875
637, 3993508362, -6.2732977867126465, 1.9441561698913574, 7.098111152648926, -1.205884337425232, -1.1677213907241821, -2.000556707382202, 0.593505859375, 0.18359375, -0.712890625
638, 3993525029, -6.267470359802246, 1.9218131303787231, 7.123296737670898, -1.027222990989685, -1.10042405128479, -1.9101310968399048, 0.591796875, 0.18310546875, -0.71337890625
639, 3993541696, -6.253243923187256, 1.9262758493423462, 7.120744228363037, -0.7564455270767212, -1.0419247150421143, -1.7507305145263672, 0.591552734375, 0.18310546875, -0.710205078125
640, 3993558363, -6.279716491699219, 1.9516435861587524, 7.117365837097168, -0.6356431841850281, -0.900619387626648, -1.7397937774658203, 0.593017578125, 0.18359375, -0.711181640625
641, 3993575030, -6.261833667755127, 1.9226679801940918, 7.107855319976807, -0.6438135504722595, -0.9702089428901672, -1.5733880996704102, 0.594970703125, 0.186279296875, -0.710693359375
642, 3993591697, -6.250443458557129, 1.9351941347122192, 7.114387035369873, -0.5801404118537903, -0.9020407795906067, -1.545508623123169, 0.593505859375, 0.18359375, -0.71240234375
643, 3993608364, -6.256815433502197, 1.944383978843689, 7.123953819274902, -0.6433268785476685, -1.0132254362106323, -1.6482155323028564, 0.593505859375, 0.1845703125, -0.71337890625
644, 3993625031, -6.254161834716797, 1.9427796602249146, 7.120408058166504, -0.7441129684448242, -0.963562548160553, -1.7617440223693848, 0.593994140625, 0.18505859375, -0.71337890625
645, 3993641698, -6.254186630249023, 1.939058542251587, 7.119542598724365, -0.8070818185806274, -1.1523921489715576, -1.7318412065505981, 0.59228515625, 0.18505859375, -0.711181640625
646, 3993658365, -6.244659900665283, 1.9528144598007202, 7.132728099822998, -1.0080775022506714, -1.1549278497695923, -1.8434869050979614, 0.593994140625, 0.18408203125, -0.7119140625
647, 3993675032, -6.232205390930176, 1.9451286792755127, 7.120403289794922, -0.9059852361679077, -1.0683826208114624, -1.9022680521011353, 0.593994140625, 0.1865234375, -0.710205078125
648, 3993691699, -6.228188991546631, 1.9424799680709839, 7.127366065979004, -1.0293999910354614, -0.9425602555274963, -2.0379257202148438, 0.59375, 0.18603515625, -0.71240234375
649, 3993708366, -6.249505996704102, 1.9188865423202515, 7.139686584472656, -0.9648175835609436, -0.7946212291717529, -1.9199535846710205, 0.59326171875, 0.186767578125, -0.71142578125
650, 3993725033, -6.24975061416626, 1.9183049201965332, 7.138150691986084, -0.7717618942260742, -0.5345754623413086, -1.9405590295791626, 0.59228515625, 0.187255859375, -0.7138671875
651, 3993741700, -6.244837284088135, 1.9315381050109863, 7.135880947113037, -0.8524675369262695, -0.5004593729972839, -1.9781842231750488, 0.5927734375, 0.186767578125, -0.7119140625
652, 3993758367, -6.25986385345459, 1.941410779953003, 7.113275051116943, -0.7805342078208923, -0.5915253162384033, -1.9489856958389282, 0.59375, 0.187744140625, -0.710693359375
653, 3993775034, -6.267177104949951, 1.9378669261932373, 7.121279716491699, -1.0453695058822632, -0.8000510931015015, -1.9783889055252075, 0.59033203125, 0.188720703125, -0.708740234375
654, 3993791701, -6.263162136077881, 1.9110623598098755, 7.12037992477417, -1.061620831489563, -0.8376505970954895, -2.062398672103882, 0.5947265625, 0.189697265625, -0.7119140625
655, 3993808368, -6.251256942749023, 1.9090274572372437, 7.139510154724121, -1.0307319164276123, -0.7566120028495789, -1.969552755355835, 0.5908203125, 0.187744140625, -0.71142578125
