sep=,
DeviceTag:,A,,,,,,,,,,,,,,,,,
FirmwareVersion:,2.2.1,,,,,,,,,,,,,,,,,
AppVersion:,2023.6.1,,,,,,,,,,,,,,,,,
SyncStatus:,Synced,,,,,,,,,,,,,,,,,
OutputRate:,60Hz,,,,,,,,,,,,,,,,,
FilterProfile:,General,,,,,,,,,,,,,,,,,
Measurement Mode:,Inertial Mode - Rate quantities (with mag),,,,,,,,,,,,,,,,,
StartTime:,2023-12-07 13:28:08.707 +0200,,,,,,,,,,,,,,,,,
 2023,,,,,,,,,,,,,,,,,,,

PacketCounter,SampleTimeFine,Acc_X,Acc_Y,Acc_Z,Gyr_X,Gyr_Y,Gyr_Z,Mag_X,Mag_Y,Mag_Z
1, 3727353039, -6.790283679962158, -0.8921871185302734, 7.107123374938965, -2.329974412918091, -1.5173090696334839, -2.0902137756347656, 1.11767578125, -0.4189453125, 0.055419921875
2, 3727369706, -6.803156852722168, -0.8793607950210571, 7.119777202606201, -2.2910306453704834, -1.546789526939392, -2.014528751373291, 1.119140625, -0.4189453125, 0.054443359375
3, 3727386373, -6.798069000244141, -0.8672682046890259, 7.133572101593018, -2.2868425846099854, -1.5401171445846558, -1.9789395332336426, 1.119140625, -0.41943359375, 0.055419921875
4, 3727403040, -6.801087856292725, -0.8880756497383118, 7.12931489944458, -2.284921646118164, -1.5742205381393433, -2.0689425468444824, 1.11962890625, -0.41943359375, 0.05810546875
5, 3727419707, -6.783996105194092, -0.8861182928085327, 7.1402106285095215, -2.2912864685058594, -1.633872389793396, -2.056751251220703, 1.12158203125, -0.418212890625, 0.055419921875
6, 3727436374, -6.793185234069824, -0.868063747882843, 7.142282962799072, -2.2702372074127197, -1.537886142730713, -2.077410936355591, 1.1181640625, -0.419921875, 0.055908203125
7, 3727453041, -6.795017719268799, -0.8695852160453796, 7.1288676261901855, -2.420656204223633, -1.4954103231430054, -2.064063310623169, 1.12158203125, -0.42041015625, 0.054443359375
8, 3727469708, -6.796474933624268, -0.8861377239227295, 7.133119583129883, -2.391880512237549, -1.4746639728546143, -2.1897449493408203, 1.119140625, -0.419921875, 0.05712890625
9, 3727486375, -6.795125484466553, -0.8751360774040222, 7.131300449371338, -2.4581406116485596, -1.4721283912658691, -2.136880397796631, 1.11767578125, -0.419921875, 0.056640625
10, 3727503042, -6.799808502197266, -0.8822164535522461, 7.13380765914917, -2.509071111679077, -1.3905134201049805, -2.1823172569274902, 1.11962890625, -0.416748046875, 0.055908203125
11, 3727519709, -6.79783821105957, -0.8638129830360413, 7.1089324951171875, -2.504371166229248, -1.4407655000686646, -2.1657586097717285, 1.11865234375, -0.42041015625, 0.056396484375
12, 3727536376, -6.80471658706665, -0.8660967350006104, 7.13819694519043, -2.5865371227264404, -1.5287197828292847, -2.3954410552978516, 1.119140625, -0.42236328125, 0.05712890625
13, 3727553043, -6.785951614379883, -0.8839073777198792, 7.122953414916992, -2.5286266803741455, -1.5297698974609375, -2.2662758827209473, 1.11767578125, -0.42138671875, 0.056640625
14, 3727569710, -6.816633224487305, -0.8725264668464661, 7.114116668701172, -2.523184061050415, -1.6404293775558472, -2.28776478767395, 1.11767578125, -0.4189453125, 0.054931640625
15, 3727586377, -6.795239448547363, -0.8864323496818542, 7.136810302734375, -2.4374067783355713, -1.6024199724197388, -2.2993288040161133, 1.119140625, -0.418212890625, 0.05810546875
16, 3727603044, -6.799109935760498, -0.8710248470306396, 7.129585266113281, -2.409501791000366, -1.6880944967269897, -2.271167755126953, 1.1201171875, -0.418212890625, 0.05712890625
17, 3727619711, -6.795098781585693, -0.8745632767677307, 7.129300117492676, -2.475543975830078, -1.6023303270339966, -2.351271390914917, 1.11865234375, -0.41943359375, 0.0576171875
18, 3727636378, -6.796175003051758, -0.8669912815093994, 7.125791549682617, -2.4806923866271973, -1.4808366298675537, -2.28562593460083, 1.11865234375, -0.4189453125, 0.056396484375
19, 3727653045, -6.818728923797607, -0.8729487061500549, 7.128572463989258, -2.514744758605957, -1.5873470306396484, -2.290940999984741, 1.11865234375, -0.42138671875, 0.05615234375
20, 3727669712, -6.797043800354004, -0.8797916173934937, 7.141003608703613, -2.543264389038086, -1.5344569683074951, -2.314645528793335, 1.12109375, -0.4189453125, 0.056640625
21, 3727686379, -6.801867485046387, -0.8838731050491333, 7.14343786239624, -2.5082004070281982, -1.5680351257324219, -2.32820725440979, 1.1201171875, -0.419921875, 0.056640625
22, 3727703046, -6.805327415466309, -0.8763037919998169, 7.126933574676514, -2.4665539264678955, -1.5199344158172607, -2.273831367492676, 1.1181640625, -0.419921875, 0.056640625
23, 3727719713, -6.791252613067627, -0.872477114200592, 7.14406156539917, -2.506087303161621, -1.5303971767425537, -2.2742538452148438, 1.12060546875, -0.419921875, 0.0576171875
24, 3727736380, -6.795768737792969, -0.8736487030982971, 7.138038158416748, -2.4471397399902344, -1.441239356994629, -2.2615370750427246, 1.11865234375, -0.418212890625, 0.056640625
25, 3727753047, -6.804681777954102, -0.8784107565879822, 7.118587017059326, -2.4419915676116943, -1.4340678453445435, -2.2861766815185547, 1.1181640625, -0.41943359375, 0.05712890625
26, 3727769714, -6.810720920562744, -0.8933115005493164, 7.10597038269043, -2.4146246910095215, -1.5486592054367065, -2.214397430419922, 1.11962890625, -0.417236328125, 0.056640625
27, 3727786381, -6.8023681640625, -0.8785694241523743, 7.134548187255859, -2.3218681812286377, -1.6155210733413696, -2.1846864223480225, 1.11767578125, -0.418212890625, 0.056396484375
28, 3727803048, -6.792352676391602, -0.8718688488006592, 7.124380588531494, -2.3692514896392822, -1.5259277820587158, -2.150608777999878, 1.119140625, -0.417724609375, 0.056396484375
29, 3727819715, -6.809600353240967, -0.8845476508140564, 7.13839864730835, -2.386284112930298, -1.5633736848831177, -2.19797945022583, 1.11962890625, -0.41943359375, 0.054443359375
30, 3727836382, -6.79896354675293, -0.872847318649292, 7.119003772735596, -2.451148271560669, -1.4915043115615845, -2.252995491027832, 1.119140625, -0.418701171875, 0.055419921875
31, 3727853049, -6.797786235809326, -0.8821014761924744, 7.135290622711182, -2.487492561340332, -1.4285612106323242, -2.224719524383545, 1.119140625, -0.419921875, 0.0576171875
32, 3727869716, -6.799732208251953, -0.8853772878646851, 7.139244079589844, -2.5835659503936768, -1.5306150913238525, -2.2671468257904053, 1.119140625, -0.4189453125, 0.05908203125
33, 3727886383, -6.810198783874512, -0.8662056922912598, 7.148645877838135, -2.385835886001587, -1.4829113483428955, -2.2694902420043945, 1.1201171875, -0.418701171875, 0.056640625
34, 3727903050, -6.808156490325928, -0.8766669631004333, 7.102542400360107, -2.4579355716705322, -1.5518863201141357, -2.3403220176696777, 1.1181640625, -0.421875, 0.056396484375
35, 3727919717, -6.801261901855469, -0.8784506320953369, 7.147622108459473, -2.458486318588257, -1.499764323234558, -2.270937204360962, 1.11962890625, -0.417724609375, 0.055419921875
36, 3727936384, -6.789320468902588, -0.8816925287246704, 7.139054298400879, -2.3994362354278564, -1.5931228399276733, -2.349222421646118, 1.1201171875, -0.4189453125, 0.05615234375
37, 3727953051, -6.796686172485352, -0.8698435425758362, 7.1232500076293945, -2.3754241466522217, -1.581276774406433, -2.393993377685547, 1.11962890625, -0.4189453125, 0.056640625
38, 3727969718, -6.799536228179932, -0.8764329552650452, 7.133620738983154, -2.3991799354553223, -1.628993272781372, -2.3538455963134766, 1.1181640625, -0.41943359375, 0.055908203125
39, 3727986385, -6.7901177406311035, -0.8916345238685608, 7.1350250244140625, -2.387666940689087, -1.6478569507598877, -2.3281941413879395, 1.11962890625, -0.418701171875, 0.0576171875
40, 3728003052, -6.7748799324035645, -0.9006744623184204, 7.131235599517822, -2.3954405784606934, -1.607235312461853, -2.3506312370300293, 1.11865234375, -0.4189453125, 0.056396484375
41, 3728019719, -6.783080577850342, -0.8862918615341187, 7.130220413208008, -2.4163150787353516, -1.6193629503250122, -2.276252031326294, 1.119140625, -0.4189453125, 0.05712890625
42, 3728036386, -6.789127349853516, -0.8868834972381592, 7.117602348327637, -2.3855388164520264, -1.5544694662094116, -2.303147792816162, 1.11767578125, -0.4189453125, 0.0576171875
43, 3728053053, -6.802039623260498, -0.8769481182098389, 7.122171878814697, -2.487748861312866, -1.5084089040756226, -2.252509117126465, 1.11767578125, -0.418212890625, 0.055908203125
44, 3728069720, -6.799736022949219, -0.8832322955131531, 7.132452011108398, -2.4883508682250977, -1.6388157606124878, -2.352424144744873, 1.11962890625, -0.419921875, 0.05615234375
45, 3728086387, -6.8139872550964355, -0.8795222043991089, 7.126971244812012, -2.451570987701416, -1.5714161396026611, -2.3058860301971436, 1.1171875, -0.419921875, 0.054931640625
46, 3728103054, -6.800795555114746, -0.8797557353973389, 7.124217987060547, -2.442913770675659, -1.5612860918045044, -2.3003532886505127, 1.1171875, -0.41943359375, 0.0576171875
47, 3728119721, -6.787789344787598, -0.887436032295227, 7.120584487915039, -2.4181973934173584, -1.6586143970489502, -2.3550236225128174, 1.1201171875, -0.4189453125, 0.054931640625
48, 3728136388, -6.80816650390625, -0.8858935832977295, 7.1191887855529785, -2.392956256866455, -1.6309144496917725, -2.248180389404297, 1.12060546875, -0.41943359375, 0.056640625
49, 3728153055, -6.7798752784729, -0.8854358792304993, 7.134179592132568, -2.531315803527832, -1.575693130493164, -2.2758548259735107, 1.11962890625, -0.42041015625, 0.05810546875
50, 3728169722, -6.7935099601745605, -0.8786747455596924, 7.114388942718506, -2.5305092334747314, -1.4067904949188232, -2.3267602920532227, 1.12060546875, -0.42138671875, 0.0576171875
51, 3728186389, -6.790016174316406, -0.8787941336631775, 7.131364822387695, -2.4573724269866943, -1.503875494003296, -2.2770330905914307, 1.12060546875, -0.417236328125, 0.055908203125
52, 3728203056, -6.800283908843994, -0.8796907067298889, 7.119073867797852, -2.4316697120666504, -1.5426912307739258, -2.3040285110473633, 1.12060546875, -0.417724609375, 0.05615234375
53, 3728219723, -6.800715923309326, -0.8979999423027039, 7.1284308433532715, -2.358276605606079, -1.568713903427124, -2.1804990768432617, 1.12158203125, -0.4189453125, 0.054931640625
54, 3728236390, -6.78917121887207, -0.8827636241912842, 7.14376163482666, -2.353858470916748, -1.5415645837783813, -2.1699209213256836, 1.1201171875, -0.4189453125, 0.055419921875
55, 3728253057, -6.801122188568115, -0.8809756636619568, 7.146745681762695, -2.4035470485687256, -1.539528250694275, -2.185237407684326, 1.11962890625, -0.4189453125, 0.05810546875
56, 3728269724, -6.808414459228516, -0.8907202482223511, 7.112751007080078, -2.4310293197631836, -1.506807804107666, -2.246694803237915, 1.11767578125, -0.418701171875, 0.056884765625
57, 3728286391, -6.79346227645874, -0.880262017250061, 7.120728492736816, -2.438380479812622, -1.5844144821166992, -2.2660839557647705, 1.117431640625, -0.418212890625, 0.056884765625
58, 3728303058, -6.788621425628662, -0.8808868527412415, 7.1176371574401855, -2.461700916290283, -1.5691365003585815, -2.2059452533721924, 1.1181640625, -0.418701171875, 0.05712890625
59, 3728319725, -6.784900665283203, -0.8970659971237183, 7.106834888458252, -2.512221574783325, -1.4361295700073242, -2.252944231033325, 1.11767578125, -0.417724609375, 0.056396484375
60, 3728336392, -6.80004358291626, -0.8813467025756836, 7.1247968673706055, -2.583885669708252, -1.3830472230911255, -2.274766206741333, 1.122802734375, -0.41943359375, 0.0576171875
61, 3728353059, -6.815631866455078, -0.8827490210533142, 7.131115913391113, -2.691434144973755, -1.5400151014328003, -2.3584818840026855, 1.1201171875, -0.418701171875, 0.05712890625
62, 3728369726, -6.797503471374512, -0.8474575281143188, 7.1177077293396, -2.6435256004333496, -1.3246634006500244, -2.473457098007202, 1.12109375, -0.41943359375, 0.05810546875
63, 3728386393, -6.793858528137207, -0.8967648148536682, 7.125820636749268, -2.670994997024536, -1.3329875469207764, -2.5081241130828857, 1.1201171875, -0.42041015625, 0.05810546875
64, 3728403060, -6.809188365936279, -0.9019761085510254, 7.13053035736084, -2.574626922607422, -1.423169732093811, -2.408234119415283, 1.1201171875, -0.41943359375, 0.05810546875
65, 3728419727, -6.8007731437683105, -0.9025333523750305, 7.123616695404053, -2.403930902481079, -1.5206514596939087, -2.3226492404937744, 1.1201171875, -0.418701171875, 0.056640625
66, 3728436394, -6.795980453491211, -0.8877254724502563, 7.121302127838135, -2.4186840057373047, -1.6085927486419678, -2.226755142211914, 1.119140625, -0.418701171875, 0.05859375
67, 3728453061, -6.805933475494385, -0.9024999737739563, 7.106960296630859, -2.364180326461792, -1.619119644165039, -2.121832847595215, 1.12109375, -0.418212890625, 0.05859375
68, 3728469728, -6.8038530349731445, -0.8809885382652283, 7.134589195251465, -2.3604538440704346, -1.5743870735168457, -2.1837007999420166, 1.11962890625, -0.418701171875, 0.056640625
69, 3728486395, -6.792482852935791, -0.8677548170089722, 7.138742446899414, -2.350682497024536, -1.4466694593429565, -2.261908769607544, 1.11865234375, -0.415771484375, 0.056396484375
70, 3728503062, -6.807160377502441, -0.8948566317558289, 7.116284370422363, -2.5088279247283936, -1.5092157125473022, -2.283257007598877, 1.1171875, -0.41943359375, 0.05712890625
71, 3728519729, -6.80579137802124, -0.8909726142883301, 7.1386027336120605, -2.401062488555908, -1.573298692703247, -2.2564151287078857, 1.117431640625, -0.418701171875, 0.0576171875
72, 3728536396, -6.804532051086426, -0.89815354347229, 7.124413013458252, -2.3960936069488525, -1.5005966424942017, -2.1795382499694824, 1.1201171875, -0.418701171875, 0.053955078125
73, 3728553063, -6.787114143371582, -0.8899856805801392, 7.114554405212402, -2.4121785163879395, -1.5207797288894653, -2.1930747032165527, 1.12109375, -0.417236328125, 0.05810546875
74, 3728569730, -6.810480117797852, -0.8858006000518799, 7.133366107940674, -2.2888529300689697, -1.6291213035583496, -2.1773226261138916, 1.12060546875, -0.418701171875, 0.0576171875
75, 3728586397, -6.801634788513184, -0.8987613320350647, 7.119102954864502, -2.3008530139923096, -1.6645054817199707, -2.279594659805298, 1.119140625, -0.418212890625, 0.05712890625
76, 3728603064, -6.805398464202881, -0.890731692314148, 7.120412826538086, -2.292707920074463, -1.6302484273910522, -2.223400115966797, 1.12060546875, -0.4189453125, 0.05908203125
77, 3728619731, -6.7937726974487305, -0.8794226050376892, 7.122611045837402, -2.3457648754119873, -1.4901597499847412, -2.1127147674560547, 1.119140625, -0.41943359375, 0.055908203125
78, 3728636398, -6.79652214050293, -0.8864945769309998, 7.128472805023193, -2.3339319229125977, -1.4773799180984497, -2.1589696407318115, 1.11962890625, -0.418212890625, 0.0576171875
79, 3728653065, -6.798788547515869, -0.8912863731384277, 7.149423599243164, -2.3092153072357178, -1.51455557346344, -2.1713550090789795, 1.1201171875, -0.418701171875, 0.0576171875
80, 3728669732, -6.802251815795898, -0.9017316102981567, 7.116008758544922, -2.4145607948303223, -1.465277075767517, -2.2461185455322266, 1.12060546875, -0.4189453125, 0.0576171875
81, 3728686399, -6.805469036102295, -0.8733142018318176, 7.121025562286377, -2.435255527496338, -1.531793236732483, -2.2446205615997314, 1.117919921875, -0.417236328125, 0.056884765625
82, 3728703066, -6.80964994430542, -0.8759093880653381, 7.107113361358643, -2.4471397399902344, -1.540796160697937, -2.2632405757904053, 1.11962890625, -0.418701171875, 0.05810546875
83, 3728719733, -6.801239490509033, -0.878056526184082, 7.142736434936523, -2.4759159088134766, -1.4926825761795044, -2.26129412651062, 1.1181640625, -0.4189453125, 0.05810546875
84, 3728736400, -6.784344673156738, -0.8928717374801636, 7.146008014678955, -2.484227418899536, -1.446656584739685, -2.2296626567840576, 1.119140625, -0.418701171875, 0.05712890625
85, 3728753067, -6.788168907165527, -0.8923380374908447, 7.141229152679443, -2.488337755203247, -1.4339784383773804, -2.3313064575195312, 1.11962890625, -0.4189453125, 0.05712890625
86, 3728769734, -6.794503688812256, -0.8753272294998169, 7.132864952087402, -2.630796194076538, -1.3604059219360352, -2.398668050765991, 1.11962890625, -0.417236328125, 0.05712890625
87, 3728786401, -6.812713146209717, -0.8901880979537964, 7.099172115325928, -2.6243796348571777, -1.3818819522857666, -2.412447452545166, 1.11767578125, -0.4189453125, 0.0576171875
88, 3728803068, -6.810578346252441, -0.8874016404151917, 7.119376182556152, -2.5952067375183105, -1.345985770225525, -2.354357957839966, 1.12060546875, -0.4189453125, 0.05712890625
89, 3728819735, -6.806186676025391, -0.881134033203125, 7.147312164306641, -2.700052499771118, -1.2944532632827759, -2.496905565261841, 1.119140625, -0.416259765625, 0.0576171875
90, 3728836402, -6.80756950378418, -0.8856220245361328, 7.108016490936279, -2.5818114280700684, -1.3549120426177979, -2.5380396842956543, 1.11962890625, -0.417724609375, 0.056640625
91, 3728853069, -6.784963607788086, -0.9019957184791565, 7.147543430328369, -2.7453742027282715, -1.3400052785873413, -2.5370922088623047, 1.1201171875, -0.417724609375, 0.056640625
92, 3728869736, -6.799117088317871, -0.9095917344093323, 7.108341217041016, -2.669586420059204, -1.4113367795944214, -2.4850213527679443, 1.1201171875, -0.418701171875, 0.05810546875
93, 3728886403, -6.805314064025879, -0.8933682441711426, 7.144236087799072, -2.6819186210632324, -1.3800891637802124, -2.4739949703216553, 1.12060546875, -0.4189453125, 0.056640625
94, 3728903070, -6.813304424285889, -0.901614785194397, 7.13525915145874, -2.5614750385284424, -1.3835853338241577, -2.4000766277313232, 1.11962890625, -0.418212890625, 0.0595703125
95, 3728919737, -6.823927402496338, -0.9058471918106079, 7.126246452331543, -2.531623363494873, -1.45037043094635, -2.33335542678833, 1.11962890625, -0.418701171875, 0.0576171875
96, 3728936404, -6.810709476470947, -0.9025800228118896, 7.129910469055176, -2.469576597213745, -1.531908392906189, -2.3719921112060547, 1.12060546875, -0.416259765625, 0.05859375
97, 3728953071, -6.81080436706543, -0.8877015709877014, 7.131545543670654, -2.4158284664154053, -1.668155312538147, -2.3513741493225098, 1.1220703125, -0.41943359375, 0.05615234375
98, 3728969738, -6.801177978515625, -0.8972595930099487, 7.112989902496338, -2.517920732498169, -1.6356912851333618, -2.3672542572021484, 1.12109375, -0.417724609375, 0.0576171875
99, 3728986405, -6.801789283752441, -0.8946020007133484, 7.114698886871338, -2.365051031112671, -1.7186760902404785, -2.346008062362671, 1.12109375, -0.419921875, 0.05810546875
100, 3729003072, -6.807317733764648, -0.8961911797523499, 7.120257377624512, -2.441556692123413, -1.7035521268844604, -2.3825321197509766, 1.1201171875, -0.418212890625, 0.056640625
101, 3729019739, -6.812188148498535, -0.9111115336418152, 7.135783672332764, -2.3979763984680176, -1.7636905908584595, -2.3377606868743896, 1.11767578125, -0.418212890625, 0.056396484375
102, 3729036406, -6.792640686035156, -0.9014672636985779, 7.1422343254089355, -2.2750227451324463, -1.7349146604537964, -2.242392063140869, 1.1201171875, -0.416748046875, 0.0576171875
103, 3729053073, -6.799697399139404, -0.8977291584014893, 7.122462272644043, -2.408733606338501, -1.758939504623413, -2.2957687377929688, 1.11962890625, -0.418701171875, 0.05712890625
104, 3729069740, -6.808257102966309, -0.8839496374130249, 7.137122631072998, -2.3750274181365967, -1.759643793106079, -2.3182568550109863, 1.11962890625, -0.417724609375, 0.05859375
105, 3729086407, -6.8035664558410645, -0.9062195420265198, 7.128541469573975, -2.4399940967559814, -1.6336036920547485, -2.2546987533569336, 1.1181640625, -0.418212890625, 0.05712890625
106, 3729103074, -6.813143730163574, -0.9120834469795227, 7.109097003936768, -2.4673097133636475, -1.6068384647369385, -2.317885398864746, 1.117431640625, -0.416748046875, 0.05810546875
107, 3729119741, -6.800174713134766, -0.9018750190734863, 7.121058464050293, -2.4994795322418213, -1.5599031448364258, -2.378638505935669, 1.1181640625, -0.417236328125, 0.0576171875
108, 3729136408, -6.816675662994385, -0.8900333046913147, 7.128983020782471, -2.511876344680786, -1.4952183961868286, -2.4541196823120117, 1.1181640625, -0.417236328125, 0.05712890625
109, 3729153075, -6.807008743286133, -0.8941879868507385, 7.132907390594482, -2.5726168155670166, -1.500699520111084, -2.4908227920532227, 1.12109375, -0.418701171875, 0.05859375
110, 3729169742, -6.810853004455566, -0.8917629718780518, 7.13399600982666, -2.5276918411254883, -1.5744000673294067, -2.463020086288452, 1.11962890625, -0.417724609375, 0.05712890625
111, 3729186409, -6.794010162353516, -0.925830602645874, 7.132389545440674, -2.4761080741882324, -1.5546143054962158, -2.438098907470703, 1.12158203125, -0.416259765625, 0.05712890625
112, 3729203076, -6.798567771911621, -0.9191256165504456, 7.148055076599121, -2.5213913917541504, -1.4823737144470215, -2.4693081378936768, 1.11865234375, -0.416259765625, 0.05810546875
113, 3729219743, -6.819478511810303, -0.8873270153999329, 7.137165069580078, -2.609729528427124, -1.4293808937072754, -2.637468099594116, 1.1201171875, -0.418212890625, 0.056640625
114, 3729236410, -6.809439659118652, -0.9146733283996582, 7.112091541290283, -2.671398401260376, -1.4105095863342285, -2.705115556716919, 1.12060546875, -0.415283203125, 0.05810546875
115, 3729253077, -6.795470714569092, -0.9032539129257202, 7.121382236480713, -2.7028701305389404, -1.3697417974472046, -2.713832378387451, 1.12109375, -0.414306640625, 0.0576171875
116, 3729269744, -6.805816173553467, -0.9120759963989258, 7.107418537139893, -2.747385025024414, -1.320322036743164, -2.6677422523498535, 1.119140625, -0.416748046875, 0.056396484375
117, 3729286411, -6.804375171661377, -0.9130626320838928, 7.1065192222595215, -2.758270263671875, -1.2450718879699707, -2.636021137237549, 1.117431640625, -0.416748046875, 0.05810546875
118, 3729303078, -6.789313793182373, -0.9342038035392761, 7.121106147766113, -2.6650912761688232, -1.2314330339431763, -2.5239267349243164, 1.118408203125, -0.416259765625, 0.056396484375
119, 3729319745, -6.80901575088501, -0.9243097901344299, 7.110754489898682, -2.635611057281494, -1.4273704290390015, -2.4084010124206543, 1.1201171875, -0.417236328125, 0.05712890625
120, 3729336412, -6.814004421234131, -0.9112450480461121, 7.100828647613525, -2.5168192386627197, -1.5089210271835327, -2.3609917163848877, 1.11962890625, -0.414306640625, 0.061767578125
121, 3729353079, -6.814180850982666, -0.9028551578521729, 7.1140828132629395, -2.4241271018981934, -1.5796377658843994, -2.4299793243408203, 1.119140625, -0.416259765625, 0.0576171875
122, 3729369746, -6.803506374359131, -0.9219161868095398, 7.110828399658203, -2.417595624923706, -1.6017669439315796, -2.360274314880371, 1.1201171875, -0.417236328125, 0.05810546875
123, 3729386413, -6.819805145263672, -0.9164029359817505, 7.127011299133301, -2.3936476707458496, -1.5709806680679321, -2.370058298110962, 1.12109375, -0.418701171875, 0.06005859375
124, 3729403080, -6.822779655456543, -0.9062135219573975, 7.112084865570068, -2.4878385066986084, -1.5061932802200317, -2.2980868816375732, 1.1201171875, -0.415771484375, 0.06005859375
125, 3729419747, -6.807430744171143, -0.9143707752227783, 7.107921123504639, -2.4394047260284424, -1.4820916652679443, -2.3274383544921875, 1.11865234375, -0.416748046875, 0.0576171875
126, 3729436414, -6.809325695037842, -0.9010612368583679, 7.112412452697754, -2.376756429672241, -1.5674717426300049, -2.3628487586975098, 1.11962890625, -0.415771484375, 0.05712890625
127, 3729453081, -6.811787128448486, -0.9095965623855591, 7.134892463684082, -2.4174675941467285, -1.6613678932189941, -2.2978689670562744, 1.119140625, -0.417724609375, 0.05859375
128, 3729469748, -6.801137924194336, -0.9010395407676697, 7.123575687408447, -2.478822708129883, -1.6167248487472534, -2.3374152183532715, 1.1201171875, -0.417724609375, 0.05712890625
129, 3729486415, -6.815621852874756, -0.9130033254623413, 7.105612277984619, -2.468334674835205, -1.6508796215057373, -2.4344234466552734, 1.11962890625, -0.415283203125, 0.05859375
130, 3729503082, -6.80567741394043, -0.9049486517906189, 7.117855548858643, -2.490861177444458, -1.5774993896484375, -2.457667112350464, 1.11962890625, -0.414306640625, 0.05712890625
131, 3729519749, -6.796271324157715, -0.9127675890922546, 7.119345664978027, -2.5471580028533936, -1.4756501913070679, -2.5277178287506104, 1.119140625, -0.415771484375, 0.0576171875
132, 3729536416, -6.81488037109375, -0.9115804433822632, 7.117491245269775, -2.540843963623047, -1.5056684017181396, -2.475390672683716, 1.12060546875, -0.414306640625, 0.05712890625
133, 3729553083, -6.813090801239014, -0.9228832721710205, 7.123613357543945, -2.5093917846679688, -1.5437928438186646, -2.483548641204834, 1.12109375, -0.416259765625, 0.055908203125
134, 3729569750, -6.808050155639648, -0.9145278334617615, 7.113829612731934, -2.5053322315216064, -1.6707934141159058, -2.5369255542755127, 1.119140625, -0.415771484375, 0.0576171875
135, 3729586417, -6.807504653930664, -0.9067901372909546, 7.134280681610107, -2.513195514678955, -1.6389057636260986, -2.4327969551086426, 1.11962890625, -0.414794921875, 0.05712890625
136, 3729603084, -6.804121494293213, -0.9066321849822998, 7.119363307952881, -2.4484848976135254, -1.6643006801605225, -2.5203282833099365, 1.1181640625, -0.416259765625, 0.05908203125
137, 3729619751, -6.794172763824463, -0.9006991982460022, 7.116572856903076, -2.4585378170013428, -1.6797194480895996, -2.4948949813842773, 1.117919921875, -0.415283203125, 0.055908203125
138, 3729636418, -6.794485092163086, -0.9006754755973816, 7.117270469665527, -2.4160335063934326, -1.6516735553741455, -2.493537425994873, 1.117919921875, -0.414794921875, 0.05859375
139, 3729653085, -6.798602104187012, -0.9179404973983765, 7.126461505889893, -2.497468948364258, -1.5803675651550293, -2.5324044227600098, 1.119140625, -0.414306640625, 0.0576171875
140, 3729669752, -6.815546989440918, -0.9121599197387695, 7.122795104980469, -2.549988031387329, -1.5343931913375854, -2.6372251510620117, 1.118408203125, -0.414794921875, 0.05810546875
141, 3729686419, -6.812771320343018, -0.9297887086868286, 7.1158905029296875, -2.595296621322632, -1.5475707054138184, -2.6006627082824707, 1.1201171875, -0.416748046875, 0.05859375
142, 3729703086, -6.796172142028809, -0.9496740102767944, 7.102011680603027, -2.526808500289917, -1.5514768362045288, -2.4193761348724365, 1.12060546875, -0.413818359375, 0.0576171875
143, 3729719753, -6.799166679382324, -0.9296095967292786, 7.1160407066345215, -2.5211477279663086, -1.488917589187622, -2.3110086917877197, 1.12060546875, -0.414794921875, 0.05712890625
144, 3729736420, -6.805759429931641, -0.9294191002845764, 7.1047444343566895, -2.502892255783081, -1.4493651390075684, -2.1269619464874268, 1.12060546875, -0.41357421875, 0.0576171875
145, 3729753087, -6.814366340637207, -0.9252562522888184, 7.110490798950195, -2.4757232666015625, -1.5410263538360596, -2.1126632690429688, 1.12158203125, -0.414306640625, 0.055419921875
146, 3729769754, -6.789618492126465, -0.9281511902809143, 7.123207092285156, -2.4331424236297607, -1.5763336420059204, -2.1488800048828125, 1.1201171875, -0.415771484375, 0.055908203125
147, 3729786421, -6.816099166870117, -0.9237443804740906, 7.102940559387207, -2.296114444732666, -1.5993465185165405, -2.0958614349365234, 1.1181640625, -0.416259765625, 0.05859375
148, 3729803088, -6.810654640197754, -0.9212227463722229, 7.121772289276123, -2.297241449356079, -1.5866682529449463, -2.0992424488067627, 1.119140625, -0.414306640625, 0.0576171875
149, 3729819755, -6.809234619140625, -0.9128373265266418, 7.117500305175781, -2.219827175140381, -1.6436054706573486, -2.0892152786254883, 1.12060546875, -0.415771484375, 0.0576171875
150, 3729836422, -6.81223201751709, -0.9195050001144409, 7.133985996246338, -2.2507474422454834, -1.5630747079849243, -2.0378031730651855, 1.1220703125, -0.414306640625, 0.056640625
151, 3729853089, -6.8076090812683105, -0.9162613153457642, 7.103968143463135, -2.2779805660247803, -1.605660080909729, -1.9792468547821045, 1.1220703125, -0.415283203125, 0.056640625
152, 3729869756, -6.798628330230713, -0.9201515913009644, 7.142889976501465, -2.2865097522735596, -1.5579437017440796, -2.020944595336914, 1.1201171875, -0.417236328125, 0.056396484375
153, 3729886423, -6.799557209014893, -0.9131261706352234, 7.118322372436523, -2.319767713546753, -1.4115285873413086, -2.0944271087646484, 1.12060546875, -0.415771484375, 0.056640625
154, 3729903090, -6.81390905380249, -0.9415997266769409, 7.1074066162109375, -2.307678461074829, -1.5240195989608765, -2.0984227657318115, 1.118896484375, -0.414306640625, 0.0576171875
155, 3729919757, -6.81359338760376, -0.9240462779998779, 7.123851299285889, -2.277609348297119, -1.6609708070755005, -2.052499294281006, 1.11865234375, -0.415283203125, 0.0595703125
156, 3729936424, -6.815319061279297, -0.9145078659057617, 7.110672950744629, -2.381174325942993, -1.7417277097702026, -2.0560853481292725, 1.11865234375, -0.414794921875, 0.05859375
157, 3729953091, -6.7939910888671875, -0.9112706780433655, 7.103900909423828, -2.256478786468506, -1.6448986530303955, -2.0933642387390137, 1.12109375, -0.416748046875, 0.05859375
158, 3729969758, -6.813021183013916, -0.9133595824241638, 7.125062465667725, -2.2636756896972656, -1.6149190664291382, -2.1480729579925537, 1.119140625, -0.416259765625, 0.05810546875
159, 3729986425, -6.805444717407227, -0.909083366394043, 7.133530139923096, -2.3729143142700195, -1.59853994846344, -2.2102608680725098, 1.11962890625, -0.416748046875, 0.05712890625
160, 3730003092, -6.806339263916016, -0.9188534617424011, 7.126918792724609, -2.318103313446045, -1.5375689268112183, -2.153733491897583, 1.12060546875, -0.415283203125, 0.0576171875
161, 3730019759, -6.802684783935547, -0.9265448451042175, 7.0912017822265625, -2.358366012573242, -1.5157465934753418, -2.139556884765625, 1.11865234375, -0.416259765625, 0.0576171875
162, 3730036426, -6.803441047668457, -0.8994999527931213, 7.108001232147217, -2.3035552501678467, -1.5639883279800415, -2.1032254695892334, 1.11962890625, -0.415771484375, 0.05712890625
163, 3730053093, -6.805965423583984, -0.9102522134780884, 7.120856285095215, -2.4374711513519287, -1.509971022605896, -2.1965837478637695, 1.119140625, -0.417724609375, 0.056396484375
164, 3730069760, -6.804481029510498, -0.9125637412071228, 7.1237993240356445, -2.410936117172241, -1.521048665046692, -2.1567559242248535, 1.1201171875, -0.415771484375, 0.05712890625
165, 3730086427, -6.807987689971924, -0.9236546158790588, 7.131415843963623, -2.435307025909424, -1.6014213562011719, -2.247732162475586, 1.119140625, -0.414794921875, 0.05712890625
166, 3730103094, -6.7928009033203125, -0.9178440570831299, 7.13412618637085, -2.311558961868286, -1.5695204734802246, -2.2285354137420654, 1.117919921875, -0.416259765625, 0.05908203125
167, 3730119761, -6.8057942390441895, -0.9196272492408752, 7.120707988739014, -2.2562098503112793, -1.5945314168930054, -2.151120662689209, 1.117919921875, -0.415283203125, 0.056884765625
168, 3730136428, -6.796167850494385, -0.9042868614196777, 7.127071857452393, -2.367048740386963, -1.5484157800674438, -2.0677132606506348, 1.11865234375, -0.416748046875, 0.0595703125
169, 3730153095, -6.807729721069336, -0.9227662086486816, 7.125435829162598, -2.3590574264526367, -1.5605560541152954, -2.068622589111328, 1.12060546875, -0.416748046875, 0.05859375
170, 3730169762, -6.804995059967041, -0.9213308691978455, 7.117660045623779, -2.2741129398345947, -1.5480698347091675, -2.0266687870025635, 1.11865234375, -0.416748046875, 0.056396484375
171, 3730186429, -6.801856517791748, -0.9078702926635742, 7.121181011199951, -2.327733278274536, -1.4419949054718018, -2.093197822570801, 1.11962890625, -0.41357421875, 0.05810546875
172, 3730203096, -6.816030502319336, -0.9071345925331116, 7.117764949798584, -2.274625301361084, -1.4241173267364502, -2.1466002464294434, 1.11962890625, -0.414794921875, 0.0576171875
173, 3730219763, -6.809051036834717, -0.9201645255088806, 7.126778602600098, -2.29879093170166, -1.5509897470474243, -2.0802505016326904, 1.11962890625, -0.415283203125, 0.0595703125
174, 3730236430, -6.7966179847717285, -0.9176694750785828, 7.130460739135742, -2.227651596069336, -1.6093354225158691, -1.9886595010757446, 1.12109375, -0.415771484375, 0.0595703125
175, 3730253097, -6.811992168426514, -0.9086993932723999, 7.094248294830322, -2.1818435192108154, -1.6788870096206665, -2.009265184402466, 1.11865234375, -0.416259765625, 0.05810546875
176, 3730269764, -6.800825119018555, -0.9180657863616943, 7.102778911590576, -2.1966347694396973, -1.637778401374817, -2.0465312004089355, 1.11962890625, -0.416259765625, 0.056640625
177, 3730286431, -6.807270050048828, -0.8978634476661682, 7.142144680023193, -2.2745869159698486, -1.6644285917282104, -2.113368034362793, 1.11962890625, -0.415771484375, 0.05859375
178, 3730303098, -6.8024516105651855, -0.8966649174690247, 7.116839408874512, -2.3016083240509033, -1.7045378684997559, -2.184084415435791, 1.11865234375, -0.416259765625, 0.05810546875
179, 3730319765, -6.806377410888672, -0.9181354641914368, 7.122170448303223, -2.354729175567627, -1.711799144744873, -2.2073280811309814, 1.12158203125, -0.415771484375, 0.05615234375
180, 3730336432, -6.791513442993164, -0.9061244130134583, 7.111501216888428, -2.2489871978759766, -1.7537273168563843, -2.157473087310791, 1.118408203125, -0.415771484375, 0.056396484375
181, 3730353099, -6.794908046722412, -0.9110803604125977, 7.121845245361328, -2.2552623748779297, -1.735721468925476, -2.119502305984497, 1.119140625, -0.418212890625, 0.0576171875
182, 3730369766, -6.808194160461426, -0.9086471796035767, 7.141020774841309, -2.2907228469848633, -1.6305683851242065, -2.153336524963379, 1.119140625, -0.416259765625, 0.056884765625
183, 3730386433, -6.8078484535217285, -0.9001337289810181, 7.121953010559082, -2.3283092975616455, -1.6747503280639648, -2.1039295196533203, 1.11767578125, -0.417724609375, 0.05859375
184, 3730403100, -6.794591426849365, -0.9009662866592407, 7.138361930847168, -2.342127561569214, -1.5787283182144165, -2.154015302658081, 1.119140625, -0.415771484375, 0.056884765625
185, 3730419767, -6.804862022399902, -0.9035253524780273, 7.110520839691162, -2.345982551574707, -1.5367107391357422, -2.19797945022583, 1.12109375, -0.416748046875, 0.055908203125
186, 3730436434, -6.811018466949463, -0.8885543346405029, 7.114748001098633, -2.395015239715576, -1.5622042417526245, -2.2832353115081787, 1.119140625, -0.415771484375, 0.05859375
187, 3730453101, -6.798949718475342, -0.9085134863853455, 7.132950305938721, -2.3593008518218994, -1.5841069221496582, -2.393890857696533, 1.12158203125, -0.417724609375, 0.05712890625
188, 3730469768, -6.797202110290527, -0.9188960790634155, 7.104029178619385, -2.3318185806274414, -1.6150470972061157, -2.2144482135772705, 1.12060546875, -0.415771484375, 0.056640625
189, 3730486435, -6.788896560668945, -0.9104434251785278, 7.122603416442871, -2.266979932785034, -1.590010643005371, -2.1943933963775635, 1.119140625, -0.418212890625, 0.056396484375
190, 3730503102, -6.808801174163818, -0.9068242907524109, 7.128820419311523, -2.3962090015411377, -1.5655763149261475, -2.2068159580230713, 1.1201171875, -0.417236328125, 0.0576171875
191, 3730519769, -6.799045085906982, -0.9020286202430725, 7.130597114562988, -2.292003870010376, -1.5366082191467285, -2.208519220352173, 1.117919921875, -0.414794921875, 0.05859375
192, 3730536436, -6.809010982513428, -0.904717206954956, 7.1382222175598145, -2.419004440307617, -1.6112182140350342, -2.2776734828948975, 1.12109375, -0.416748046875, 0.05859375
193, 3730553103, -6.806716442108154, -0.9093295335769653, 7.1366753578186035, -2.360607385635376, -1.5602872371673584, -2.2319931983947754, 1.1201171875, -0.415283203125, 0.05712890625
194, 3730569770, -6.807683944702148, -0.8946061134338379, 7.128088474273682, -2.3778960704803467, -1.5835692882537842, -2.2757909297943115, 1.11962890625, -0.416259765625, 0.056396484375
195, 3730586437, -6.7986674308776855, -0.9165806770324707, 7.119824409484863, -2.407376289367676, -1.695906400680542, -2.253891706466675, 1.1181640625, -0.416259765625, 0.05810546875
196, 3730603104, -6.804752826690674, -0.895966649055481, 7.1306471824646, -2.391214370727539, -1.6711772680282593, -2.2721152305603027, 1.11962890625, -0.418212890625, 0.05712890625
197, 3730619771, -6.794478893280029, -0.9011703729629517, 7.141928195953369, -2.3790483474731445, -1.614022970199585, -2.188387393951416, 1.117919921875, -0.416748046875, 0.057373046875
198, 3730636438, -6.804646968841553, -0.9090773463249207, 7.132102966308594, -2.4000253677368164, -1.6680911779403687, -2.2082629203796387, 1.119140625, -0.418212890625, 0.056640625
199, 3730653105, -6.801244258880615, -0.9077246785163879, 7.141399383544922, -2.399704933166504, -1.6441174745559692, -2.2974205017089844, 1.1220703125, -0.416259765625, 0.05712890625
200, 3730669772, -6.803745746612549, -0.9062064290046692, 7.129446506500244, -2.494292974472046, -1.5613245964050293, -2.2853188514709473, 1.117919921875, -0.417236328125, 0.056396484375
201, 3730686439, -6.80019998550415, -0.9083701968193054, 7.127822399139404, -2.491142749786377, -1.6817171573638916, -2.255557060241699, 1.119140625, -0.418212890625, 0.05712890625
202, 3730703106, -6.806035041809082, -0.9139511585235596, 7.1134419441223145, -2.4294795989990234, -1.6111540794372559, -2.296088695526123, 1.117919921875, -0.416748046875, 0.0576171875
203, 3730719773, -6.811704158782959, -0.897681713104248, 7.155763149261475, -2.349132776260376, -1.5555232763290405, -2.224731922149658, 1.115966796875, -0.415771484375, 0.057861328125
204, 3730736440, -6.819268226623535, -0.9053325653076172, 7.12968635559082, -2.4360368251800537, -1.565998911857605, -2.296229839324951, 1.116943359375, -0.417724609375, 0.054931640625
205, 3730753107, -6.8000288009643555, -0.8981103301048279, 7.131159782409668, -2.4300177097320557, -1.4958966970443726, -2.2971131801605225, 1.1201171875, -0.415771484375, 0.05712890625
206, 3730769774, -6.792857646942139, -0.9045288562774658, 7.138086318969727, -2.4584736824035645, -1.551514983177185, -2.3362369537353516, 1.1181640625, -0.416748046875, 0.056396484375
207, 3730786441, -6.803731918334961, -0.8966092467308044, 7.1137285232543945, -2.4851362705230713, -1.5886150598526, -2.233363389968872, 1.1201171875, -0.417236328125, 0.05810546875
208, 3730803108, -6.806077480316162, -0.9127421975135803, 7.128598690032959, -2.3757057189941406, -1.5647950172424316, -2.2186741828918457, 1.1201171875, -0.415283203125, 0.056640625
209, 3730819775, -6.810571670532227, -0.8964095115661621, 7.1365203857421875, -2.31321120262146, -1.5659605264663696, -2.218597650527954, 1.12060546875, -0.416748046875, 0.056640625
210, 3730836442, -6.8085761070251465, -0.9137924313545227, 7.114134788513184, -2.4697816371917725, -1.6474345922470093, -2.2187001705169678, 1.119140625, -0.418212890625, 0.05810546875
211, 3730853109, -6.819459915161133, -0.9058330059051514, 7.11978816986084, -2.4500086307525635, -1.5440105199813843, -2.223656177520752, 1.12158203125, -0.418701171875, 0.0576171875
212, 3730869776, -6.813658237457275, -0.8965676426887512, 7.1191325187683105, -2.4008703231811523, -1.561132550239563, -2.374310255050659, 1.119140625, -0.416259765625, 0.0576171875
213, 3730886443, -6.7894744873046875, -0.9092399477958679, 7.127903938293457, -2.397169589996338, -1.5519120693206787, -2.2175350189208984, 1.11865234375, -0.416748046875, 0.055419921875
214, 3730903110, -6.796638488769531, -0.9093931913375854, 7.147305011749268, -2.397425889968872, -1.5030686855316162, -2.2712576389312744, 1.12109375, -0.416259765625, 0.05615234375
215, 3730919777, -6.809697151184082, -0.9173558354377747, 7.1187334060668945, -2.312532663345337, -1.5847986936569214, -2.2024104595184326, 1.119140625, -0.415771484375, 0.05810546875
216, 3730936444, -6.808349609375, -0.8984307646751404, 7.1187334060668945, -2.3293211460113525, -1.661956787109375, -2.2051894664764404, 1.115966796875, -0.416259765625, 0.056884765625
217, 3730953111, -6.809617519378662, -0.905553936958313, 7.111310005187988, -2.3579819202423096, -1.7213271856307983, -2.238140344619751, 1.11962890625, -0.417236328125, 0.05908203125
218, 3730969778, -6.795394420623779, -0.9187697172164917, 7.125321865081787, -2.318833351135254, -1.7175109386444092, -2.253700017929077, 1.119140625, -0.417236328125, 0.05712890625
219, 3730986445, -6.797689914703369, -0.9114664196968079, 7.109189033508301, -2.3154778480529785, -1.6872750520706177, -2.193138837814331, 1.1201171875, -0.416748046875, 0.056640625
220, 3731003112, -6.799401760101318, -0.8936523795127869, 7.108978748321533, -2.459254741668701, -1.5086520910263062, -2.2095947265625, 1.1201171875, -0.416259765625, 0.05712890625
221, 3731019779, -6.804264068603516, -0.9060889482498169, 7.11055850982666, -2.492785930633545, -1.491811990737915, -2.2764997482299805, 1.1201171875, -0.415771484375, 0.05810546875
222, 3731036446, -6.806362152099609, -0.9125125408172607, 7.1097307205200195, -2.4183766841888428, -1.5350332260131836, -2.298022508621216, 1.12060546875, -0.418212890625, 0.053955078125
223, 3731053113, -6.810641288757324, -0.9093855619430542, 7.13450288772583, -2.436971664428711, -1.574899435043335, -2.227447271347046, 1.11962890625, -0.41943359375, 0.05712890625
224, 3731069780, -6.793586730957031, -0.9017845988273621, 7.126014709472656, -2.39784836769104, -1.6935502290725708, -2.2722437381744385, 1.11962890625, -0.415283203125, 0.056884765625
225, 3731086447, -6.799334526062012, -0.912092387676239, 7.134101390838623, -2.345982551574707, -1.690758466720581, -2.254058599472046, 1.11865234375, -0.4189453125, 0.056640625
226, 3731103114, -6.810150146484375, -0.8961295485496521, 7.092091083526611, -2.380021810531616, -1.7558274269104004, -2.3020823001861572, 1.119140625, -0.417724609375, 0.0576171875
227, 3731119781, -6.801972389221191, -0.8989726305007935, 7.11693811416626, -2.2834362983703613, -1.656821608543396, -2.3027610778808594, 1.11865234375, -0.416748046875, 0.0576171875
228, 3731136448, -6.797014236450195, -0.899147093296051, 7.147384166717529, -2.425676107406616, -1.5999999046325684, -2.387218952178955, 1.11865234375, -0.417724609375, 0.056396484375
229, 3731153115, -6.802964687347412, -0.9046730995178223, 7.111108779907227, -2.4047508239746094, -1.5512973070144653, -2.3640010356903076, 1.12158203125, -0.416259765625, 0.0576171875
230, 3731169782, -6.791771411895752, -0.8964334726333618, 7.137384414672852, -2.443873882293701, -1.5528979301452637, -2.36246395111084, 1.1181640625, -0.418701171875, 0.05712890625
231, 3731186449, -6.796263694763184, -0.8955140709877014, 7.127832412719727, -2.431567430496216, -1.4552240371704102, -2.2902493476867676, 1.11962890625, -0.416259765625, 0.056396484375
232, 3731203116, -6.815755844116211, -0.9041851162910461, 7.121764183044434, -2.398744583129883, -1.5769739151000977, -2.325530529022217, 1.11962890625, -0.416748046875, 0.05859375
233, 3731219783, -6.8050456047058105, -0.9137025475502014, 7.127587795257568, -2.4669387340545654, -1.5305510759353638, -2.3123021125793457, 1.1201171875, -0.415283203125, 0.056396484375
234, 3731236450, -6.818876266479492, -0.8953805565834045, 7.1241021156311035, -2.4839322566986084, -1.506513237953186, -2.207545757293701, 1.12060546875, -0.416748046875, 0.0576171875
235, 3731253117, -6.801881313323975, -0.8968355059623718, 7.130746364593506, -2.441415309906006, -1.5381449460983276, -2.2861766815185547, 1.1181640625, -0.416259765625, 0.0576171875
236, 3731269784, -6.795775890350342, -0.9134188294410706, 7.119961261749268, -2.384286403656006, -1.678016185760498, -2.2416234016418457, 1.12060546875, -0.417724609375, 0.055908203125
237, 3731286451, -6.80219841003418, -0.9008888602256775, 7.128869533538818, -2.4216041564941406, -1.6021897792816162, -2.244953155517578, 1.11962890625, -0.417236328125, 0.056640625
238, 3731303118, -6.797795295715332, -0.9045592546463013, 7.121554851531982, -2.3655381202697754, -1.5789847373962402, -2.2202625274658203, 1.12060546875, -0.415771484375, 0.05810546875
239, 3731319785, -6.802791595458984, -0.9130472540855408, 7.102295398712158, -2.4015748500823975, -1.509702205657959, -2.2351949214935303, 1.11865234375, -0.416748046875, 0.054931640625
240, 3731336452, -6.797338962554932, -0.893680214881897, 7.113755226135254, -2.410360097885132, -1.5218042135238647, -2.377460479736328, 1.1201171875, -0.418212890625, 0.0576171875
241, 3731353119, -6.800660133361816, -0.8993151783943176, 7.132745265960693, -2.4539401531219482, -1.497933268547058, -2.3064749240875244, 1.119140625, -0.416259765625, 0.056884765625
242, 3731369786, -6.802201747894287, -0.9026738405227661, 7.131252288818359, -2.4305813312530518, -1.5143252611160278, -2.3348922729492188, 1.1201171875, -0.4189453125, 0.05615234375
243, 3731386453, -6.789700508117676, -0.8932986259460449, 7.121685028076172, -2.452467441558838, -1.5034399032592773, -2.315938711166382, 1.1201171875, -0.414794921875, 0.05908203125
244, 3731403120, -6.805301189422607, -0.907189667224884, 7.1305718421936035, -2.4100656509399414, -1.5255564451217651, -2.2862279415130615, 1.1181640625, -0.416748046875, 0.05859375
245, 3731419787, -6.800118446350098, -0.8987950086593628, 7.1270012855529785, -2.426393508911133, -1.5178343057632446, -2.2729992866516113, 1.11767578125, -0.417724609375, 0.0595703125
246, 3731436454, -6.80932092666626, -0.9024072289466858, 7.111311435699463, -2.45218563079834, -1.6347945928573608, -2.3448939323425293, 1.117431640625, -0.415771484375, 0.057373046875
247, 3731453121, -6.80303955078125, -0.89943927526474, 7.134862422943115, -2.4717283248901367, -1.4958841800689697, -2.3048996925354004, 1.11962890625, -0.418212890625, 0.05810546875
248, 3731469788, -6.800192356109619, -0.8914394378662109, 7.09328031539917, -2.4684882164001465, -1.563719391822815, -2.3116230964660645, 1.12158203125, -0.416748046875, 0.05810546875
249, 3731486455, -6.800128936767578, -0.8965027332305908, 7.12148904800415, -2.4335520267486572, -1.4293678998947144, -2.240649938583374, 1.11865234375, -0.418212890625, 0.055908203125
250, 3731503122, -6.803223133087158, -0.912553608417511, 7.136366844177246, -2.380777359008789, -1.4647903442382812, -2.304605007171631, 1.119140625, -0.415771484375, 0.0576171875
251, 3731519789, -6.817641258239746, -0.9085270166397095, 7.10703706741333, -2.346315383911133, -1.559544563293457, -2.2100942134857178, 1.119140625, -0.417724609375, 0.056640625
252, 3731536456, -6.807077884674072, -0.9064587950706482, 7.1314311027526855, -2.3242242336273193, -1.586335301399231, -2.277020215988159, 1.119140625, -0.417724609375, 0.056640625
253, 3731553123, -6.796844959259033, -0.9109073281288147, 7.12661600112915, -2.412050247192383, -1.6569366455078125, -2.205061197280884, 1.1181640625, -0.416259765625, 0.0576171875
254, 3731569790, -6.7904462814331055, -0.897383987903595, 7.103325366973877, -2.417057514190674, -1.581865906715393, -2.2782111167907715, 1.1201171875, -0.415771484375, 0.05859375
255, 3731586457, -6.813942909240723, -0.9033231735229492, 7.123603820800781, -2.377819299697876, -1.4956408739089966, -2.2222859859466553, 1.117919921875, -0.415771484375, 0.05810546875
256, 3731603124, -6.7870869636535645, -0.9043644666671753, 7.129451751708984, -2.4119350910186768, -1.5401686429977417, -2.1549885272979736, 1.118408203125, -0.415771484375, 0.055419921875
257, 3731619791, -6.8014326095581055, -0.9030287265777588, 7.121302127838135, -2.5017623901367188, -1.516705870628357, -2.1616077423095703, 1.1181640625, -0.417236328125, 0.05712890625
258, 3731636458, -6.811920642852783, -0.9078118205070496, 7.132645130157471, -2.350400686264038, -1.4757013320922852, -2.210209608078003, 1.11865234375, -0.415283203125, 0.05908203125
259, 3731653125, -6.799348831176758, -0.9052794575691223, 7.137558460235596, -2.369636058807373, -1.5371718406677246, -2.233914375305176, 1.11962890625, -0.416259765625, 0.056640625
260, 3731669792, -6.807949542999268, -0.8966841697692871, 7.121445178985596, -2.359762191772461, -1.5308200120925903, -2.2188920974731445, 1.11962890625, -0.415283203125, 0.056884765625
261, 3731686459, -6.811428546905518, -0.9079161882400513, 7.111943244934082, -2.343933582305908, -1.6098862886428833, -2.2316598892211914, 1.11962890625, -0.413818359375, 0.05712890625
262, 3731703126, -6.805894374847412, -0.8875990509986877, 7.103092193603516, -2.389267921447754, -1.6210919618606567, -2.284127712249756, 1.1201171875, -0.415771484375, 0.056396484375
263, 3731719793, -6.801254749298096, -0.9152404069900513, 7.136551856994629, -2.351053476333618, -1.6741483211517334, -2.306320905685425, 1.11865234375, -0.417724609375, 0.060546875
264, 3731736460, -6.7925591468811035, -0.9095869064331055, 7.13223934173584, -2.319883108139038, -1.6633657217025757, -2.2977027893066406, 1.118408203125, -0.415283203125, 0.054443359375
265, 3731753127, -6.806026458740234, -0.907813310623169, 7.1330342292785645, -2.379739761352539, -1.548927903175354, -2.276994466781616, 1.11865234375, -0.417236328125, 0.056884765625
266, 3731769794, -6.8078694343566895, -0.9053891897201538, 7.131153583526611, -2.3570854663848877, -1.4729222059249878, -2.212693691253662, 1.1201171875, -0.417236328125, 0.05712890625
267, 3731786461, -6.803951740264893, -0.891188383102417, 7.127408504486084, -2.3254411220550537, -1.5736571550369263, -2.230149030685425, 1.119140625, -0.416748046875, 0.05810546875
268, 3731803128, -6.781712532043457, -0.9023917317390442, 7.131418228149414, -2.394134044647217, -1.541192889213562, -2.225820302963257, 1.11865234375, -0.416748046875, 0.054931640625
269, 3731819795, -6.796112537384033, -0.9024254679679871, 7.134047985076904, -2.2716286182403564, -1.6189916133880615, -2.215216875076294, 1.119140625, -0.416748046875, 0.055419921875
270, 3731836462, -6.81571102142334, -0.8976395130157471, 7.128239154815674, -2.3893446922302246, -1.515144944190979, -2.2094666957855225, 1.12109375, -0.416748046875, 0.0576171875
271, 3731853129, -6.793017864227295, -0.8897337913513184, 7.12910270690918, -2.404827356338501, -1.452636957168579, -2.2566452026367188, 1.1181640625, -0.416748046875, 0.0576171875
272, 3731869796, -6.796860694885254, -0.905580461025238, 7.121287822723389, -2.3387210369110107, -1.5258893966674805, -2.1821506023406982, 1.1201171875, -0.416748046875, 0.05712890625
273, 3731886463, -6.798593044281006, -0.9039710164070129, 7.138514995574951, -2.3793301582336426, -1.4521888494491577, -2.280606269836426, 1.1201171875, -0.416259765625, 0.056640625
274, 3731903130, -6.7973198890686035, -0.8947634696960449, 7.125160217285156, -2.4447576999664307, -1.5162333250045776, -2.3324973583221436, 1.117919921875, -0.416259765625, 0.056396484375
275, 3731919797, -6.798557281494141, -0.918522834777832, 7.125827312469482, -2.5075342655181885, -1.5146582126617432, -2.272512197494507, 1.1201171875, -0.417724609375, 0.05908203125
276, 3731936464, -6.790809631347656, -0.9000120759010315, 7.125508785247803, -2.3766536712646484, -1.4143075942993164, -2.267390012741089, 1.11865234375, -0.417236328125, 0.055419921875
277, 3731953131, -6.8046746253967285, -0.900243878364563, 7.137946605682373, -2.4146504402160645, -1.545367956161499, -2.227229595184326, 1.12109375, -0.415283203125, 0.055419921875
278, 3731969798, -6.80867338180542, -0.8966399431228638, 7.129108428955078, -2.448535442352295, -1.5304099321365356, -2.2598211765289307, 1.11865234375, -0.416259765625, 0.05810546875
279, 3731986465, -6.800995826721191, -0.9069885611534119, 7.1266889572143555, -2.4283018112182617, -1.5623620748519897, -2.265866279602051, 1.12060546875, -0.417724609375, 0.055419921875
280, 3732003132, -6.808289527893066, -0.8947935104370117, 7.113638401031494, -2.361541986465454, -1.6088488101959229, -2.2725634574890137, 1.11962890625, -0.416748046875, 0.053466796875
281, 3732019799, -6.799901485443115, -0.9022024869918823, 7.1358137130737305, -2.369802236557007, -1.4685169458389282, -2.266557455062866, 1.119140625, -0.417724609375, 0.056396484375
282, 3732036466, -6.813253879547119, -0.9063217639923096, 7.139987945556641, -2.436497688293457, -1.5611324310302734, -2.20613694190979, 1.119140625, -0.414306640625, 0.056884765625
283, 3732053133, -6.798895835876465, -0.9017643928527832, 7.139098167419434, -2.352705717086792, -1.5542041063308716, -2.1605722904205322, 1.11962890625, -0.415771484375, 0.056396484375
284, 3732069800, -6.796372890472412, -0.9014537334442139, 7.132930755615234, -2.388090133666992, -1.4876625537872314, -2.230802059173584, 1.119140625, -0.418701171875, 0.054931640625
285, 3732086467, -6.811183452606201, -0.9003379940986633, 7.116517543792725, -2.4442200660705566, -1.4524577856063843, -2.230635643005371, 1.1201171875, -0.4189453125, 0.0576171875
286, 3732103134, -6.801454544067383, -0.9001584649085999, 7.126433849334717, -2.4035210609436035, -1.4329535961151123, -2.208838939666748, 1.11767578125, -0.417724609375, 0.0576171875
287, 3732119801, -6.815883636474609, -0.8893437385559082, 7.143548965454102, -2.398155689239502, -1.4401509761810303, -2.2313144207000732, 1.11865234375, -0.416259765625, 0.05712890625
288, 3732136468, -6.792900562286377, -0.9078742861747742, 7.1364264488220215, -2.369917392730713, -1.5829674005508423, -2.2629716396331787, 1.11962890625, -0.416259765625, 0.055908203125
289, 3732153135, -6.788275241851807, -0.921712338924408, 7.14040994644165, -2.395094871520996, -1.592943549156189, -2.3350203037261963, 1.119140625, -0.416748046875, 0.055419921875
290, 3732169802, -6.8070292472839355, -0.9085920453071594, 7.129848003387451, -2.336134433746338, -1.601357340812683, -2.257721424102783, 1.12060546875, -0.417236328125, 0.056640625
291, 3732186469, -6.802490234375, -0.906864583492279, 7.1240057945251465, -2.372145891189575, -1.624856948852539, -2.2121689319610596, 1.117919921875, -0.415771484375, 0.055908203125
292, 3732203136, -6.792973518371582, -0.8976250290870667, 7.138146877288818, -2.462148904800415, -1.5679328441619873, -2.1529526710510254, 1.119140625, -0.415771484375, 0.05712890625
293, 3732219803, -6.816384792327881, -0.8934347033500671, 7.118858814239502, -2.4822726249694824, -1.4718095064163208, -2.282518148422241, 1.11962890625, -0.413818359375, 0.05712890625
294, 3732236470, -6.796487808227539, -0.8957129120826721, 7.1091389656066895, -2.500119686126709, -1.4183545112609863, -2.3407704830169678, 1.1201171875, -0.416259765625, 0.05712890625
295, 3732253137, -6.809348106384277, -0.904895544052124, 7.120777130126953, -2.474417209625244, -1.4183417558670044, -2.312032699584961, 1.1201171875, -0.416259765625, 0.05712890625
296, 3732269804, -6.809823513031006, -0.9088999629020691, 7.100369930267334, -2.4708313941955566, -1.3958536386489868, -2.339886426925659, 1.11865234375, -0.416748046875, 0.05810546875
297, 3732286471, -6.800028324127197, -0.9080637097358704, 7.133635520935059, -2.5037951469421387, -1.5071666240692139, -2.3100223541259766, 1.119140625, -0.416259765625, 0.05712890625
298, 3732303138, -6.797652244567871, -0.9112585186958313, 7.123300552368164, -2.4538118839263916, -1.5513356924057007, -2.1945221424102783, 1.12109375, -0.416259765625, 0.05615234375
299, 3732319805, -6.798061847686768, -0.8965587019920349, 7.1083245277404785, -2.44754958152771, -1.5938785076141357, -2.2854084968566895, 1.11865234375, -0.416259765625, 0.055908203125
300, 3732336472, -6.800374984741211, -0.9102731347084045, 7.107680797576904, -2.4193758964538574, -1.5854518413543701, -2.293245792388916, 1.12109375, -0.417236328125, 0.06005859375
301, 3732353139, -6.806970119476318, -0.8984653949737549, 7.123901844024658, -2.410949230194092, -1.611525535583496, -2.378100872039795, 1.1201171875, -0.415283203125, 0.05908203125
302, 3732369806, -6.80232048034668, -0.8986795544624329, 7.116990089416504, -2.4300687313079834, -1.5494786500930786, -2.3010194301605225, 1.1201171875, -0.417724609375, 0.055419921875
303, 3732386473, -6.807698726654053, -0.8974179625511169, 7.123671531677246, -2.457371950149536, -1.4707452058792114, -2.2726147174835205, 1.12158203125, -0.416748046875, 0.05859375
304, 3732403140, -6.810064792633057, -0.9082671999931335, 7.123826503753662, -2.417531728744507, -1.467991828918457, -2.3116614818573, 1.12255859375, -0.417236328125, 0.05859375
305, 3732419807, -6.810235500335693, -0.8971363306045532, 7.103270053863525, -2.3951845169067383, -1.5242502689361572, -2.2513434886932373, 1.119140625, -0.417236328125, 0.055908203125
306, 3732436474, -6.806005477905273, -0.9080111980438232, 7.110069274902344, -2.4969310760498047, -1.4318013191223145, -2.340014934539795, 1.119140625, -0.416748046875, 0.055419921875
307, 3732453141, -6.807974338531494, -0.9084475040435791, 7.11091423034668, -2.437675952911377, -1.506820797920227, -2.2558770179748535, 1.11962890625, -0.416748046875, 0.055908203125
308, 3732469808, -6.823304653167725, -0.9128105044364929, 7.1298956871032715, -2.4408650398254395, -1.547365665435791, -2.276175022125244, 1.11865234375, -0.417236328125, 0.05712890625
309, 3732486475, -6.795966625213623, -0.901893138885498, 7.115803241729736, -2.4788739681243896, -1.4480267763137817, -2.242917060852051, 1.119140625, -0.417724609375, 0.05859375
310, 3732503142, -6.807164192199707, -0.9074944257736206, 7.09493350982666, -2.479219675064087, -1.397108793258667, -2.241072654724121, 1.1201171875, -0.415283203125, 0.056396484375
311, 3732519809, -6.808891773223877, -0.9127236008644104, 7.131843090057373, -2.4304020404815674, -1.4224398136138916, -2.3103039264678955, 1.1201171875, -0.414794921875, 0.0576171875
312, 3732536476, -6.802848815917969, -0.922221839427948, 7.120935916900635, -2.459254503250122, -1.5283865928649902, -2.2346439361572266, 1.119140625, -0.416259765625, 0.056396484375
313, 3732553143, -6.802521705627441, -0.9001069068908691, 7.123939037322998, -2.4825241565704346, -1.455966830253601, -2.2539048194885254, 1.117431640625, -0.415771484375, 0.057373046875
314, 3732569810, -6.803833961486816, -0.9104352593421936, 7.133100509643555, -2.4866344928741455, -1.4524835348129272, -2.268798589706421, 1.1181640625, -0.416259765625, 0.056884765625
315, 3732586477, -6.800811290740967, -0.8993932008743286, 7.116891860961914, -2.5173184871673584, -1.4506648778915405, -2.2874443531036377, 1.1201171875, -0.416259765625, 0.0595703125
316, 3732603144, -6.809478759765625, -0.9104737639427185, 7.115584373474121, -2.49579119682312, -1.5180776119232178, -2.367676258087158, 1.11865234375, -0.415283203125, 0.05712890625
317, 3732619811, -6.8135809898376465, -0.9229978322982788, 7.142684459686279, -2.520340919494629, -1.4757013320922852, -2.402496814727783, 1.12060546875, -0.415283203125, 0.056396484375
318, 3732636478, -6.807141304016113, -0.9084450006484985, 7.112893581390381, -2.499812364578247, -1.4150505065917969, -2.3774607181549072, 1.116943359375, -0.417236328125, 0.057373046875
319, 3732653145, -6.809691905975342, -0.9110386967658997, 7.119175910949707, -2.5395119190216064, -1.4710654020309448, -2.438636541366577, 1.12060546875, -0.415283203125, 0.05908203125
320, 3732669812, -6.801807880401611, -0.9314431548118591, 7.108994007110596, -2.506074905395508, -1.552385926246643, -2.4666571617126465, 1.1201171875, -0.418212890625, 0.05615234375
321, 3732686479, -6.813085556030273, -0.8898687362670898, 7.127224922180176, -2.5940160751342773, -1.6011780500411987, -2.5324690341949463, 1.11962890625, -0.416259765625, 0.05810546875
322, 3732703146, -6.808497905731201, -0.9074910879135132, 7.12041711807251, -2.6966331005096436, -1.5076658725738525, -2.700333833694458, 1.12060546875, -0.416259765625, 0.056640625
323, 3732719813, -6.796666145324707, -0.9244793057441711, 7.113752365112305, -2.762854814529419, -1.6488815546035767, -2.740328550338745, 1.119140625, -0.414794921875, 0.05712890625
324, 3732736480, -6.80393648147583, -0.933561384677887, 7.1036787033081055, -2.644127368927002, -1.566741943359375, -2.5502824783325195, 1.11962890625, -0.414306640625, 0.05712890625
325, 3732753147, -6.804173469543457, -0.9266636967658997, 7.112215995788574, -2.528498888015747, -1.5959148406982422, -2.360440969467163, 1.11962890625, -0.415283203125, 0.0576171875
326, 3732769814, -6.800224781036377, -0.9252236485481262, 7.096696853637695, -2.3596725463867188, -1.6360496282577515, -2.207507371902466, 1.11962890625, -0.415283203125, 0.05810546875
327, 3732786481, -6.805020332336426, -0.9016152620315552, 7.130797386169434, -2.372197151184082, -1.6131007671356201, -2.2393438816070557, 1.119140625, -0.415771484375, 0.05712890625
328, 3732803148, -6.816046714782715, -0.9029731750488281, 7.143684387207031, -2.589111566543579, -1.4429428577423096, -2.4999279975891113, 1.118408203125, -0.413818359375, 0.0576171875
329, 3732819815, -6.809203147888184, -0.943289577960968, 7.124039649963379, -2.7059733867645264, -1.364524483680725, -2.575535774230957, 1.12060546875, -0.414794921875, 0.05908203125
330, 3732836482, -6.796742916107178, -0.9373797178268433, 7.120441913604736, -2.6787173748016357, -1.3387119770050049, -2.54352068901062, 1.119140625, -0.414794921875, 0.056884765625
331, 3732853149, -6.820111274719238, -0.9234445691108704, 7.1199541091918945, -2.640016555786133, -1.412489414215088, -2.524247169494629, 1.12109375, -0.414306640625, 0.05712890625
332, 3732869816, -6.797918796539307, -0.9356065988540649, 7.106577396392822, -2.5758183002471924, -1.507538080215454, -2.4552979469299316, 1.118408203125, -0.414794921875, 0.057373046875
333, 3732886483, -6.808222770690918, -0.9209808707237244, 7.119805812835693, -2.5811715126037598, -1.53309965133667, -2.344433546066284, 1.12109375, -0.415283203125, 0.055419921875
334, 3732903150, -6.790413856506348, -0.9064622521400452, 7.119790077209473, -2.5858585834503174, -1.4725511074066162, -2.4569883346557617, 1.118896484375, -0.414306640625, 0.05810546875
335, 3732919817, -6.812081813812256, -0.9278648495674133, 7.113868713378906, -2.5247721672058105, -1.4953207969665527, -2.4269957542419434, 1.12060546875, -0.414306640625, 0.055419921875
336, 3732936484, -6.818487167358398, -0.9398230910301208, 7.1402363777160645, -2.501221179962158, -1.5387470722198486, -2.4672458171844482, 1.11865234375, -0.414794921875, 0.0576171875
337, 3732953151, -6.804926872253418, -0.9309139251708984, 7.105616569519043, -2.499440908432007, -1.599500298500061, -2.3447020053863525, 1.11962890625, -0.414306640625, 0.0576171875
338, 3732969818, -6.82056999206543, -0.9145349860191345, 7.132147312164307, -2.4628148078918457, -1.4680942296981812, -2.380380153656006, 1.12109375, -0.41357421875, 0.055908203125
339, 3732986485, -6.800693511962891, -0.9229631423950195, 7.109958648681641, -2.4939212799072266, -1.4692083597183228, -2.4089512825012207, 1.11962890625, -0.41357421875, 0.05810546875
340, 3733003152, -6.801633358001709, -0.9040263295173645, 7.133479595184326, -2.520507574081421, -1.476892352104187, -2.4155468940734863, 1.11865234375, -0.414794921875, 0.0595703125
341, 3733019819, -6.809504985809326, -0.9135719537734985, 7.102112770080566, -2.573615074157715, -1.5042208433151245, -2.360811710357666, 1.118896484375, -0.414794921875, 0.056884765625
342, 3733036486, -6.808804512023926, -0.9292492866516113, 7.1086626052856445, -2.4974687099456787, -1.3654515743255615, -2.3225085735321045, 1.1201171875, -0.415771484375, 0.0595703125
343, 3733053153, -6.817263126373291, -0.9344731569290161, 7.100053310394287, -2.5196239948272705, -1.3300418853759766, -2.26828670501709, 1.11962890625, -0.413818359375, 0.056884765625
344, 3733069820, -6.807194709777832, -0.9268078207969666, 7.10311222076416, -2.508584976196289, -1.4589507579803467, -2.2587201595306396, 1.118408203125, -0.41259765625, 0.05859375
345, 3733086487, -6.801843166351318, -0.936282753944397, 7.118724346160889, -2.4838554859161377, -1.475188970565796, -2.254070997238159, 1.12158203125, -0.416259765625, 0.05859375
346, 3733103154, -6.804547309875488, -0.9062625169754028, 7.098484992980957, -2.384094476699829, -1.4780577421188354, -2.210068702697754, 1.12060546875, -0.414794921875, 0.05908203125
347, 3733119821, -6.806509971618652, -0.9253667593002319, 7.118024826049805, -2.5074830055236816, -1.4784929752349854, -2.2575416564941406, 1.117919921875, -0.41259765625, 0.057373046875
348, 3733136488, -6.806450843811035, -0.9462519288063049, 7.099072456359863, -2.3716206550598145, -1.4236947298049927, -2.187490940093994, 1.12060546875, -0.413818359375, 0.060546875
349, 3733153155, -6.80095911026001, -0.9765936136245728, 7.082400321960449, -2.1972107887268066, -1.6717408895492554, -1.7637544870376587, 1.12060546875, -0.415771484375, 0.0595703125
350, 3733169822, -6.780163764953613, -0.9821333885192871, 7.107655048370361, -1.7168831825256348, -2.0315096378326416, -1.245699167251587, 1.119140625, -0.415283203125, 0.056884765625
351, 3733186489, -6.806642532348633, -0.8801245093345642, 7.137479782104492, -1.4424431324005127, -2.0673160552978516, -0.9929657578468323, 1.118408203125, -0.414306640625, 0.057373046875
352, 3733203156, -6.8126325607299805, -0.873841404914856, 7.140490531921387, -1.7045122385025024, -1.8401188850402832, -1.3129069805145264, 1.11865234375, -0.414794921875, 0.057373046875
353, 3733219823, -6.821095943450928, -0.8759127855300903, 7.143433570861816, -1.907249927520752, -1.7723989486694336, -1.6274821758270264, 1.12060546875, -0.415283203125, 0.05712890625
354, 3733236490, -6.815558910369873, -0.8694018721580505, 7.1384968757629395, -2.310342311859131, -1.571723222732544, -2.0869100093841553, 1.11962890625, -0.416748046875, 0.05712890625
355, 3733253157, -6.8242034912109375, -0.8533194065093994, 7.1260881423950195, -2.9052486419677734, -1.2761656045913696, -2.7640585899353027, 1.119140625, -0.416259765625, 0.056396484375
356, 3733269824, -6.843672752380371, -0.9171395897865295, 7.114992141723633, -3.1095616817474365, -1.2742191553115845, -3.1001744270324707, 1.119140625, -0.415283203125, 0.05859375
357, 3733286491, -6.8231520652771, -0.9515732526779175, 7.1428632736206055, -2.9755940437316895, -1.4565685987472534, -3.030456066131592, 1.119140625, -0.415771484375, 0.05810546875
358, 3733303158, -6.813445091247559, -0.9317221641540527, 7.119778156280518, -2.7831783294677734, -1.7364256381988525, -2.7838315963745117, 1.119140625, -0.415283203125, 0.0595703125
359, 3733319825, -6.802671909332275, -0.9151736497879028, 7.136430263519287, -2.687899112701416, -1.7658419609069824, -2.656229019165039, 1.118896484375, -0.413818359375, 0.05810546875
360, 3733336492, -6.796797275543213, -0.9083637595176697, 7.149883270263672, -2.7477047443389893, -1.6889396905899048, -2.6661412715911865, 1.118408203125, -0.414794921875, 0.057373046875
361, 3733353159, -6.8022050857543945, -0.9325451254844666, 7.137111186981201, -2.7996599674224854, -1.4926440715789795, -2.6971323490142822, 1.11865234375, -0.416748046875, 0.0576171875
362, 3733369826, -6.794997692108154, -0.9278021454811096, 7.13029670715332, -2.920487880706787, -1.1723573207855225, -2.7313127517700195, 1.116455078125, -0.41259765625, 0.058349609375
363, 3733386493, -6.795928001403809, -0.9413092732429504, 7.106066703796387, -2.8971939086914062, -0.8579744100570679, -2.7317612171173096, 1.12158203125, -0.4130859375, 0.056640625
364, 3733403160, -6.787147045135498, -0.9436822533607483, 7.133457183837891, -2.831573724746704, -0.5386223196983337, -2.357264995574951, 1.11962890625, -0.4130859375, 0.0595703125
365, 3733419827, -6.796280860900879, -0.9448955059051514, 7.141016006469727, -2.9345784187316895, 0.2030005007982254, -2.153207302093506, 1.11962890625, -0.414306640625, 0.05908203125
366, 3733436494, -6.792840957641602, -0.8978446125984192, 7.147225856781006, -3.309647798538208, 0.7668635845184326, -2.121333599090576, 1.1220703125, -0.414794921875, 0.0576171875
367, 3733453161, -6.785912990570068, -0.9412863254547119, 7.119749546051025, -3.328319549560547, 1.2086186408996582, -1.9717555046081543, 1.1220703125, -0.4130859375, 0.0595703125
368, 3733469828, -6.787440299987793, -0.9228737950325012, 7.148940563201904, -3.4887192249298096, 2.621812582015991, -1.9083770513534546, 1.1220703125, -0.41357421875, 0.061279296875
369, 3733486495, -6.809676170349121, -0.9588493704795837, 7.105865478515625, -3.6327779293060303, 3.6276488304138184, -1.7678272724151611, 1.12158203125, -0.413818359375, 0.06005859375
370, 3733503162, -6.831774711608887, -0.9502843022346497, 7.092784881591797, -3.359848737716675, 3.9009106159210205, -1.6732908487319946, 1.1220703125, -0.414794921875, 0.063232421875
371, 3733519829, -6.8847880363464355, -0.9111607670783997, 7.056332588195801, -3.2595489025115967, 3.977146625518799, -1.8208198547363281, 1.12353515625, -0.414794921875, 0.065185546875
372, 3733536496, -6.893199443817139, -0.8798666000366211, 6.9968647956848145, -2.9374048709869385, 3.4231691360473633, -1.9540951251983643, 1.123046875, -0.414794921875, 0.068359375
373, 3733553163, -6.948776721954346, -0.9109110236167908, 6.950364112854004, -2.745335817337036, 2.025087594985962, -2.2195327281951904, 1.125244140625, -0.414794921875, 0.0673828125
374, 3733569830, -6.956594944000244, -1.0504565238952637, 6.862973213195801, -2.2287018299102783, -1.2989609241485596, -2.5326476097106934, 1.127197265625, -0.414306640625, 0.068603515625
375, 3733586497, -6.898157119750977, -0.9900803565979004, 7.031772613525391, -1.3761836290359497, -6.206227779388428, -2.7464890480041504, 1.12451171875, -0.41259765625, 0.06689453125
376, 3733603164, -6.779974937438965, -0.5464645028114319, 7.1263628005981445, -0.7436395287513733, -12.199424743652344, -4.762837886810303, 1.12158203125, -0.414794921875, 0.06591796875
377, 3733619831, -6.64701509475708, -0.47364896535873413, 7.0298285484313965, -3.067213535308838, -14.338310241699219, -7.741676330566406, 1.12109375, -0.412109375, 0.061767578125
378, 3733636498, -6.624403953552246, -0.4743843376636505, 7.275471210479736, -13.32209587097168, -8.048816680908203, -12.605476379394531, 1.119873046875, -0.40966796875, 0.057861328125
379, 3733653165, -6.7320332527160645, -1.711595892906189, 7.056455612182617, -17.76161766052246, 3.918064594268799, -11.555649757385254, 1.119384765625, -0.405029296875, 0.058349609375
380, 3733669832, -6.800248146057129, -1.938277006149292, 6.9131293296813965, -7.895678997039795, 3.7324047088623047, -3.6863081455230713, 1.118896484375, -0.40283203125, 0.0625
381, 3733686499, -6.839443206787109, -1.1769331693649292, 7.097923278808594, -0.5662328004837036, -1.4021929502487183, 0.18230481445789337, 1.119384765625, -0.404541015625, 0.06298828125
382, 3733703166, -6.903886795043945, -0.8402441740036011, 7.16763162612915, -0.13711757957935333, -1.4471558332443237, -0.8421711325645447, 1.120361328125, -0.403564453125, 0.064697265625
383, 3733719833, -6.928714752197266, -1.185205340385437, 7.010295867919922, -1.4902620315551758, -0.7320493459701538, -1.9827046394348145, 1.120361328125, -0.404052734375, 0.065185546875
384, 3733736500, -6.980290412902832, -1.290654182434082, 7.019862651824951, -0.03738173842430115, -3.363933801651001, -0.16182105243206024, 1.121826171875, -0.400390625, 0.065673828125
385, 3733753167, -6.887577533721924, -1.3129240274429321, 6.960867404937744, 2.083061933517456, -6.479821681976318, 2.415668487548828, 1.119384765625, -0.40234375, 0.064697265625
386, 3733769834, -6.717150688171387, -1.181912899017334, 7.046820163726807, 3.6544525623321533, -8.301565170288086, 4.061041831970215, 1.11669921875, -0.40283203125, 0.06201171875
387, 3733786501, -6.756115913391113, -0.9331231713294983, 7.255377769470215, 2.379849433898926, -5.94204568862915, 3.7962448596954346, 1.117431640625, -0.403564453125, 0.060546875
388, 3733803168, -6.75034761428833, -1.2943615913391113, 7.127893447875977, 1.2909761667251587, -3.980854034423828, 4.059081554412842, 1.11474609375, -0.406005859375, 0.060546875
389, 3733819835, -6.83643102645874, -1.2225009202957153, 7.1224493980407715, 2.2013542652130127, -3.3361828327178955, 6.847614288330078, 1.115478515625, -0.408203125, 0.0595703125
390, 3733836502, -6.838465213775635, -1.2873650789260864, 7.142004489898682, 2.590245008468628, -1.6460903882980347, 9.260627746582031, 1.11279296875, -0.41162109375, 0.06103515625
391, 3733853169, -6.830135822296143, -1.3527776002883911, 7.171515941619873, 3.0263657569885254, 0.6755288243293762, 12.221354484558105, 1.116943359375, -0.415283203125, 0.0625
392, 3733869836, -6.819965362548828, -1.4199471473693848, 6.989979267120361, 3.8852899074554443, 0.9802821278572083, 15.737320899963379, 1.115478515625, -0.42138671875, 0.0615234375
393, 3733886503, -6.864248752593994, -0.501526415348053, 7.082775115966797, 5.278469085693359, -2.2596569061279297, 16.32500648498535, 1.11572265625, -0.424560546875, 0.061767578125
394, 3733903170, -6.782939910888672, -0.5968850255012512, 7.269847393035889, 5.488825798034668, -3.532545328140259, 14.74659538269043, 1.1162109375, -0.43017578125, 0.063720703125
395, 3733919837, -6.76305627822876, -0.6727790236473083, 7.283193588256836, 6.090007305145264, -2.2161026000976562, 15.538912773132324, 1.115234375, -0.437255859375, 0.063720703125
396, 3733936504, -6.82598352432251, -0.19607920944690704, 7.258974552154541, 5.302824974060059, -1.1344385147094727, 14.283592224121094, 1.116455078125, -0.43994140625, 0.06494140625
397, 3733953171, -6.8148698806762695, 0.4104699492454529, 7.307508945465088, 1.6564570665359497, 1.1491461992263794, 9.44278335571289, 1.117431640625, -0.44482421875, 0.06689453125
398, 3733969838, -6.8598246574401855, 0.7089765667915344, 7.202142715454102, -5.304839611053467, 6.292087554931641, -0.13340377807617188, 1.117431640625, -0.4443359375, 0.071533203125
399, 3733986505, -6.907299995422363, 0.40516236424446106, 7.2338175773620605, -10.695067405700684, 9.870266914367676, -9.244950294494629, 1.1201171875, -0.44384765625, 0.07080078125
400, 3734003172, -6.951736927032471, -0.13677310943603516, 7.041388511657715, -13.859607696533203, 11.52950668334961, -15.224191665649414, 1.119873046875, -0.438720703125, 0.0751953125
401, 3734019839, -7.042574405670166, -0.4510326385498047, 6.862648010253906, -13.544204711914062, 8.065744400024414, -16.72132682800293, 1.12255859375, -0.43359375, 0.076904296875
402, 3734036506, -7.053868293762207, -0.30674803256988525, 6.962155342102051, -11.92461109161377, 1.5542255640029907, -17.048553466796875, 1.120849609375, -0.428466796875, 0.0771484375
403, 3734053173, -7.0203142166137695, -0.37640106678009033, 7.0459303855896, -10.856614112854004, -3.164799690246582, -18.048643112182617, 1.123291015625, -0.42431640625, 0.0732421875
404, 3734069840, -6.976974010467529, -1.0115700960159302, 7.048318862915039, -11.193846702575684, -6.482470989227295, -18.96105194091797, 1.122802734375, -0.418212890625, 0.072998046875
405, 3734086507, -6.867474555969238, -1.7522681951522827, 6.9975199699401855, -9.110655784606934, -8.166108131408691, -15.957938194274902, 1.12060546875, -0.41357421875, 0.071533203125
406, 3734103174, -6.744785308837891, -1.7182782888412476, 7.117389678955078, -4.932446479797363, -8.267964363098145, -10.177802085876465, 1.11865234375, -0.41357421875, 0.068359375
407, 3734119841, -6.780044078826904, -1.2440974712371826, 7.202945709228516, -2.2057533264160156, -5.1301350593566895, -5.7423930168151855, 1.118896484375, -0.41259765625, 0.068359375
408, 3734136508, -6.783874988555908, -0.6227749586105347, 7.133859157562256, -3.996965169906616, -1.8950968980789185, -6.642142295837402, 1.118408203125, -0.4091796875, 0.06982421875
409, 3734153175, -6.817028045654297, -0.6785857677459717, 7.1476054191589355, -6.991258144378662, 1.3998305797576904, -9.324485778808594, 1.119384765625, -0.408447265625, 0.0693359375
410, 3734169842, -6.898536205291748, -0.8067989945411682, 7.1026482582092285, -9.387253761291504, 4.318349361419678, -10.928781509399414, 1.123046875, -0.40869140625, 0.0703125
411, 3734186509, -6.9207844734191895, -1.211430549621582, 6.993890285491943, -10.26420783996582, 5.612701416015625, -11.498177528381348, 1.120849609375, -0.403564453125, 0.0712890625
412, 3734203176, -6.967179775238037, -1.4094038009643555, 6.9304070472717285, -9.406526565551758, 4.34730339050293, -9.648719787597656, 1.12353515625, -0.404052734375, 0.072509765625
413, 3734219843, -6.891780376434326, -1.567812442779541, 6.852232456207275, -6.790402412414551, -0.18584580719470978, -6.935293674468994, 1.122314453125, -0.40234375, 0.074462890625
414, 3734236510, -6.820414066314697, -1.3347498178482056, 6.906155586242676, -3.6013381481170654, -3.86144757270813, -3.4872210025787354, 1.122314453125, -0.40234375, 0.0712890625
415, 3734253177, -6.7416558265686035, -1.047014594078064, 7.134273052215576, -2.888023853302002, -3.213369131088257, -2.193164110183716, 1.12255859375, -0.404052734375, 0.0703125
416, 3734269844, -6.798356056213379, -1.0338834524154663, 7.074016094207764, -3.954562187194824, -0.696319580078125, -2.7786061763763428, 1.120849609375, -0.404052734375, 0.0693359375
417, 3734286511, -6.863338947296143, -1.0906763076782227, 7.069840908050537, -5.154595375061035, 0.76044762134552, -3.909971237182617, 1.12353515625, -0.404052734375, 0.06884765625
418, 3734303178, -6.885540008544922, -1.3430720567703247, 6.986116409301758, -6.164580821990967, 2.0091822147369385, -4.2771806716918945, 1.12353515625, -0.40234375, 0.06982421875
419, 3734319845, -6.892986297607422, -1.3400236368179321, 6.8580241203308105, -4.219782829284668, 0.026515550911426544, -2.085347890853882, 1.1240234375, -0.40087890625, 0.072021484375
420, 3734336512, -7.024069309234619, -1.1702053546905518, 6.866788387298584, -2.0305240154266357, -3.1613247394561768, -0.6950775980949402, 1.122802734375, -0.400390625, 0.073486328125
421, 3734353179, -6.977398872375488, -0.933726966381073, 7.0661163330078125, -1.1028060913085938, -4.972654819488525, -1.0059003829956055, 1.121337890625, -0.4013671875, 0.07080078125
422, 3734369846, -6.977132320404053, -0.8932137489318848, 7.132981300354004, -2.1144051551818848, -3.7457807064056396, -2.6538729667663574, 1.120849609375, -0.404052734375, 0.06982421875
423, 3734386513, -6.973180294036865, -0.8986454606056213, 7.135743618011475, -3.655214309692383, -2.121166944503784, -4.560546398162842, 1.120849609375, -0.40087890625, 0.0712890625
424, 3734403180, -6.864027500152588, -1.022939920425415, 7.091363906860352, -4.368438720703125, -0.5310537815093994, -5.332321643829346, 1.120361328125, -0.40283203125, 0.07177734375
425, 3734419847, -6.729462623596191, -1.023734211921692, 7.079146385192871, -3.632187843322754, -0.07750403136014938, -4.937539577484131, 1.122802734375, -0.3994140625, 0.0703125
426, 3734436514, -6.765115261077881, -1.1775749921798706, 6.937808036804199, -2.0846176147460938, 0.23475958406925201, -3.5302622318267822, 1.122802734375, -0.3994140625, 0.0703125
427, 3734453181, -6.8451433181762695, -1.1893401145935059, 6.895754814147949, -0.07863099128007889, -0.4642045795917511, -2.1511340141296387, 1.12353515625, -0.40087890625, 0.07177734375
428, 3734469848, -6.8430914878845215, -1.216461181640625, 6.941305637359619, 1.0881105661392212, -1.0676524639129639, -1.2555087804794312, 1.12451171875, -0.40087890625, 0.06982421875
429, 3734486515, -6.826763153076172, -1.1661489009857178, 6.977327823638916, 2.1409974098205566, -2.247373342514038, -0.6436343193054199, 1.12353515625, -0.40283203125, 0.06982421875
430, 3734503182, -6.864906311035156, -1.029146671295166, 7.006218433380127, 2.111953020095825, -2.8364531993865967, -0.7037986516952515, 1.12353515625, -0.404541015625, 0.0703125
431, 3734519849, -6.860434055328369, -1.0682134628295898, 7.014168739318848, 0.9180935621261597, -2.5840649604797363, -1.7091096639633179, 1.121337890625, -0.404052734375, 0.06982421875
432, 3734536516, -6.849961280822754, -1.1080338954925537, 7.022281169891357, -0.04812626168131828, -2.3676252365112305, -2.117427349090576, 1.12353515625, -0.40283203125, 0.0673828125
433, 3734553183, -6.826961040496826, -1.1588382720947266, 7.035107135772705, -0.6163568496704102, -1.8435382843017578, -2.0005056858062744, 1.12353515625, -0.405029296875, 0.0703125
434, 3734569850, -6.877193450927734, -1.102170705795288, 7.049458026885986, -0.47834280133247375, -1.7128493785858154, -1.2517311573028564, 1.123046875, -0.405029296875, 0.06884765625
435, 3734586517, -6.9124345779418945, -1.080700159072876, 7.008725166320801, -0.7948645353317261, -1.9153562784194946, -0.9595798254013062, 1.12451171875, -0.404052734375, 0.066162109375
436, 3734603184, -6.921085834503174, -0.9779711961746216, 7.063601493835449, -1.3395441770553589, -1.6760308742523193, -1.3987478017807007, 1.1220703125, -0.405029296875, 0.067138671875
437, 3734619851, -6.898533821105957, -0.9202809929847717, 7.084200859069824, -1.9204400777816772, -1.020284652709961, -1.9838534593582153, 1.1220703125, -0.406494140625, 0.06787109375
438, 3734636518, -6.888028144836426, -1.0350641012191772, 7.06417179107666, -2.1166207790374756, -0.6152170300483704, -2.2690932750701904, 1.123046875, -0.405517578125, 0.06689453125
439, 3734653185, -6.860055446624756, -1.117202877998352, 7.034291744232178, -2.136317253112793, -0.6952952742576599, -2.048478364944458, 1.12548828125, -0.405029296875, 0.06640625
440, 3734669852, -6.879208087921143, -1.11689031124115, 7.004201412200928, -1.8576889038085938, -0.9326351284980774, -1.5635656118392944, 1.12353515625, -0.405517578125, 0.066650390625
441, 3734686519, -6.888400554656982, -1.098231554031372, 6.964544296264648, -1.6625971794128418, -1.67758047580719, -1.2471592426300049, 1.123046875, -0.405517578125, 0.0703125
442, 3734703186, -6.854039192199707, -1.099104404449463, 7.012478351593018, -1.1259342432022095, -1.8790884017944336, -0.8443353772163391, 1.1220703125, -0.408447265625, 0.0712890625
443, 3734719853, -6.876408576965332, -0.9754638671875, 7.036139011383057, -0.9651504755020142, -1.6352810859680176, -0.7158620953559875, 1.12158203125, -0.40869140625, 0.0693359375
444, 3734736520, -6.880173206329346, -0.9496567249298096, 7.050676345825195, -1.3832778930664062, -1.1910803318023682, -1.2819156646728516, 1.125, -0.407958984375, 0.06787109375
445, 3734753187, -6.871610641479492, -0.9912025332450867, 7.058196067810059, -2.208749532699585, -0.352213054895401, -2.068904161453247, 1.12451171875, -0.406005859375, 0.06884765625
446, 3734769854, -6.909596920013428, -1.0044881105422974, 7.03660249710083, -2.8971171379089355, 0.22163313627243042, -2.6314749717712402, 1.125, -0.408935546875, 0.06640625
447, 3734786521, -6.893076419830322, -1.0623431205749512, 7.01256799697876, -2.814131498336792, -0.2132897675037384, -2.510159969329834, 1.125, -0.407958984375, 0.0703125
448, 3734803188, -6.884647369384766, -1.0363807678222656, 7.026937961578369, -2.8144257068634033, -0.3846130669116974, -2.525770664215088, 1.12451171875, -0.407470703125, 0.0703125
449, 3734819855, -6.89784574508667, -1.031589150428772, 7.001916408538818, -2.938532590866089, -0.12933135032653809, -2.63169264793396, 1.125, -0.408935546875, 0.071044921875
450, 3734836522, -6.900895118713379, -1.0415681600570679, 7.0308732986450195, -2.8567512035369873, -0.1448270082473755, -2.5000686645507812, 1.12255859375, -0.407470703125, 0.0703125
451, 3734853189, -6.901915073394775, -1.0485832691192627, 7.031277656555176, -2.7351036071777344, -0.1983831822872162, -2.2964987754821777, 1.1259765625, -0.406982421875, 0.072021484375
452, 3734869856, -6.9155144691467285, -1.057417869567871, 6.979918956756592, -2.856264352798462, -0.02426803484559059, -2.294065475463867, 1.1259765625, -0.408447265625, 0.070068359375
453, 3734886523, -6.901645660400391, -1.047498106956482, 6.978881359100342, -2.5883426666259766, -0.26013538241386414, -2.084566593170166, 1.12548828125, -0.408447265625, 0.071533203125
454, 3734903190, -6.912250518798828, -1.084244966506958, 6.998767852783203, -2.2478601932525635, -0.1015927717089653, -1.8389405012130737, 1.12451171875, -0.4091796875, 0.072509765625
455, 3734919857, -6.938258647918701, -1.0445739030838013, 6.985706329345703, -2.0478761196136475, -0.19620607793331146, -1.4658019542694092, 1.126220703125, -0.407958984375, 0.072998046875
456, 3734936524, -6.920229911804199, -1.0590643882751465, 6.992194175720215, -1.7514605522155762, -0.8082472085952759, -1.2237491607666016, 1.125732421875, -0.40966796875, 0.072021484375
457, 3734953191, -6.9179582595825195, -1.066807508468628, 6.992853164672852, -1.4103375673294067, -1.091677188873291, -0.9012211561203003, 1.12548828125, -0.406982421875, 0.073974609375
458, 3734969858, -6.936717510223389, -0.9995264410972595, 7.011133193969727, -1.3322190046310425, -0.7741950750350952, -0.8575132489204407, 1.12548828125, -0.407470703125, 0.072021484375
459, 3734986525, -6.927391052246094, -0.9637987017631531, 7.021918296813965, -1.7092124223709106, -0.39684316515922546, -1.257698893547058, 1.126220703125, -0.41064453125, 0.073974609375
460, 3735003192, -6.93807315826416, -1.0154762268066406, 7.0083088874816895, -1.8496724367141724, -0.06442874670028687, -1.4648160934448242, 1.125732421875, -0.408935546875, 0.074462890625
461, 3735019859, -6.930263042449951, -1.0331143140792847, 6.969623565673828, -1.618274450302124, -0.14159980416297913, -1.3148791790008545, 1.1259765625, -0.408447265625, 0.07470703125
462, 3735036526, -6.9342169761657715, -1.017310380935669, 6.995299339294434, -1.719419002532959, -0.17439688742160797, -1.4387551546096802, 1.128173828125, -0.4111328125, 0.073486328125
463, 3735053193, -6.941304683685303, -1.0607670545578003, 6.937225341796875, -1.42462956905365, -0.7512460350990295, -1.2370293140411377, 1.126220703125, -0.408935546875, 0.074462890625
464, 3735069860, -6.9352617263793945, -1.025221824645996, 6.974408149719238, -0.995360791683197, -1.5150808095932007, -0.886263370513916, 1.12548828125, -0.407958984375, 0.074462890625
465, 3735086527, -6.917903900146484, -1.0107901096343994, 6.990262985229492, -0.9279609322547913, -1.7849748134613037, -0.6478476524353027, 1.127197265625, -0.41162109375, 0.07373046875
466, 3735103194, -6.942320346832275, -0.946700394153595, 6.98967170715332, -1.175200343132019, -1.6018950939178467, -0.8709086775779724, 1.126220703125, -0.4130859375, 0.07763671875
467, 3735119861, -6.934421062469482, -0.9119764566421509, 7.003121376037598, -1.7317129373550415, -1.1124749183654785, -1.3363938331604004, 1.126220703125, -0.41259765625, 0.07470703125
468, 3735136528, -6.968240737915039, -0.9448117017745972, 6.96794319152832, -2.116236686706543, -0.7040034532546997, -1.7727572917938232, 1.124755859375, -0.4130859375, 0.07470703125
469, 3735153195, -6.954046726226807, -0.9781898260116577, 6.97505521774292, -2.265289783477783, -0.7734524011611938, -2.020688533782959, 1.127685546875, -0.4140625, 0.07666015625
470, 3735169862, -6.926534652709961, -1.0041803121566772, 6.989777088165283, -2.1806528568267822, -0.9414588809013367, -2.0120186805725098, 1.126220703125, -0.41259765625, 0.073974609375
471, 3735186529, -6.935653209686279, -0.9914971590042114, 6.97195291519165, -2.1315529346466064, -0.9219675660133362, -1.8368659019470215, 1.127685546875, -0.41259765625, 0.0751953125
472, 3735203196, -6.947988986968994, -0.9751896262168884, 6.983949184417725, -2.119527578353882, -0.9843345284461975, -1.8614927530288696, 1.127685546875, -0.4130859375, 0.076171875
473, 3735219863, -6.968606948852539, -0.9841251969337463, 6.983449459075928, -2.0818288326263428, -0.8438109159469604, -1.7607417106628418, 1.126220703125, -0.41259765625, 0.078125
474, 3735236530, -6.950849533081055, -1.001420021057129, 6.966518402099609, -1.9481661319732666, -1.1200690269470215, -1.5818403959274292, 1.126708984375, -0.412109375, 0.07568359375
475, 3735253197, -6.948361873626709, -0.9915739893913269, 6.977853298187256, -1.7433029413223267, -1.4102481603622437, -1.3690757751464844, 1.126708984375, -0.41259765625, 0.07421875
476, 3735269864, -6.954422950744629, -1.011906623840332, 6.9713945388793945, -1.4903005361557007, -1.4101841449737549, -1.0302196741104126, 1.128173828125, -0.415771484375, 0.07666015625
477, 3735286531, -6.96987771987915, -0.9338533282279968, 6.967376708984375, -1.4297008514404297, -1.3897067308425903, -0.9615392088890076, 1.127197265625, -0.41455078125, 0.076171875
478, 3735303198, -6.951660633087158, -0.9879912734031677, 6.955979347229004, -1.6250361204147339, -1.257301926612854, -1.1214392185211182, 1.127685546875, -0.41455078125, 0.076171875
479, 3735319865, -6.95245361328125, -0.9530587196350098, 6.980588912963867, -1.677695870399475, -1.1353470087051392, -1.2296146154403687, 1.128173828125, -0.41455078125, 0.07568359375
480, 3735336532, -6.95628023147583, -0.956190288066864, 6.986271858215332, -1.6581790447235107, -1.0323455333709717, -1.111488699913025, 1.126220703125, -0.414794921875, 0.07568359375
481, 3735353199, -6.955478191375732, -0.9414249062538147, 6.962327480316162, -1.6851109266281128, -1.1403158903121948, -1.1129999160766602, 1.128173828125, -0.4140625, 0.07568359375
482, 3735369866, -6.961899757385254, -0.9378887414932251, 6.973183631896973, -1.7200208902359009, -1.0325888395309448, -1.2169746160507202, 1.128173828125, -0.415283203125, 0.07568359375
483, 3735386533, -6.953969955444336, -0.9628418684005737, 6.965493679046631, -1.7192267179489136, -1.0790501832962036, -1.2507065534591675, 1.126220703125, -0.415771484375, 0.07568359375
484, 3735403200, -6.949527740478516, -0.8762471079826355, 6.984468460083008, -1.9993526935577393, -0.8158156871795654, -1.4548908472061157, 1.12890625, -0.416259765625, 0.076171875
485, 3735419867, -6.966578960418701, -0.9031169414520264, 6.955193996429443, -2.406428337097168, -0.6315323114395142, -2.0759477615356445, 1.127197265625, -0.416259765625, 0.0771484375
486, 3735436534, -6.985983371734619, -0.9356892108917236, 6.946100234985352, -2.546875476837158, -0.7754372954368591, -2.3793811798095703, 1.128173828125, -0.416259765625, 0.0771484375
487, 3735453201, -6.965712070465088, -0.9357638955116272, 6.967233180999756, -2.7036259174346924, -1.073927879333496, -2.5653557777404785, 1.128173828125, -0.416259765625, 0.077880859375
488, 3735469868, -6.971582889556885, -0.9523211121559143, 6.953097820281982, -2.698324203491211, -1.185547947883606, -2.6519265174865723, 1.1298828125, -0.415283203125, 0.07568359375
489, 3735486535, -6.967214107513428, -0.956536054611206, 6.953958988189697, -2.6877200603485107, -1.4518561363220215, -2.6489295959472656, 1.12890625, -0.415771484375, 0.079833984375
490, 3735503202, -6.959384441375732, -0.9510866403579712, 6.983919143676758, -2.7019991874694824, -1.2480942010879517, -2.6611852645874023, 1.1298828125, -0.416748046875, 0.077392578125
491, 3735519869, -6.960315227508545, -0.9258039593696594, 6.978228569030762, -2.8834006786346436, -1.166632890701294, -2.765249490737915, 1.127685546875, -0.415771484375, 0.07763671875
492, 3735536536, -6.9670586585998535, -0.9513757228851318, 6.970396041870117, -2.860938787460327, -1.4497430324554443, -2.850104570388794, 1.126708984375, -0.416748046875, 0.078369140625
493, 3735553203, -6.962930679321289, -0.9466692805290222, 6.954703330993652, -2.707980155944824, -1.4232467412948608, -2.6486353874206543, 1.127685546875, -0.415283203125, 0.078369140625
494, 3735569870, -6.969559669494629, -0.9152147173881531, 6.971611499786377, -2.8370423316955566, -1.1428132057189941, -2.6896026134490967, 1.1298828125, -0.415283203125, 0.077392578125
495, 3735586537, -6.9737701416015625, -0.9420124292373657, 6.949528694152832, -2.8354153633117676, -1.1502279043197632, -2.7608823776245117, 1.12890625, -0.414794921875, 0.079833984375
496, 3735603204, -6.9945783615112305, -0.9705864787101746, 6.91237211227417, -2.6380317211151123, -1.655144214630127, -2.5336341857910156, 1.128173828125, -0.416259765625, 0.078369140625
497, 3735619871, -6.956154823303223, -0.9757208824157715, 6.930776119232178, -2.360684394836426, -2.1547069549560547, -2.3509771823883057, 1.127197265625, -0.41455078125, 0.078857421875
498, 3735636538, -6.964834213256836, -0.9593561887741089, 6.941611289978027, -2.202974557876587, -2.5296387672424316, -2.222388505935669, 1.126708984375, -0.414794921875, 0.078125
499, 3735653205, -6.958248615264893, -0.958756685256958, 6.97320556640625, -2.3176417350769043, -2.5993428230285645, -2.324890375137329, 1.127197265625, -0.41455078125, 0.078125
500, 3735669872, -6.963747024536133, -0.9383663535118103, 6.998134613037109, -2.3275411128997803, -2.458754777908325, -2.465376138687134, 1.126708984375, -0.414794921875, 0.078125
501, 3735686539, -6.9556145668029785, -0.933692991733551, 6.964764595031738, -2.5132076740264893, -2.197082996368408, -2.606860637664795, 1.12939453125, -0.4140625, 0.077880859375
502, 3735703206, -6.960634708404541, -0.8930813074111938, 6.967021942138672, -2.8455586433410645, -1.8441786766052246, -3.0913891792297363, 1.127197265625, -0.416748046875, 0.076171875
503, 3735719873, -6.9580841064453125, -0.9545876383781433, 6.956430912017822, -3.3139374256134033, -1.4162156581878662, -3.5037529468536377, 1.128173828125, -0.41357421875, 0.078857421875
504, 3735736540, -6.964696884155273, -1.0009480714797974, 6.957752227783203, -3.2640187740325928, -1.4005537033081055, -3.481393575668335, 1.126220703125, -0.4140625, 0.07763671875
505, 3735753207, -6.947767734527588, -0.9766585230827332, 6.965334892272949, -3.2478950023651123, -1.3114726543426514, -3.3978190422058105, 1.126708984375, -0.416748046875, 0.07763671875
506, 3735769874, -6.969343185424805, -0.9819450378417969, 6.963142395019531, -3.3222615718841553, -1.0478540658950806, -3.4445242881774902, 1.127685546875, -0.4130859375, 0.07666015625
507, 3735786541, -6.962430000305176, -0.9666419625282288, 6.964515686035156, -3.2931275367736816, -1.1595381498336792, -3.336733102798462, 1.127685546875, -0.412109375, 0.076171875
508, 3735803208, -6.950655937194824, -1.0146645307540894, 6.946362495422363, -3.1665496826171875, -1.2156941890716553, -3.2378811836242676, 1.127685546875, -0.41259765625, 0.078125
509, 3735819875, -6.950444221496582, -1.0108416080474854, 6.9577202796936035, -2.8841371536254883, -1.2083474397659302, -2.9409940242767334, 1.127197265625, -0.412109375, 0.0751953125
510, 3735836542, -6.96159553527832, -0.9946895241737366, 6.951456069946289, -2.729264259338379, -1.2348909378051758, -2.6291184425354004, 1.127685546875, -0.4130859375, 0.0771484375
511, 3735853209, -6.953526496887207, -1.0078994035720825, 6.952854156494141, -2.550666332244873, -1.3089882135391235, -2.3709163665771484, 1.125732421875, -0.41162109375, 0.07666015625
512, 3735869876, -6.973277568817139, -0.9782728552818298, 6.954030513763428, -2.327298164367676, -1.5475705862045288, -2.2820658683776855, 1.128662109375, -0.4130859375, 0.07763671875
513, 3735886543, -6.967170238494873, -0.9815962314605713, 6.973430156707764, -2.415060043334961, -1.5263248682022095, -2.3496837615966797, 1.13037109375, -0.41455078125, 0.076904296875
514, 3735903210, -6.963924884796143, -0.9724246263504028, 6.96857213973999, -2.4310550689697266, -1.5069103240966797, -2.4635190963745117, 1.127197265625, -0.41455078125, 0.0771484375
515, 3735919877, -6.954583644866943, -0.9894148707389832, 6.950532913208008, -2.597384214401245, -1.3445900678634644, -2.6101396083831787, 1.127685546875, -0.41357421875, 0.079833984375
516, 3735936544, -6.966291904449463, -0.9805073738098145, 6.956905841827393, -2.7352957725524902, -1.138420581817627, -2.565573215484619, 1.127197265625, -0.412109375, 0.078857421875
517, 3735953211, -6.977549076080322, -0.9650488495826721, 6.956119060516357, -2.8680460453033447, -0.9619104862213135, -2.7643015384674072, 1.127685546875, -0.4111328125, 0.076171875
518, 3735969878, -6.978370189666748, -1.0079243183135986, 6.957375526428223, -3.0180723667144775, -1.0090378522872925, -2.8036813735961914, 1.128173828125, -0.412109375, 0.078369140625
519, 3735986545, -6.970655918121338, -1.0084221363067627, 6.933857440948486, -2.773228168487549, -1.1883783340454102, -2.682713031768799, 1.129638671875, -0.41162109375, 0.07763671875
520, 3736003212, -6.962014675140381, -1.0049645900726318, 6.936596393585205, -2.5456464290618896, -1.452854871749878, -2.562448263168335, 1.128662109375, -0.41064453125, 0.0771484375
521, 3736019879, -6.962470531463623, -1.0160630941390991, 6.946345806121826, -2.376999616622925, -1.6061596870422363, -2.395171880722046, 1.127685546875, -0.412109375, 0.078125
522, 3736036546, -6.968157768249512, -0.9929842948913574, 6.950100898742676, -2.460855484008789, -1.5961065292358398, -2.3375301361083984, 1.127685546875, -0.412109375, 0.078857421875
523, 3736053213, -6.97229528427124, -0.9885891675949097, 6.927780628204346, -2.3766279220581055, -1.7613084316253662, -2.3541269302368164, 1.128173828125, -0.41259765625, 0.078369140625
524, 3736069880, -6.967867851257324, -1.0106301307678223, 6.948351860046387, -2.4084136486053467, -1.900039792060852, -2.3197550773620605, 1.128662109375, -0.4111328125, 0.078125
525, 3736086547, -6.970361709594727, -0.9905319809913635, 6.938892364501953, -2.293835163116455, -1.964519739151001, -2.3529109954833984, 1.129150390625, -0.41162109375, 0.076171875
526, 3736103214, -6.968652725219727, -1.0076559782028198, 6.954993724822998, -2.3837485313415527, -1.9850229024887085, -2.36322021484375, 1.130126953125, -0.4111328125, 0.07666015625
527, 3736119881, -6.970016956329346, -0.9720010161399841, 6.956247329711914, -2.3789589405059814, -1.843077301979065, -2.3325870037078857, 1.127197265625, -0.40966796875, 0.07470703125
528, 3736136548, -6.970298767089844, -1.0115816593170166, 6.970874786376953, -2.3855926990509033, -1.8794856071472168, -2.3795735836029053, 1.127197265625, -0.41259765625, 0.078369140625
529, 3736153215, -6.959359645843506, -1.010174036026001, 6.949854850769043, -2.320805549621582, -1.9498440027236938, -2.4235892295837402, 1.129150390625, -0.41162109375, 0.0771484375
530, 3736169882, -6.963352680206299, -1.03229558467865, 6.9483513832092285, -2.193510055541992, -2.2304179668426514, -2.3016469478607178, 1.127685546875, -0.41064453125, 0.07763671875
531, 3736186549, -6.967041015625, -1.0054254531860352, 6.956799507141113, -2.069775342941284, -2.4331555366516113, -2.2954232692718506, 1.126708984375, -0.4091796875, 0.07666015625
532, 3736203216, -6.974065780639648, -0.9824750423431396, 6.948302745819092, -2.1028029918670654, -2.380880117416382, -2.237858772277832, 1.129638671875, -0.4130859375, 0.076171875
533, 3736219883, -6.976800918579102, -0.9730624556541443, 6.978326797485352, -2.1724822521209717, -2.3974130153656006, -2.4324381351470947, 1.128173828125, -0.412109375, 0.078125
534, 3736236550, -6.963217258453369, -0.9841147661209106, 6.968868732452393, -2.3809566497802734, -2.393634796142578, -2.552907705307007, 1.127685546875, -0.41259765625, 0.0751953125
535, 3736253217, -6.94297456741333, -1.0034911632537842, 6.954119682312012, -2.4173521995544434, -2.249960422515869, -2.543238401412964, 1.12451171875, -0.41064453125, 0.07666015625
536, 3736269884, -6.956032752990723, -1.0052982568740845, 6.981128692626953, -2.3618109226226807, -2.2748045921325684, -2.6076669692993164, 1.128662109375, -0.41357421875, 0.07666015625
537, 3736286551, -6.936539649963379, -1.0100175142288208, 6.960309028625488, -2.2765848636627197, -2.3963112831115723, -2.5421626567840576, 1.127685546875, -0.41162109375, 0.0751953125
538, 3736303218, -6.955306053161621, -0.993989109992981, 6.965876579284668, -2.203345537185669, -2.3780882358551025, -2.409463882446289, 1.127685546875, -0.41064453125, 0.07666015625
539, 3736319885, -6.946981906890869, -0.9855816960334778, 6.936322212219238, -2.2258846759796143, -2.4557456970214844, -2.4877612590789795, 1.125244140625, -0.41064453125, 0.076171875
540, 3736336552, -6.950296878814697, -0.9810767769813538, 6.986219882965088, -2.2483465671539307, -2.349273443222046, -2.6347012519836426, 1.128662109375, -0.408935546875, 0.076171875
541, 3736353219, -6.938790798187256, -0.9886529445648193, 6.974747657775879, -2.3338546752929688, -2.293501853942871, -2.520545482635498, 1.126708984375, -0.40966796875, 0.07666015625
542, 3736369886, -6.941650867462158, -0.9926576018333435, 6.971713542938232, -2.329052209854126, -2.1957385540008545, -2.610574245452881, 1.128662109375, -0.412109375, 0.072998046875
543, 3736386553, -6.950253963470459, -0.9988133907318115, 6.975050926208496, -2.394109010696411, -2.4925127029418945, -2.7859063148498535, 1.127685546875, -0.408935546875, 0.072509765625
544, 3736403220, -6.957162380218506, -1.0176236629486084, 6.966120719909668, -2.3948261737823486, -2.677090644836426, -2.6503255367279053, 1.125732421875, -0.4091796875, 0.07470703125
545, 3736419887, -6.931665420532227, -1.005820393562317, 6.986702919006348, -2.282735824584961, -2.9835727214813232, -2.7635600566864014, 1.1240234375, -0.41064453125, 0.072021484375
546, 3736436554, -6.910129070281982, -1.014035701751709, 6.999431133270264, -2.3180902004241943, -2.8413193225860596, -2.6690866947174072, 1.125244140625, -0.41162109375, 0.072998046875
547, 3736453221, -6.902411460876465, -0.9883409142494202, 7.013195037841797, -2.4705629348754883, -2.4105265140533447, -2.7190699577331543, 1.126708984375, -0.40966796875, 0.0751953125
548, 3736469888, -6.902951717376709, -1.027127742767334, 7.02110481262207, -2.5464401245117188, -1.9293278455734253, -2.662696361541748, 1.127197265625, -0.41015625, 0.073486328125
549, 3736486555, -6.920801639556885, -0.9906482696533203, 6.981517791748047, -2.756669282913208, -1.6374582052230835, -2.7307238578796387, 1.126708984375, -0.40966796875, 0.073486328125
550, 3736503222, -6.928564548492432, -0.9984623789787292, 6.976443290710449, -2.8559696674346924, -1.5488638877868652, -2.8891637325286865, 1.12451171875, -0.41064453125, 0.070556640625
551, 3736519889, -6.911534309387207, -1.0148429870605469, 6.974122524261475, -2.8848092555999756, -1.5474680662155151, -2.97198224067688, 1.127685546875, -0.40966796875, 0.073486328125
552, 3736536556, -6.925257682800293, -1.001321792602539, 7.01540470123291, -2.8911361694335938, -1.497933030128479, -3.0203518867492676, 1.126220703125, -0.407958984375, 0.072998046875
553, 3736553223, -6.930092811584473, -1.0204228162765503, 7.000125408172607, -3.0525221824645996, -1.2880373001098633, -3.1013784408569336, 1.126220703125, -0.408447265625, 0.07470703125
554, 3736569890, -6.925515651702881, -1.0375832319259644, 6.980161190032959, -3.0591681003570557, -1.268059253692627, -3.0625104904174805, 1.12548828125, -0.407958984375, 0.072998046875
555, 3736586557, -6.908661365509033, -1.0316253900527954, 6.991088390350342, -3.0545196533203125, -1.1937953233718872, -3.1383628845214844, 1.126708984375, -0.408447265625, 0.073974609375
556, 3736603224, -6.940892219543457, -0.9952648878097534, 7.00167989730835, -3.3761377334594727, -0.7600055932998657, -3.397152900695801, 1.126220703125, -0.408935546875, 0.074462890625
557, 3736619891, -6.928302764892578, -1.052588939666748, 6.9770588874816895, -3.4423465728759766, -0.7677534222602844, -3.3768930435180664, 1.12451171875, -0.408447265625, 0.072998046875
558, 3736636558, -6.942813873291016, -1.049210786819458, 6.986326217651367, -3.37260365486145, -0.6833339929580688, -3.223691701889038, 1.1259765625, -0.407958984375, 0.07568359375
559, 3736653225, -6.9118571281433105, -1.0746424198150635, 6.97733211517334, -2.956512451171875, -0.985692024230957, -2.811711311340332, 1.126708984375, -0.406005859375, 0.074951171875
560, 3736669892, -6.928355693817139, -1.082745909690857, 6.960880279541016, -2.636788845062256, -1.1996347904205322, -2.4381752014160156, 1.12646484375, -0.406982421875, 0.074462890625
561, 3736686559, -6.93346643447876, -1.0448499917984009, 6.975081443786621, -2.3281302452087402, -1.4113235473632812, -2.1361501216888428, 1.126708984375, -0.407958984375, 0.07470703125
562, 3736703226, -6.950027942657471, -1.0456383228302002, 6.973380088806152, -2.2808620929718018, -1.4732167720794678, -2.0054869651794434, 1.1259765625, -0.406494140625, 0.0751953125
563, 3736719893, -6.937245845794678, -1.0391392707824707, 6.98419713973999, -2.3183846473693848, -1.4981764554977417, -1.9842414855957031, 1.12646484375, -0.406982421875, 0.074951171875
564, 3736736560, -6.91829776763916, -1.0348013639450073, 6.970420837402344, -2.266416549682617, -1.5723252296447754, -2.029601573944092, 1.12451171875, -0.408447265625, 0.07568359375
565, 3736753227, -6.927525520324707, -1.0325844287872314, 6.9593586921691895, -2.342998743057251, -1.546955943107605, -1.9349629878997803, 1.127197265625, -0.406494140625, 0.073486328125
566, 3736769894, -6.937924861907959, -1.032650351524353, 6.973480701446533, -2.167999505996704, -1.4746127128601074, -1.833984375, 1.126708984375, -0.407470703125, 0.073974609375
567, 3736786561, -6.955979347229004, -1.042173981666565, 6.972154140472412, -2.193983793258667, -1.5781136751174927, -1.9056360721588135, 1.126708984375, -0.407958984375, 0.0751953125
568, 3736803228, -6.924918174743652, -1.0332010984420776, 6.988241672515869, -2.1900393962860107, -1.5527058839797974, -1.947589635848999, 1.127197265625, -0.406494140625, 0.073486328125
569, 3736819895, -6.946147441864014, -1.0179169178009033, 6.966963291168213, -2.1664116382598877, -1.5183590650558472, -1.9596660137176514, 1.127685546875, -0.407470703125, 0.073974609375
570, 3736836562, -6.931757926940918, -1.0443494319915771, 6.973665237426758, -2.0662660598754883, -1.648638367652893, -1.9062509536743164, 1.126220703125, -0.4111328125, 0.073974609375
571, 3736853229, -6.931793689727783, -1.0397067070007324, 6.971879482269287, -2.105888843536377, -1.5485180616378784, -1.9230144023895264, 1.12646484375, -0.406494140625, 0.0751953125
572, 3736869896, -6.9327850341796875, -1.014420747756958, 6.970311641693115, -2.07429575920105, -1.7815042734146118, -1.862414836883545, 1.126220703125, -0.407958984375, 0.07470703125
573, 3736886563, -6.9409074783325195, -1.0020560026168823, 6.997180938720703, -2.14731764793396, -1.7110565900802612, -2.020688533782959, 1.127685546875, -0.41015625, 0.07373046875
574, 3736903230, -6.9145121574401855, -1.0103274583816528, 6.971269130706787, -2.321035861968994, -1.5872191190719604, -2.1962122917175293, 1.126220703125, -0.408447265625, 0.073974609375
575, 3736919897, -6.943373680114746, -1.0307600498199463, 6.9850544929504395, -2.491962432861328, -1.403588891029358, -2.2200448513031006, 1.12451171875, -0.407958984375, 0.073486328125
576, 3736936564, -6.916257858276367, -1.0193041563034058, 6.982812881469727, -2.5670580863952637, -1.2707996368408203, -2.319037675857544, 1.125, -0.408447265625, 0.0751953125
577, 3736953231, -6.939199447631836, -1.0265105962753296, 6.9649505615234375, -2.4148037433624268, -1.2372982501983643, -2.2461183071136475, 1.127197265625, -0.408447265625, 0.073974609375
578, 3736969898, -6.931845664978027, -1.0395623445510864, 6.965517044067383, -2.430248260498047, -1.4507161378860474, -2.1615710258483887, 1.127685546875, -0.407470703125, 0.073486328125
579, 3736986565, -6.934103488922119, -1.028841495513916, 6.992673397064209, -2.2309300899505615, -1.6134722232818604, -2.1409401893615723, 1.1259765625, -0.406982421875, 0.0751953125
580, 3737003232, -6.923094272613525, -1.0388727188110352, 6.96863317489624, -2.213449478149414, -1.7400498390197754, -2.0686097145080566, 1.126708984375, -0.4091796875, 0.073486328125
581, 3737019899, -6.942734241485596, -1.0276720523834229, 6.97089958190918, -2.2385692596435547, -1.8577698469161987, -2.15301513671875, 1.1259765625, -0.407958984375, 0.072021484375
582, 3737036566, -6.937676429748535, -1.0057426691055298, 6.991852760314941, -2.3930845260620117, -1.7351964712142944, -2.237653970718384, 1.127197265625, -0.4091796875, 0.07421875
583, 3737053233, -6.930395126342773, -1.0080889463424683, 6.995175838470459, -2.507035493850708, -1.5086010694503784, -2.4839327335357666, 1.127197265625, -0.4091796875, 0.073974609375
584, 3737069900, -6.946303367614746, -1.0270556211471558, 6.963967800140381, -2.54719614982605, -1.5646799802780151, -2.503321647644043, 1.1259765625, -0.408447265625, 0.072509765625
585, 3737086567, -6.939125061035156, -1.0486371517181396, 6.989106178283691, -2.5036673545837402, -1.6603050231933594, -2.5150394439697266, 1.126220703125, -0.41064453125, 0.073974609375
586, 3737103234, -6.941404819488525, -1.0279593467712402, 6.984014987945557, -2.5221855640411377, -1.697417974472046, -2.525771379470825, 1.12548828125, -0.4091796875, 0.0751953125
587, 3737119901, -6.952024459838867, -1.010774850845337, 6.9875593185424805, -2.547208547592163, -1.8821107149124146, -2.590045690536499, 1.128662109375, -0.409423828125, 0.076171875
588, 3737136568, -6.931159019470215, -1.030322790145874, 6.976797103881836, -2.6422958374023438, -1.7506279945373535, -2.804936647415161, 1.1259765625, -0.407470703125, 0.0751953125
589, 3737153235, -6.942877292633057, -0.9886279106140137, 6.988080024719238, -2.9210774898529053, -1.7398197650909424, -3.033376455307007, 1.12548828125, -0.406982421875, 0.072998046875
590, 3737169902, -6.9488654136657715, -1.0200923681259155, 6.993472576141357, -2.9844560623168945, -1.7467992305755615, -3.2577691078186035, 1.128662109375, -0.406982421875, 0.073974609375
591, 3737186569, -6.937207221984863, -1.0466508865356445, 6.959656238555908, -3.031327247619629, -1.8442937135696411, -3.269935131072998, 1.12548828125, -0.406005859375, 0.074462890625
592, 3737203236, -6.926765441894531, -1.0325511693954468, 6.981526851654053, -2.9752604961395264, -1.9706536531448364, -3.304165840148926, 1.12548828125, -0.406982421875, 0.073974609375
593, 3737219903, -6.904814720153809, -1.0762407779693604, 6.964258670806885, -2.887140989303589, -2.070326089859009, -3.1773459911346436, 1.12646484375, -0.406005859375, 0.073974609375
594, 3737236570, -6.917102813720703, -1.0755378007888794, 6.9681477546691895, -2.666038751602173, -2.2975873947143555, -2.885270595550537, 1.1240234375, -0.404541015625, 0.074462890625
595, 3737253237, -6.924346446990967, -1.0581902265548706, 6.985110282897949, -2.495278835296631, -2.1793973445892334, -2.699040651321411, 1.1259765625, -0.4033203125, 0.072021484375
596, 3737269904, -6.918001174926758, -1.081777572631836, 6.980179786682129, -2.4989287853240967, -2.437713861465454, -2.625736713409424, 1.1259765625, -0.405517578125, 0.072509765625
597, 3737286571, -6.919918060302734, -1.0682458877563477, 6.99888801574707, -2.4672200679779053, -2.2914912700653076, -2.577495813369751, 1.1259765625, -0.405029296875, 0.06982421875
598, 3737303238, -6.916330337524414, -1.0625709295272827, 6.989733695983887, -2.4978528022766113, -2.384631872177124, -2.5964488983154297, 1.125, -0.406005859375, 0.07080078125
599, 3737319905, -6.907376766204834, -1.0416111946105957, 6.999507904052734, -2.589059829711914, -1.9359358549118042, -2.697465658187866, 1.1259765625, -0.404541015625, 0.072509765625
600, 3737336572, -6.905846118927002, -1.0693756341934204, 6.973494052886963, -2.6924195289611816, -1.927714228630066, -2.693136692047119, 1.125, -0.404052734375, 0.074462890625
601, 3737353239, -6.9278435707092285, -1.0347650051116943, 6.9874372482299805, -2.788505792617798, -1.8045556545257568, -2.814605474472046, 1.12548828125, -0.4033203125, 0.071044921875
602, 3737369906, -6.913554668426514, -1.0664910078048706, 6.993431568145752, -2.802913188934326, -1.9544795751571655, -2.8782529830932617, 1.12548828125, -0.406005859375, 0.0703125
603, 3737386573, -6.918549060821533, -1.0608588457107544, 6.991731643676758, -2.7051875591278076, -1.9177508354187012, -2.830792188644409, 1.1259765625, -0.404541015625, 0.071533203125
604, 3737403240, -6.914353847503662, -1.062605857849121, 7.005782127380371, -2.7980847358703613, -1.9926296472549438, -2.790144920349121, 1.123046875, -0.4033203125, 0.073974609375
605, 3737419907, -6.898296356201172, -1.0418767929077148, 7.008726596832275, -3.059706449508667, -1.6705501079559326, -3.099482774734497, 1.12646484375, -0.404541015625, 0.0703125
606, 3737436574, -6.92706823348999, -1.0754543542861938, 7.009832382202148, -3.187462568283081, -1.4007331132888794, -3.145150661468506, 1.12548828125, -0.40380859375, 0.073486328125
607, 3737453241, -6.8994035720825195, -1.0602200031280518, 6.9837164878845215, -3.318023204803467, -1.4553394317626953, -3.1317291259765625, 1.123046875, -0.403564453125, 0.0712890625
608, 3737469908, -6.921266555786133, -1.0749495029449463, 6.977131366729736, -3.574329376220703, -1.131927728652954, -3.186450481414795, 1.125, -0.404541015625, 0.07080078125
609, 3737486575, -6.92240571975708, -1.086940050125122, 6.981326103210449, -3.5290839672088623, -1.1844079494476318, -3.2039947509765625, 1.127685546875, -0.40380859375, 0.073486328125
610, 3737503242, -6.884734153747559, -1.120113492012024, 6.982589244842529, -3.2358193397521973, -1.295989990234375, -3.081003427505493, 1.12548828125, -0.40380859375, 0.072998046875
611, 3737519909, -6.908359050750732, -1.1227741241455078, 6.987545490264893, -2.9844560623168945, -1.5581741333007812, -2.756387710571289, 1.12548828125, -0.4033203125, 0.072998046875
612, 3737536576, -6.915103435516357, -1.1013842821121216, 6.977194309234619, -2.92625093460083, -1.6545674800872803, -2.4703831672668457, 1.122314453125, -0.40234375, 0.072509765625
613, 3737553243, -6.915783882141113, -1.1217830181121826, 6.957500457763672, -2.778747797012329, -1.886183500289917, -2.129004716873169, 1.12548828125, -0.39990234375, 0.074951171875
614, 3737569910, -6.923652172088623, -1.077677845954895, 7.00183629989624, -2.678333282470703, -2.162762403488159, -2.167795181274414, 1.1259765625, -0.40283203125, 0.072021484375
615, 3737586577, -6.921891212463379, -1.0600999593734741, 7.003987789154053, -2.613443374633789, -1.834497094154358, -2.297011375427246, 1.12548828125, -0.40234375, 0.0712890625
616, 3737603244, -6.908108711242676, -1.0672085285186768, 7.005796909332275, -2.651388645172119, -1.7096096277236938, -2.4707038402557373, 1.1259765625, -0.4033203125, 0.072509765625
617, 3737619911, -6.915074348449707, -1.1162587404251099, 7.013535499572754, -2.844926357269287, -1.4801971912384033, -2.5390520095825195, 1.12451171875, -0.4033203125, 0.071533203125
618, 3737636578, -6.911783695220947, -1.0907734632492065, 6.958953380584717, -3.7436554431915283, -0.7729657888412476, -2.518484115600586, 1.125, -0.40185546875, 0.072998046875
619, 3737653245, -6.935121536254883, -1.0944359302520752, 7.027645587921143, -4.077363014221191, -0.26365718245506287, -2.49285888671875, 1.12548828125, -0.400390625, 0.072509765625
620, 3737669912, -6.984142303466797, -1.0363317728042603, 7.050536632537842, -5.224069595336914, 0.4828314781188965, -2.87192702293396, 1.12646484375, -0.400390625, 0.074951171875
621, 3737686579, -7.003589630126953, -1.0492106676101685, 7.032976150512695, -6.551743030548096, 0.6855945587158203, -3.5156514644622803, 1.1240234375, -0.39990234375, 0.073486328125
622, 3737703246, -6.9805588722229, -1.1122597455978394, 6.983952522277832, -6.597602844238281, -0.385099858045578, -3.473710775375366, 1.12744140625, -0.398681640625, 0.073974609375
623, 3737719913, -7.073676586151123, -1.0262194871902466, 7.0682854652404785, -7.469958782196045, -0.21684998273849487, -3.409050941467285, 1.1279296875, -0.3994140625, 0.074951171875
624, 3737736580, -7.262233257293701, -0.9316598773002625, 7.144519805908203, -8.533732414245605, -1.170257568359375, -4.615269660949707, 1.12841796875, -0.397705078125, 0.076171875
625, 3737753247, -7.124494552612305, -1.044582486152649, 6.960507869720459, -11.132709503173828, -4.9479804039001465, -7.549489498138428, 1.126953125, -0.396240234375, 0.076416015625
626, 3737769914, -6.8053202629089355, -1.2952589988708496, 6.958641529083252, -9.398215293884277, -7.409604549407959, -7.052102565765381, 1.126220703125, -0.392578125, 0.074951171875
627, 3737786581, -6.79800271987915, -1.355617880821228, 6.904869079589844, -7.591864585876465, -8.034964561462402, -5.75192403793335, 1.12646484375, -0.393798828125, 0.073486328125
628, 3737803248, -6.740420341491699, -1.1529598236083984, 6.919515132904053, -6.345421314239502, -8.372269630432129, -4.605331897735596, 1.125244140625, -0.3916015625, 0.07177734375
629, 3737819915, -6.710458755493164, -1.4539462327957153, 6.9395904541015625, -5.118724346160889, -7.150477886199951, -2.949443817138672, 1.123291015625, -0.3916015625, 0.073974609375
630, 3737836582, -6.744070529937744, -1.3098188638687134, 6.987239837646484, -4.298696041107178, -4.956315040588379, -2.3380558490753174, 1.122314453125, -0.390625, 0.07080078125
631, 3737853249, -6.846248149871826, -1.162861704826355, 7.104849815368652, -4.568281173706055, -2.596794843673706, -3.1545627117156982, 1.121826171875, -0.3896484375, 0.068115234375
632, 3737869916, -6.513646602630615, -1.3259949684143066, 7.0358686447143555, -3.7666423320770264, 0.7390865683555603, -2.81368350982666, 1.122314453125, -0.39013671875, 0.068603515625
633, 3737886583, -6.367020130157471, -1.480871319770813, 7.1775898933410645, -2.1723926067352295, 7.734915256500244, -2.5057291984558105, 1.125244140625, -0.388671875, 0.0693359375
634, 3737903250, -5.937595844268799, -1.4055269956588745, 7.301577091217041, -1.1823477745056152, 18.896902084350586, -1.3082343339920044, 1.12744140625, -0.38916015625, 0.073974609375
635, 3737919917, -5.5305633544921875, -1.293464183807373, 7.986316680908203, -2.263878107070923, 35.16752243041992, 4.495234966278076, 1.132080078125, -0.39208984375, 0.084228515625
636, 3737936584, -5.124841213226318, -1.523546814918518, 8.520185470581055, -7.1802544593811035, 57.6261100769043, 16.91280174255371, 1.135986328125, -0.3935546875, 0.098388671875
637, 3737953251, -6.05700159072876, -1.9795111417770386, 11.33830451965332, 11.430904388427734, 81.09918975830078, 40.04865646362305, 1.14501953125, -0.40087890625, 0.1201171875
638, 3737969918, -7.774829387664795, -3.6058449745178223, 13.543370246887207, 24.240753173828125, 82.37845611572266, 56.11924743652344, 1.156494140625, -0.420166015625, 0.1396484375
639, 3737986585, -5.153684616088867, -5.753103733062744, 13.688584327697754, 35.86015319824219, 63.17887496948242, 46.3188591003418, 1.1630859375, -0.4375, 0.157470703125
640, 3738003252, -2.635512590408325, -6.09453821182251, 12.935783386230469, 42.45758056640625, 59.4040412902832, 25.266042709350586, 1.17138671875, -0.44775390625, 0.170654296875
641, 3738019919, -0.7633576989173889, -6.309584617614746, 12.759966850280762, 40.09642028808594, 60.92401123046875, 1.2235095500946045, 1.176025390625, -0.452880859375, 0.18603515625
642, 3738036586, 0.6830202341079712, -5.541201591491699, 12.63827896118164, 34.86602020263672, 61.91676330566406, -15.317512512207031, 1.1826171875, -0.4501953125, 0.19921875
643, 3738053253, 0.817654013633728, -4.160769462585449, 13.312843322753906, 16.465993881225586, 58.60245132446289, -19.782623291015625, 1.187744140625, -0.44921875, 0.2177734375
644, 3738069920, -1.562512993812561, -3.8872952461242676, 14.987245559692383, -14.386212348937988, 36.06125259399414, -20.58199119567871, 1.19384765625, -0.4423828125, 0.22607421875
645, 3738086587, -3.396766185760498, -4.535450458526611, 15.455430030822754, -36.984596252441406, -13.702528953552246, -25.99939727783203, 1.19482421875, -0.432861328125, 0.2265625
646, 3738103254, -2.6148903369903564, -4.019196033477783, 13.420878410339355, -44.58704376220703, -63.343387603759766, -28.818988800048828, 1.193603515625, -0.423583984375, 0.21240234375
647, 3738119921, -2.1195406913757324, -2.991328716278076, 11.176764488220215, -50.90243148803711, -84.18666076660156, -25.528825759887695, 1.186767578125, -0.410400390625, 0.194091796875
648, 3738136588, -3.3572306632995605, -2.910597801208496, 10.42236614227295, -57.1004638671875, -94.78633117675781, -20.770353317260742, 1.17919921875, -0.39892578125, 0.1708984375
649, 3738153255, -4.252406597137451, -3.103433847427368, 9.904492378234863, -59.82341384887695, -105.32747650146484, -19.791994094848633, 1.1728515625, -0.38671875, 0.144287109375
650, 3738169922, -5.873470306396484, -3.086836814880371, 9.96100902557373, -62.83316421508789, -111.95903778076172, -24.67108917236328, 1.164306640625, -0.373046875, 0.119873046875
651, 3738186589, -7.4804887771606445, -2.9516918659210205, 9.988714218139648, -67.58255004882812, -125.3095474243164, -36.43935012817383, 1.149658203125, -0.355224609375, 0.091552734375
652, 3738203256, -7.056766986846924, -2.1619315147399902, 8.629150390625, -66.38201141357422, -135.21473693847656, -43.2136344909668, 1.130859375, -0.333251953125, 0.06201171875
