sep=,
DeviceTag:,B,,,,,,,,,,,,,,,,,
FirmwareVersion:,2.2.1,,,,,,,,,,,,,,,,,
AppVersion:,2023.6.1,,,,,,,,,,,,,,,,,
SyncStatus:,Synced,,,,,,,,,,,,,,,,,
OutputRate:,60Hz,,,,,,,,,,,,,,,,,
FilterProfile:,General,,,,,,,,,,,,,,,,,
Measurement Mode:,Inertial Mode - Rate quantities (with mag),,,,,,,,,,,,,,,,,
StartTime:,2023-12-07 13:28:08.705 +0200,,,,,,,,,,,,,,,,,
 2023,,,,,,,,,,,,,,,,,,,

PacketCounter,SampleTimeFine,Acc_X,Acc_Y,Acc_Z,Gyr_X,Gyr_Y,Gyr_Z,Mag_X,Mag_Y,Mag_Z
1, 3727369706, -6.339509010314941, 1.7293297052383423, 7.1068315505981445, -0.050290532410144806, -0.711315929889679, -1.2923656702041626, 0.60302734375, 0.19091796875, -0.697509765625
2, 3727386373, -6.334539890289307, 1.7280075550079346, 7.090088367462158, -0.1775600165128708, -0.7484670281410217, -1.3556287288665771, 0.6015625, 0.1923828125, -0.695556640625
3, 3727403040, -6.346591472625732, 1.7152050733566284, 7.065622806549072, -0.17963466048240662, -0.7666393518447876, -1.40352463722229, 0.6025390625, 0.19189453125, -0.697509765625
4, 3727419707, -6.353388786315918, 1.7164915800094604, 7.118313789367676, -0.13551679253578186, -0.750208854675293, -1.3907952308654785, 0.6025390625, 0.18994140625, -0.6953125
5, 3727436374, -6.340184688568115, 1.7125276327133179, 7.077136993408203, -0.16430546343326569, -0.6743439435958862, -1.3361632823944092, 0.60302734375, 0.193359375, -0.697998046875
6, 3727453041, -6.34577751159668, 1.730315923690796, 7.081766128540039, -0.20453020930290222, -0.6619473695755005, -1.4089162349700928, 0.603515625, 0.19140625, -0.696533203125
7, 3727469708, -6.336462020874023, 1.7133355140686035, 7.086693286895752, -0.2981894314289093, -0.7314666509628296, -1.4704570770263672, 0.6044921875, 0.19189453125, -0.696044921875
8, 3727486375, -6.359190940856934, 1.7213367223739624, 7.109995365142822, -0.22373972833156586, -0.8162767887115479, -1.4383580684661865, 0.60302734375, 0.19189453125, -0.696044921875
9, 3727503042, -6.363010883331299, 1.7175432443618774, 7.107923984527588, -0.2834813892841339, -0.719050943851471, -1.4566454887390137, 0.60302734375, 0.19384765625, -0.695556640625
10, 3727519709, -6.358548164367676, 1.727379560470581, 7.108555793762207, -0.2883349657058716, -0.7740797996520996, -1.489775538444519, 0.604736328125, 0.18994140625, -0.6943359375
11, 3727536376, -6.332867622375488, 1.7060654163360596, 7.112471580505371, -0.2463173270225525, -0.7684834003448486, -1.3419773578643799, 0.60302734375, 0.19140625, -0.696533203125
12, 3727553043, -6.354079723358154, 1.7194316387176514, 7.088748455047607, -0.13865435123443604, -0.7852469682693481, -1.362006425857544, 0.60107421875, 0.19287109375, -0.695556640625
13, 3727569710, -6.342853546142578, 1.7391060590744019, 7.095411777496338, -0.19934365153312683, -0.7696487903594971, -1.3629798889160156, 0.603515625, 0.1904296875, -0.696533203125
14, 3727586377, -6.339187145233154, 1.7256665229797363, 7.088666915893555, -0.2569081783294678, -0.6966269612312317, -1.365310549736023, 0.6015625, 0.19189453125, -0.697021484375
15, 3727603044, -6.335408687591553, 1.7265840768814087, 7.099197864532471, -0.12976674735546112, -0.7025435566902161, -1.43977952003479, 0.6025390625, 0.19091796875, -0.697509765625
16, 3727619711, -6.354215621948242, 1.7051243782043457, 7.087212562561035, -0.22621138393878937, -0.6977924704551697, -1.4511643648147583, 0.6044921875, 0.1904296875, -0.696533203125
17, 3727636378, -6.363020896911621, 1.7251657247543335, 7.106019973754883, -0.21713167428970337, -0.7598391771316528, -1.4336965084075928, 0.6025390625, 0.19287109375, -0.695556640625
18, 3727653045, -6.338378429412842, 1.7152459621429443, 7.082494258880615, -0.1771630197763443, -0.7197424173355103, -1.4027434587478638, 0.6044921875, 0.19189453125, -0.696044921875
19, 3727669712, -6.344818115234375, 1.7143701314926147, 7.084537029266357, -0.21597908437252045, -0.7606202960014343, -1.435642957687378, 0.6025390625, 0.19091796875, -0.697021484375
20, 3727686379, -6.350273132324219, 1.7126920223236084, 7.079301834106445, -0.2834557294845581, -0.7491074204444885, -1.425295352935791, 0.603515625, 0.19287109375, -0.695068359375
21, 3727703046, -6.349398612976074, 1.7115988731384277, 7.071988105773926, -0.31349942088127136, -0.7421791553497314, -1.4713470935821533, 0.60107421875, 0.1923828125, -0.697509765625
22, 3727719713, -6.34044075012207, 1.7228742837905884, 7.099015235900879, -0.25313031673431396, -0.7154523730278015, -1.447655439376831, 0.60302734375, 0.19189453125, -0.697021484375
23, 3727736380, -6.346325397491455, 1.7160381078720093, 7.088679790496826, -0.15577642619609833, -0.7175013422966003, -1.3497380018234253, 0.60302734375, 0.19140625, -0.697021484375
24, 3727753047, -6.345757007598877, 1.7050613164901733, 7.115190029144287, -0.13285306096076965, -0.7304229736328125, -1.288203477859497, 0.60302734375, 0.19287109375, -0.696044921875
25, 3727769714, -6.349849224090576, 1.7108384370803833, 7.0918660163879395, -0.10086280852556229, -0.7324976325035095, -1.2291662693023682, 0.60498046875, 0.19287109375, -0.697998046875
26, 3727786381, -6.340908050537109, 1.7070378065109253, 7.114397048950195, -0.23229436576366425, -0.7186667323112488, -1.3177989721298218, 0.603515625, 0.19140625, -0.6953125
27, 3727803048, -6.344080924987793, 1.7150241136550903, 7.089365482330322, -0.2007523477077484, -0.8468582630157471, -1.3209620714187622, 0.60205078125, 0.1943359375, -0.697021484375
28, 3727819715, -6.359582424163818, 1.729386329650879, 7.095972061157227, -0.1453392654657364, -0.7529621720314026, -1.308860182762146, 0.60400390625, 0.19140625, -0.697509765625
29, 3727836382, -6.342435359954834, 1.7219188213348389, 7.097809314727783, -0.2281259000301361, -0.6487632989883423, -1.3545469045639038, 0.60302734375, 0.193359375, -0.69482421875
30, 3727853049, -6.363917350769043, 1.7144898176193237, 7.091339111328125, -0.18249687552452087, -0.6161967515945435, -1.4463938474655151, 0.60107421875, 0.19189453125, -0.698486328125
31, 3727869716, -6.368480205535889, 1.6926355361938477, 7.083920478820801, -0.3256526589393616, -0.7183722257614136, -1.430200457572937, 0.60205078125, 0.1923828125, -0.69482421875
32, 3727886383, -6.355037689208984, 1.7070307731628418, 7.093162536621094, -0.3323375880718231, -0.8524802327156067, -1.3212695121765137, 0.60400390625, 0.1923828125, -0.696533203125
33, 3727903050, -6.354588508605957, 1.7194949388504028, 7.076808452606201, -0.2803053855895996, -0.8821398615837097, -1.349686861038208, 0.603515625, 0.1923828125, -0.69482421875
34, 3727919717, -6.35465669631958, 1.7228039503097534, 7.087488174438477, -0.25415483117103577, -0.9125421047210693, -1.301266074180603, 0.603515625, 0.19140625, -0.695556640625
35, 3727936384, -6.347719192504883, 1.713520884513855, 7.109166622161865, -0.3019353151321411, -0.8679888248443604, -1.3249577283859253, 0.605712890625, 0.1904296875, -0.69580078125
36, 3727953051, -6.3478899002075195, 1.7282214164733887, 7.108144760131836, -0.33479639887809753, -0.7819685339927673, -1.3590739965438843, 0.6025390625, 0.19140625, -0.6953125
37, 3727969718, -6.348199367523193, 1.7194565534591675, 7.0925612449646, -0.3404567539691925, -0.9152568578720093, -1.4566198587417603, 0.60205078125, 0.1923828125, -0.697021484375
38, 3727986385, -6.349246025085449, 1.7091947793960571, 7.104823112487793, -0.3152026832103729, -0.8377785682678223, -1.4042162895202637, 0.60205078125, 0.1923828125, -0.6943359375
39, 3728003052, -6.357002258300781, 1.697543740272522, 7.09747314453125, -0.20925575494766235, -0.7258127331733704, -1.3762471675872803, 0.60205078125, 0.18994140625, -0.697021484375
40, 3728019719, -6.343599796295166, 1.7184418439865112, 7.099434852600098, -0.2447037249803543, -0.8121402859687805, -1.399362564086914, 0.6025390625, 0.19140625, -0.6943359375
41, 3728036386, -6.346236228942871, 1.7150753736495972, 7.076274394989014, -0.3056876063346863, -0.8069666028022766, -1.4118232727050781, 0.603515625, 0.1904296875, -0.697509765625
42, 3728053053, -6.35858678817749, 1.7027925252914429, 7.112824440002441, -0.38316601514816284, -0.8149961233139038, -1.5087546110153198, 0.60205078125, 0.18994140625, -0.695556640625
43, 3728069720, -6.360752105712891, 1.7263292074203491, 7.111266613006592, -0.2612367272377014, -0.8852773308753967, -1.467274785041809, 0.60205078125, 0.19287109375, -0.697021484375
44, 3728086387, -6.348593235015869, 1.7078495025634766, 7.098858833312988, -0.29843923449516296, -0.8059548735618591, -1.4480141401290894, 0.60205078125, 0.19287109375, -0.695556640625
45, 3728103054, -6.352064609527588, 1.7103277444839478, 7.103936672210693, -0.34601473808288574, -0.8100528120994568, -1.433337926864624, 0.60302734375, 0.1923828125, -0.696044921875
46, 3728119721, -6.339887619018555, 1.7120356559753418, 7.088951110839844, -0.23658452928066254, -0.9041154384613037, -1.3891816139221191, 0.603515625, 0.19189453125, -0.69482421875
47, 3728136388, -6.338156700134277, 1.7165616750717163, 7.098814487457275, -0.27218616008758545, -0.9197649359703064, -1.466429591178894, 0.60498046875, 0.19091796875, -0.696044921875
48, 3728153055, -6.339052677154541, 1.713114857673645, 7.079344749450684, -0.3086458444595337, -0.8106803894042969, -1.3557826280593872, 0.6025390625, 0.19189453125, -0.697021484375
49, 3728169722, -6.342263221740723, 1.720325231552124, 7.079040050506592, -0.22610893845558167, -0.7018135786056519, -1.3803837299346924, 0.603515625, 0.19287109375, -0.695556640625
50, 3728186389, -6.338683605194092, 1.718054175376892, 7.105207443237305, -0.15589170157909393, -0.7303718328475952, -1.4596294164657593, 0.6015625, 0.19384765625, -0.694580078125
51, 3728203056, -6.348272800445557, 1.7152384519577026, 7.104833602905273, -0.21544121205806732, -0.714389443397522, -1.3849940299987793, 0.6025390625, 0.193359375, -0.697021484375
52, 3728219723, -6.36765193939209, 1.7111848592758179, 7.111055374145508, -0.17745119333267212, -0.7712944149971008, -1.4214088916778564, 0.60107421875, 0.1923828125, -0.697021484375
53, 3728236390, -6.345242977142334, 1.711952805519104, 7.098846435546875, -0.21544121205806732, -0.727772057056427, -1.4737547636032104, 0.60302734375, 0.1904296875, -0.696533203125
54, 3728253057, -6.352717876434326, 1.699362874031067, 7.09175443649292, -0.21905262768268585, -0.660372257232666, -1.4569015502929688, 0.60205078125, 0.19140625, -0.697021484375
55, 3728269724, -6.348450660705566, 1.7037500143051147, 7.091056823730469, -0.22876620292663574, -0.6619793772697449, -1.4078466892242432, 0.6015625, 0.1923828125, -0.696533203125
56, 3728286391, -6.349891185760498, 1.7025257349014282, 7.109538555145264, -0.25360414385795593, -0.7024794816970825, -1.3876447677612305, 0.6025390625, 0.1923828125, -0.697509765625
57, 3728303058, -6.3484272956848145, 1.7154648303985596, 7.09558629989624, -0.1594390571117401, -0.6646623611450195, -1.4638808965682983, 0.6015625, 0.19287109375, -0.697021484375
58, 3728319725, -6.346324443817139, 1.703970193862915, 7.093127250671387, -0.1751268059015274, -0.6094412803649902, -1.492490291595459, 0.60302734375, 0.194091796875, -0.69482421875
59, 3728336392, -6.338032245635986, 1.7169290781021118, 7.094421863555908, -0.21597908437252045, -0.541900634765625, -1.4261150360107422, 0.6015625, 0.19287109375, -0.695068359375
60, 3728353059, -6.36450719833374, 1.7225487232208252, 7.080391883850098, -0.23387597501277924, -0.5303686261177063, -1.4552944898605347, 0.6044921875, 0.1923828125, -0.696044921875
61, 3728369726, -6.364466667175293, 1.713905930519104, 7.089859485626221, -0.23712237179279327, -0.6655203700065613, -1.5222523212432861, 0.60498046875, 0.194091796875, -0.697021484375
62, 3728386393, -6.349020957946777, 1.723387360572815, 7.09555721282959, -0.27871739864349365, -0.6693239212036133, -1.5098047256469727, 0.6044921875, 0.19287109375, -0.6943359375
63, 3728403060, -6.3509907722473145, 1.7034251689910889, 7.081460475921631, -0.2983495593070984, -0.718397855758667, -1.4867277145385742, 0.603515625, 0.19287109375, -0.695556640625
64, 3728419727, -6.354659557342529, 1.7018015384674072, 7.085318088531494, -0.29481497406959534, -0.797592282295227, -1.5076277256011963, 0.60498046875, 0.19140625, -0.696533203125
65, 3728436394, -6.348204612731934, 1.6946146488189697, 7.080605983734131, -0.22391903400421143, -0.82059246301651, -1.3811391592025757, 0.6025390625, 0.193359375, -0.697998046875
66, 3728453061, -6.352385997772217, 1.686048984527588, 7.124346733093262, -0.14549294114112854, -0.7668443322181702, -1.3200531005859375, 0.60302734375, 0.19384765625, -0.69482421875
67, 3728469728, -6.348945617675781, 1.6862115859985352, 7.102315425872803, -0.01744224689900875, -0.6378458142280579, -1.2485679388046265, 0.6025390625, 0.19287109375, -0.696044921875
68, 3728486395, -6.343129634857178, 1.7083193063735962, 7.09885835647583, -0.1792120635509491, -0.6234772205352783, -1.3557443618774414, 0.60302734375, 0.1923828125, -0.69482421875
69, 3728503062, -6.352795600891113, 1.7124465703964233, 7.108856201171875, -0.2155308723449707, -0.7772558331489563, -1.3532599210739136, 0.60400390625, 0.19091796875, -0.697021484375
70, 3728519729, -6.342555999755859, 1.7139339447021484, 7.081798076629639, -0.3204532563686371, -0.7872958779335022, -1.4289708137512207, 0.60302734375, 0.19140625, -0.695556640625
71, 3728536396, -6.361921787261963, 1.6817500591278076, 7.107606887817383, -0.23503492772579193, -0.8142021298408508, -1.3379818201065063, 0.6044921875, 0.1923828125, -0.697021484375
72, 3728553063, -6.353681564331055, 1.6886966228485107, 7.08602237701416, -0.1074068546295166, -0.814445436000824, -1.2672652006149292, 0.60400390625, 0.194580078125, -0.695556640625
73, 3728569730, -6.354976654052734, 1.7055646181106567, 7.09178352355957, -0.11921432614326477, -0.8141124844551086, -1.3219867944717407, 0.60302734375, 0.194091796875, -0.695068359375
74, 3728586397, -6.3552045822143555, 1.6980839967727661, 7.10052490234375, -0.18260574340820312, -0.7307687997817993, -1.2515774965286255, 0.60205078125, 0.19189453125, -0.697021484375
75, 3728603064, -6.351543426513672, 1.7242215871810913, 7.110403537750244, -0.22884948551654816, -0.7715056538581848, -1.3064526319503784, 0.6025390625, 0.193359375, -0.695556640625
76, 3728619731, -6.351529598236084, 1.7152479887008667, 7.125988006591797, -0.20505529642105103, -0.7662167549133301, -1.3403126001358032, 0.60302734375, 0.194091796875, -0.6943359375
77, 3728636398, -6.337772846221924, 1.7112681865692139, 7.098153591156006, -0.16833947598934174, -0.7862458825111389, -1.3818819522857666, 0.603515625, 0.194580078125, -0.698974609375
78, 3728653065, -6.354023456573486, 1.7024356126785278, 7.0770673751831055, -0.30279335379600525, -0.7818148732185364, -1.4719876050949097, 0.60302734375, 0.19091796875, -0.696533203125
79, 3728669732, -6.357348442077637, 1.706956148147583, 7.081723213195801, -0.3119242787361145, -0.7449198365211487, -1.4517277479171753, 0.6025390625, 0.194580078125, -0.696044921875
80, 3728686399, -6.350467681884766, 1.686689019203186, 7.084804534912109, -0.27465781569480896, -0.895317554473877, -1.4204035997390747, 0.6015625, 0.19287109375, -0.69482421875
81, 3728703066, -6.364567279815674, 1.6919771432876587, 7.090598106384277, -0.3492291569709778, -0.7418717741966248, -1.3077971935272217, 0.603515625, 0.19384765625, -0.695068359375
82, 3728719733, -6.372402191162109, 1.7013200521469116, 7.095571994781494, -0.19077618420124054, -0.8554770350456238, -1.40926194190979, 0.6025390625, 0.193359375, -0.695556640625
83, 3728736400, -6.346996784210205, 1.7047027349472046, 7.092227935791016, -0.18501333892345428, -0.7950822114944458, -1.3790901899337769, 0.603515625, 0.19189453125, -0.6953125
84, 3728753067, -6.351844787597656, 1.708372712135315, 7.106515884399414, -0.22589121758937836, -0.8207846283912659, -1.4016294479370117, 0.60302734375, 0.194580078125, -0.698974609375
85, 3728769734, -6.36272668838501, 1.6977640390396118, 7.110255718231201, -0.25839370489120483, -0.7438567876815796, -1.4429171085357666, 0.6015625, 0.19384765625, -0.697021484375
86, 3728786401, -6.3445048332214355, 1.722226619720459, 7.076366424560547, -0.36640244722366333, -0.7253516912460327, -1.4546092748641968, 0.6015625, 0.19287109375, -0.697021484375
87, 3728803068, -6.353933811187744, 1.7044023275375366, 7.10827112197876, -0.2857992947101593, -0.8292111158370972, -1.4432755708694458, 0.60302734375, 0.193359375, -0.697021484375
88, 3728819735, -6.359753131866455, 1.6982779502868652, 7.089328289031982, -0.29421311616897583, -0.852390706539154, -1.417752742767334, 0.60546875, 0.195068359375, -0.698486328125
89, 3728836402, -6.350036144256592, 1.707321286201477, 7.093833923339844, -0.3522002696990967, -0.8511356711387634, -1.4236948490142822, 0.603515625, 0.193359375, -0.696533203125
90, 3728853069, -6.35705041885376, 1.686309576034546, 7.087906837463379, -0.3301989734172821, -0.8377529978752136, -1.49655020236969, 0.603515625, 0.1923828125, -0.696044921875
91, 3728869736, -6.341874122619629, 1.7067618370056152, 7.097163200378418, -0.3119242787361145, -0.8024330735206604, -1.4382684230804443, 0.60107421875, 0.193359375, -0.69384765625
92, 3728886403, -6.362268924713135, 1.6912068128585815, 7.099485397338867, -0.2664361298084259, -0.8098351359367371, -1.4177908897399902, 0.60302734375, 0.19287109375, -0.696533203125
93, 3728903070, -6.3519158363342285, 1.6823933124542236, 7.107404708862305, -0.3595638573169708, -0.8448092341423035, -1.4468483924865723, 0.603515625, 0.19189453125, -0.697509765625
94, 3728919737, -6.3594865798950195, 1.7018917798995972, 7.081058502197266, -0.30573880672454834, -0.8255997896194458, -1.4321470260620117, 0.6015625, 0.19189453125, -0.695556640625
95, 3728936404, -6.359092712402344, 1.701051950454712, 7.1162309646606445, -0.3012181520462036, -0.8337573409080505, -1.3905774354934692, 0.603515625, 0.193359375, -0.695556640625
96, 3728953071, -6.3528876304626465, 1.6921837329864502, 7.099292755126953, -0.3213817775249481, -0.9266867637634277, -1.3977171182632446, 0.603515625, 0.193359375, -0.697509765625
97, 3728969738, -6.343285083770752, 1.6983641386032104, 7.064512252807617, -0.27638664841651917, -0.9363619685173035, -1.3914101123809814, 0.60302734375, 0.1923828125, -0.696044921875
98, 3728986405, -6.345358371734619, 1.6941527128219604, 7.103029251098633, -0.23605942726135254, -0.9324303269386292, -1.3572168350219727, 0.6025390625, 0.194091796875, -0.696044921875
99, 3729003072, -6.351539611816406, 1.6920424699783325, 7.099773406982422, -0.27072620391845703, -0.8953303694725037, -1.3769899606704712, 0.60009765625, 0.1943359375, -0.694580078125
100, 3729019739, -6.3597493171691895, 1.6994123458862305, 7.096489906311035, -0.2857224643230438, -0.9137843251228333, -1.3360865116119385, 0.603515625, 0.194580078125, -0.696533203125
101, 3729036406, -6.3412909507751465, 1.7011051177978516, 7.088777542114258, -0.23915857076644897, -0.8542218804359436, -1.272425889968872, 0.60400390625, 0.194091796875, -0.696533203125
102, 3729053073, -6.353437423706055, 1.711713433265686, 7.07196569442749, -0.2092621773481369, -0.874744176864624, -1.2995820045471191, 0.60400390625, 0.1923828125, -0.696044921875
103, 3729069740, -6.353163242340088, 1.702270746231079, 7.0878586769104, -0.3287646174430847, -0.9201107025146484, -1.361135721206665, 0.60302734375, 0.194580078125, -0.696044921875
104, 3729086407, -6.350046157836914, 1.696007251739502, 7.102471828460693, -0.20433811843395233, -0.812511682510376, -1.2628471851348877, 0.60302734375, 0.195068359375, -0.695068359375
105, 3729103074, -6.353188991546631, 1.7006659507751465, 7.092080593109131, -0.19336307048797607, -0.8354093432426453, -1.205128788948059, 0.6025390625, 0.193359375, -0.696533203125
106, 3729119741, -6.357227802276611, 1.7081624269485474, 7.117011547088623, -0.17759846150875092, -0.790010929107666, -1.3238435983657837, 0.60498046875, 0.1923828125, -0.696533203125
107, 3729136408, -6.349925994873047, 1.7024996280670166, 7.099794864654541, -0.36635124683380127, -0.7895498871803284, -1.321205496788025, 0.60302734375, 0.194091796875, -0.6943359375
108, 3729153075, -6.357682228088379, 1.7021564245224, 7.111673355102539, -0.3737276792526245, -0.9641260504722595, -1.401232361793518, 0.603515625, 0.193359375, -0.69482421875
109, 3729169742, -6.350008487701416, 1.708001971244812, 7.097022533416748, -0.35952550172805786, -0.9838479161262512, -1.4540075063705444, 0.603515625, 0.19384765625, -0.696044921875
110, 3729186409, -6.3549628257751465, 1.6873362064361572, 7.085675239562988, -0.3666073679924011, -1.0493906736373901, -1.4746638536453247, 0.60205078125, 0.1943359375, -0.696044921875
111, 3729203076, -6.352799892425537, 1.6990660429000854, 7.066471099853516, -0.4021962285041809, -1.0070017576217651, -1.377732753753662, 0.60302734375, 0.194580078125, -0.696533203125
112, 3729219743, -6.336857795715332, 1.700086236000061, 7.100686073303223, -0.3938977122306824, -1.0155434608459473, -1.3931899070739746, 0.6025390625, 0.194580078125, -0.695556640625
113, 3729236410, -6.344512939453125, 1.708189606666565, 7.113437175750732, -0.28649088740348816, -0.9036161303520203, -1.3981332778930664, 0.60302734375, 0.19287109375, -0.698486328125
114, 3729253077, -6.336105823516846, 1.6952176094055176, 7.119650363922119, -0.2690998613834381, -0.7343417406082153, -1.4054713249206543, 0.603515625, 0.194580078125, -0.69482421875
115, 3729269744, -6.342350959777832, 1.6914228200912476, 7.104377269744873, -0.25954630970954895, -0.7187308073043823, -1.3702155351638794, 0.60400390625, 0.193359375, -0.697021484375
116, 3729286411, -6.346347332000732, 1.6967058181762695, 7.090258598327637, -0.3851509988307953, -0.797694742679596, -1.5062445402145386, 0.6015625, 0.19384765625, -0.696044921875
117, 3729303078, -6.341363430023193, 1.6989203691482544, 7.065884590148926, -0.32652348279953003, -0.8172883987426758, -1.474868655204773, 0.60302734375, 0.19384765625, -0.696533203125
118, 3729319745, -6.352989673614502, 1.689125657081604, 7.095623970031738, -0.31737977266311646, -0.7988985180854797, -1.4018471240997314, 0.600830078125, 0.195068359375, -0.698974609375
119, 3729336412, -6.34485387802124, 1.6830319166183472, 7.084320545196533, -0.1970769166946411, -0.8060444593429565, -1.4565173387527466, 0.6015625, 0.194580078125, -0.698486328125
120, 3729353079, -6.351136207580566, 1.701740026473999, 7.097375392913818, -0.305085688829422, -0.9767531156539917, -1.4319932460784912, 0.6025390625, 0.19287109375, -0.695556640625
121, 3729369746, -6.3420939445495605, 1.7046899795532227, 7.105583667755127, -0.2953272759914398, -0.8529285788536072, -1.460858941078186, 0.60302734375, 0.195556640625, -0.696044921875
122, 3729386413, -6.349488735198975, 1.6967947483062744, 7.102169036865234, -0.2901022434234619, -0.8631607294082642, -1.366155743598938, 0.60302734375, 0.196044921875, -0.695556640625
123, 3729403080, -6.351408004760742, 1.6851592063903809, 7.109275817871094, -0.22997644543647766, -0.8633145093917847, -1.4026283025741577, 0.603515625, 0.194580078125, -0.697998046875
124, 3729419747, -6.346715450286865, 1.6836110353469849, 7.114189624786377, -0.2757207453250885, -0.8486384153366089, -1.4630486965179443, 0.603515625, 0.194091796875, -0.697021484375
125, 3729436414, -6.356078147888184, 1.7110027074813843, 7.09893274307251, -0.35389068722724915, -0.9562886357307434, -1.4395618438720703, 0.60205078125, 0.195068359375, -0.697998046875
126, 3729453081, -6.342597484588623, 1.6925389766693115, 7.0937395095825195, -0.28392958641052246, -0.855195164680481, -1.3690370321273804, 0.6015625, 0.195068359375, -0.696533203125
127, 3729469748, -6.3549981117248535, 1.6791120767593384, 7.097127437591553, -0.35633665323257446, -0.93482506275177, -1.3789620399475098, 0.6015625, 0.195068359375, -0.694580078125
128, 3729486415, -6.352031707763672, 1.687497615814209, 7.124625205993652, -0.3131408989429474, -0.8852517008781433, -1.3869404792785645, 0.60107421875, 0.19384765625, -0.697998046875
129, 3729503082, -6.351572513580322, 1.6878749132156372, 7.111653804779053, -0.30485519766807556, -0.9148216843605042, -1.4406888484954834, 0.60302734375, 0.19384765625, -0.697021484375
130, 3729519749, -6.359164714813232, 1.6842279434204102, 7.108222484588623, -0.37828680872917175, -0.8829723000526428, -1.4073156118392944, 0.6025390625, 0.194091796875, -0.697998046875
131, 3729536416, -6.352290630340576, 1.681908130645752, 7.127854824066162, -0.3345787525177002, -0.9751780033111572, -1.4031277894973755, 0.60302734375, 0.19287109375, -0.696044921875
132, 3729553083, -6.348357677459717, 1.6889199018478394, 7.101646900177002, -0.500709056854248, -0.9277751445770264, -1.508146047592163, 0.6025390625, 0.19384765625, -0.696533203125
133, 3729569750, -6.34501838684082, 1.683013677597046, 7.112995147705078, -0.5218843817710876, -0.9600023031234741, -1.5131982564926147, 0.6025390625, 0.194580078125, -0.697021484375
134, 3729586417, -6.3453688621521, 1.685057520866394, 7.134645462036133, -0.4523714780807495, -1.0559090375900269, -1.4341702461242676, 0.6015625, 0.19384765625, -0.697998046875
135, 3729603084, -6.34359884262085, 1.692448616027832, 7.121118068695068, -0.44913145899772644, -0.9459922313690186, -1.4522656202316284, 0.60107421875, 0.19384765625, -0.698974609375
136, 3729619751, -6.345360279083252, 1.6880398988723755, 7.101299285888672, -0.38744333386421204, -0.9677760004997253, -1.4381147623062134, 0.60302734375, 0.195068359375, -0.697021484375
137, 3729636418, -6.331816673278809, 1.6725726127624512, 7.100367069244385, -0.2513117790222168, -1.0006625652313232, -1.3997467756271362, 0.6025390625, 0.193359375, -0.696533203125
138, 3729653085, -6.3316264152526855, 1.6803778409957886, 7.109089374542236, -0.31907662749290466, -0.9207318425178528, -1.414903163909912, 0.603515625, 0.195068359375, -0.698974609375
139, 3729669752, -6.338934898376465, 1.6830332279205322, 7.114343166351318, -0.3262033462524414, -0.8824087977409363, -1.4131295680999756, 0.6015625, 0.195556640625, -0.697509765625
140, 3729686419, -6.334878921508789, 1.6846847534179688, 7.114312648773193, -0.4265667498111725, -1.0091660022735596, -1.4457087516784668, 0.60302734375, 0.194091796875, -0.697021484375
141, 3729703086, -6.323013782501221, 1.6901031732559204, 7.076435089111328, -0.3213881254196167, -0.9678654670715332, -1.5330606698989868, 0.6005859375, 0.195068359375, -0.697021484375
142, 3729719753, -6.334743499755859, 1.678000569343567, 7.103824138641357, -0.1809409111738205, -0.8356654644012451, -1.3324494361877441, 0.6025390625, 0.19384765625, -0.697021484375
143, 3729736420, -6.344971179962158, 1.689848780632019, 7.118329048156738, -0.047793302685022354, -0.6245529055595398, -1.2814674377441406, 0.6015625, 0.195068359375, -0.697509765625
144, 3729753087, -6.335442543029785, 1.701862096786499, 7.093691349029541, -0.07222781330347061, -0.695461630821228, -1.3033661842346191, 0.603515625, 0.195068359375, -0.698486328125
145, 3729769754, -6.344406604766846, 1.6789016723632812, 7.090890884399414, 0.010859785601496696, -0.7229313254356384, -1.290687918663025, 0.60400390625, 0.197509765625, -0.698974609375
146, 3729786421, -6.3572001457214355, 1.6828029155731201, 7.10851526260376, -0.13001005351543427, -0.8046229481697083, -1.3241124153137207, 0.60205078125, 0.1943359375, -0.697998046875
147, 3729803088, -6.339150428771973, 1.6677989959716797, 7.093034267425537, -0.05437576398253441, -0.8231152892112732, -1.3318475484848022, 0.60205078125, 0.19287109375, -0.699951171875
148, 3729819755, -6.344448089599609, 1.6798723936080933, 7.098431587219238, -0.12502838671207428, -0.796170711517334, -1.166005253791809, 0.6005859375, 0.194580078125, -0.696044921875
149, 3729836422, -6.344202041625977, 1.6734380722045898, 7.088438034057617, -0.040109485387802124, -0.7667801976203918, -1.2291151285171509, 0.6005859375, 0.1943359375, -0.695556640625
150, 3729853089, -6.335850238800049, 1.6861177682876587, 7.103949069976807, 0.07442411035299301, -0.630149245262146, -1.1551967859268188, 0.6025390625, 0.196533203125, -0.698486328125
151, 3729869756, -6.358293056488037, 1.6724640130996704, 7.119041919708252, -0.020310871303081512, -0.6897500157356262, -1.2061275243759155, 0.6044921875, 0.194580078125, -0.696533203125
152, 3729886423, -6.329853534698486, 1.70028817653656, 7.1019487380981445, 0.01675710827112198, -0.6609485745429993, -1.2893306016921997, 0.603515625, 0.193359375, -0.696044921875
153, 3729903090, -6.343036651611328, 1.67960786819458, 7.1099629402160645, 0.03440425917506218, -0.5947396755218506, -1.2453023195266724, 0.6025390625, 0.193359375, -0.697021484375
154, 3729919757, -6.347854137420654, 1.6890536546707153, 7.129731178283691, 0.02848772518336773, -0.6165873408317566, -1.1847026348114014, 0.6044921875, 0.195556640625, -0.698486328125
155, 3729936424, -6.341360092163086, 1.6912139654159546, 7.091187953948975, -0.03132432699203491, -0.6563125848770142, -1.2884211540222168, 0.60107421875, 0.195068359375, -0.698486328125
156, 3729953091, -6.351398468017578, 1.6796480417251587, 7.0953874588012695, -0.13150839507579803, -0.7984886765480042, -1.1995195150375366, 0.6025390625, 0.194580078125, -0.694580078125
157, 3729969758, -6.340290546417236, 1.693122386932373, 7.101313591003418, -0.17414073646068573, -0.8599463105201721, -1.3138545751571655, 0.6005859375, 0.194580078125, -0.697021484375
158, 3729986425, -6.350498199462891, 1.6833845376968384, 7.113952159881592, -0.15499526262283325, -0.7650769948959351, -1.2868589162826538, 0.60205078125, 0.1943359375, -0.695068359375
159, 3730003092, -6.342851638793945, 1.7018053531646729, 7.104820251464844, -0.14370006322860718, -0.7307815551757812, -1.3172228336334229, 0.6015625, 0.19384765625, -0.697021484375
160, 3730019759, -6.339621067047119, 1.6859349012374878, 7.105122089385986, -0.23302435874938965, -0.6831162571907043, -1.3861209154129028, 0.60302734375, 0.19384765625, -0.696533203125
161, 3730036426, -6.34004545211792, 1.6793208122253418, 7.091783046722412, -0.12268483638763428, -0.7148248553276062, -1.2808526754379272, 0.6025390625, 0.194091796875, -0.698974609375
162, 3730053093, -6.331728935241699, 1.6686038970947266, 7.106823444366455, -0.13345496356487274, -0.8083112239837646, -1.3842896223068237, 0.60205078125, 0.194580078125, -0.697509765625
163, 3730069760, -6.3448100090026855, 1.676328420639038, 7.097929000854492, -0.07836204767227173, -0.7673948407173157, -1.2744879722595215, 0.6025390625, 0.193359375, -0.697021484375
164, 3730086427, -6.337836265563965, 1.6929717063903809, 7.106245517730713, -0.08358705043792725, -0.7950950264930725, -1.2204322814941406, 0.6025390625, 0.193359375, -0.697509765625
165, 3730103094, -6.340212345123291, 1.7051405906677246, 7.087582111358643, -0.06613198667764664, -0.7890504598617554, -1.2034766674041748, 0.60205078125, 0.195556640625, -0.697509765625
166, 3730119761, -6.343258857727051, 1.6858179569244385, 7.105265140533447, -0.03453872352838516, -0.69547438621521, -1.212133765220642, 0.60302734375, 0.19287109375, -0.695068359375
167, 3730136428, -6.355453968048096, 1.7098137140274048, 7.112881183624268, -0.09795576333999634, -0.7490050196647644, -1.281224012374878, 0.60205078125, 0.19287109375, -0.697021484375
168, 3730153095, -6.356752872467041, 1.693576693534851, 7.126863479614258, -0.01594390533864498, -0.6941041350364685, -1.1545565128326416, 0.6015625, 0.194580078125, -0.698486328125
169, 3730169762, -6.3509440422058105, 1.6904116868972778, 7.10188627243042, -0.05170563608407974, -0.6032239198684692, -1.1784082651138306, 0.60107421875, 0.19384765625, -0.697509765625
170, 3730186429, -6.345008850097656, 1.666710376739502, 7.0994873046875, 0.00987369567155838, -0.6943089962005615, -1.1798105239868164, 0.6005859375, 0.19384765625, -0.698486328125
171, 3730203096, -6.348458290100098, 1.6711821556091309, 7.101983547210693, 0.08979172259569168, -0.702927827835083, -1.011061429977417, 0.603515625, 0.19287109375, -0.696044921875
172, 3730219763, -6.336889743804932, 1.6932274103164673, 7.12346076965332, 0.16465765237808228, -0.698624849319458, -0.9587218761444092, 0.60205078125, 0.1923828125, -0.696044921875
173, 3730236430, -6.350944519042969, 1.7116358280181885, 7.107912063598633, 0.23344695568084717, -0.5635306239128113, -0.8800395131111145, 0.60205078125, 0.19287109375, -0.697509765625
174, 3730253097, -6.341924667358398, 1.7116808891296387, 7.092751979827881, 0.09207124263048172, -0.7271573543548584, -1.1290078163146973, 0.60205078125, 0.19384765625, -0.695556640625
175, 3730269764, -6.347413063049316, 1.6955708265304565, 7.088650226593018, -0.07276567816734314, -0.9560964107513428, -1.2056152820587158, 0.6044921875, 0.193603515625, -0.695068359375
176, 3730286431, -6.345225811004639, 1.7121362686157227, 7.110320091247559, -0.09979988634586334, -0.9090843200683594, -1.2685458660125732, 0.6015625, 0.193359375, -0.696044921875
177, 3730303098, -6.349691867828369, 1.710413932800293, 7.108194351196289, -0.16170577704906464, -0.8685393929481506, -1.264422059059143, 0.599853515625, 0.1943359375, -0.696533203125
178, 3730319765, -6.342411041259766, 1.6937121152877808, 7.117834568023682, -0.15787668526172638, -0.9746145606040955, -1.2455198764801025, 0.60302734375, 0.19287109375, -0.6943359375
179, 3730336432, -6.348204135894775, 1.6995128393173218, 7.110945224761963, -0.09912114590406418, -0.7898699641227722, -1.2748976945877075, 0.60302734375, 0.1923828125, -0.697021484375
180, 3730353099, -6.330906391143799, 1.6983802318572998, 7.102601051330566, -0.04411787539720535, -0.716374397277832, -1.1780306100845337, 0.6044921875, 0.19091796875, -0.698974609375
181, 3730369766, -6.349740028381348, 1.7094684839248657, 7.104575157165527, -0.0694616436958313, -0.7564199566841125, -1.2315483093261719, 0.60302734375, 0.193359375, -0.69482421875
182, 3730386433, -6.339895248413086, 1.7033567428588867, 7.083155155181885, -0.144109845161438, -0.7223933935165405, -1.25712251663208, 0.60400390625, 0.193359375, -0.697998046875
183, 3730403100, -6.352827548980713, 1.7050855159759521, 7.097390174865723, -0.17160509526729584, -0.7293472290039062, -1.3144183158874512, 0.6025390625, 0.193359375, -0.697998046875
184, 3730419767, -6.34461784362793, 1.6966561079025269, 7.0929670333862305, -0.07002512365579605, -0.7361986041069031, -1.3456528186798096, 0.60400390625, 0.194580078125, -0.697021484375
185, 3730436434, -6.350807189941406, 1.6985403299331665, 7.092418193817139, -0.130048468708992, -0.8006914258003235, -1.2716704607009888, 0.60205078125, 0.1923828125, -0.696044921875
186, 3730453101, -6.342637538909912, 1.7068488597869873, 7.0886359214782715, -0.15011602640151978, -0.7835181355476379, -1.2139523029327393, 0.60107421875, 0.19287109375, -0.6943359375
187, 3730469768, -6.341371536254883, 1.7104158401489258, 7.12002420425415, -0.11867644637823105, -0.7622084021568298, -1.1267410516738892, 0.60205078125, 0.193359375, -0.697509765625
188, 3730486435, -6.341719150543213, 1.717718482017517, 7.1091718673706055, -0.13919220864772797, -0.7562533617019653, -1.2591073513031006, 0.6025390625, 0.19287109375, -0.696044921875
189, 3730503102, -6.3472089767456055, 1.7077162265777588, 7.1283860206604, -0.11215800046920776, -0.7443178296089172, -1.3204115629196167, 0.6005859375, 0.19091796875, -0.696533203125
190, 3730519769, -6.344091415405273, 1.7183897495269775, 7.12075662612915, -0.19456687569618225, -0.7500806450843811, -1.287473440170288, 0.60205078125, 0.19189453125, -0.696533203125
191, 3730536436, -6.350841522216797, 1.7112034559249878, 7.076479434967041, -0.2691638767719269, -0.7854518890380859, -1.3312456607818604, 0.6025390625, 0.19140625, -0.697998046875
192, 3730553103, -6.351617336273193, 1.7098937034606934, 7.089958667755127, -0.23709675669670105, -0.8801676034927368, -1.3070032596588135, 0.6025390625, 0.195556640625, -0.697021484375
193, 3730569770, -6.337691307067871, 1.703557014465332, 7.094078063964844, -0.1446349322795868, -0.8319517970085144, -1.2509114742279053, 0.60107421875, 0.194580078125, -0.697021484375
194, 3730586437, -6.337896823883057, 1.698713779449463, 7.110132217407227, -0.0879155844449997, -0.9032061696052551, -1.2571351528167725, 0.60107421875, 0.1943359375, -0.695068359375
195, 3730603104, -6.338913917541504, 1.7068235874176025, 7.098684310913086, -0.16466405987739563, -0.8362546563148499, -1.2623732089996338, 0.6025390625, 0.19189453125, -0.698974609375
196, 3730619771, -6.338948726654053, 1.7050827741622925, 7.062440872192383, -0.253450483083725, -0.9431109428405762, -1.3327568769454956, 0.60302734375, 0.1923828125, -0.697021484375
197, 3730636438, -6.338542938232422, 1.7077252864837646, 7.118017673492432, -0.29006385803222656, -0.9135153889656067, -1.3741981983184814, 0.60302734375, 0.1923828125, -0.696533203125
198, 3730653105, -6.339563369750977, 1.7056695222854614, 7.1060004234313965, -0.15569961071014404, -0.9811456799507141, -1.3788468837738037, 0.60302734375, 0.19189453125, -0.696533203125
199, 3730669772, -6.34507417678833, 1.6950230598449707, 7.119390964508057, -0.2588547170162201, -0.899735689163208, -1.3510570526123047, 0.60400390625, 0.194091796875, -0.696533203125
200, 3730686439, -6.343990325927734, 1.702188491821289, 7.100962162017822, -0.3752901256084442, -0.8908225893974304, -1.2965916395187378, 0.60107421875, 0.19384765625, -0.697509765625
201, 3730703106, -6.339781284332275, 1.6991913318634033, 7.122746467590332, -0.17542137205600739, -0.8239220976829529, -1.4241684675216675, 0.60107421875, 0.1943359375, -0.697509765625
202, 3730719773, -6.3476338386535645, 1.709843635559082, 7.1082024574279785, -0.17800825834274292, -0.7529748678207397, -1.3822020292282104, 0.6015625, 0.1923828125, -0.696533203125
203, 3730736440, -6.342373847961426, 1.6887699365615845, 7.111408233642578, -0.20234033465385437, -0.7862586975097656, -1.3478939533233643, 0.6015625, 0.19384765625, -0.699462890625
204, 3730753107, -6.344592571258545, 1.7036794424057007, 7.122845649719238, -0.26587262749671936, -0.8084776401519775, -1.3007280826568604, 0.6005859375, 0.1923828125, -0.697021484375
205, 3730769774, -6.345566272735596, 1.6997004747390747, 7.108836650848389, -0.15368899703025818, -0.8434518575668335, -1.2286282777786255, 0.6044921875, 0.19287109375, -0.697509765625
206, 3730786441, -6.355126857757568, 1.7034398317337036, 7.1039228439331055, -0.16955606639385223, -0.7090364098548889, -1.3210774660110474, 0.603515625, 0.19287109375, -0.697021484375
207, 3730803108, -6.343677043914795, 1.7126840353012085, 7.118165969848633, -0.23079603910446167, -0.8160719275474548, -1.2717218399047852, 0.60205078125, 0.19140625, -0.697998046875
208, 3730819775, -6.34501838684082, 1.703725814819336, 7.104068756103516, -0.1382061243057251, -0.9726806282997131, -1.1742782592773438, 0.60205078125, 0.1923828125, -0.697998046875
209, 3730836442, -6.336220741271973, 1.7020763158798218, 7.088174343109131, -0.13874398171901703, -0.8059547543525696, -1.2113397121429443, 0.60205078125, 0.19384765625, -0.696044921875
210, 3730853109, -6.3421950340271, 1.722136378288269, 7.103166580200195, -0.028442906215786934, -0.8839583396911621, -1.2245945930480957, 0.603515625, 0.19091796875, -0.697998046875
211, 3730869776, -6.329319953918457, 1.7067325115203857, 7.10392427444458, -0.17627941071987152, -0.925604522228241, -1.2999086380004883, 0.6044921875, 0.19140625, -0.695556640625
212, 3730886443, -6.337111473083496, 1.7035059928894043, 7.07605504989624, -0.14257308840751648, -0.9034623503684998, -1.332500696182251, 0.60205078125, 0.193359375, -0.695068359375
213, 3730903110, -6.361939430236816, 1.6959433555603027, 7.08517599105835, -0.18761302530765533, -0.9070736765861511, -1.2960281372070312, 0.60400390625, 0.193359375, -0.698486328125
214, 3730919777, -6.339915752410889, 1.7119706869125366, 7.10936975479126, -0.1259632408618927, -0.9024121761322021, -1.2838494777679443, 0.603515625, 0.19384765625, -0.699462890625
215, 3730936444, -6.338807106018066, 1.7075332403182983, 7.102830410003662, -0.2164401113986969, -0.9374375939369202, -1.244815707206726, 0.603515625, 0.19384765625, -0.695556640625
216, 3730953111, -6.342268466949463, 1.6973326206207275, 7.107166290283203, -0.17501157522201538, -0.8414284586906433, -1.315442681312561, 0.60107421875, 0.1904296875, -0.696533203125
217, 3730969778, -6.343481063842773, 1.7028387784957886, 7.110084533691406, -0.22030764818191528, -0.7902670502662659, -1.3168129920959473, 0.603515625, 0.19287109375, -0.695068359375
218, 3730986445, -6.331570625305176, 1.7124075889587402, 7.097055435180664, -0.1173957958817482, -0.7731193900108337, -1.3714830875396729, 0.60205078125, 0.1943359375, -0.696044921875
219, 3731003112, -6.350917339324951, 1.7325892448425293, 7.1041035652160645, -0.07348284125328064, -0.7344313263893127, -1.2690709829330444, 0.60205078125, 0.19287109375, -0.697021484375
220, 3731019779, -6.325953006744385, 1.7060284614562988, 7.115548133850098, -0.21841228008270264, -0.8666825294494629, -1.3609050512313843, 0.60400390625, 0.1923828125, -0.698486328125
221, 3731036446, -6.3451619148254395, 1.7021148204803467, 7.103488922119141, -0.17981396615505219, -0.8081191778182983, -1.3970575332641602, 0.60400390625, 0.19189453125, -0.69482421875
222, 3731053113, -6.339942932128906, 1.7089025974273682, 7.097329139709473, -0.22558383643627167, -0.8061853051185608, -1.3054665327072144, 0.60302734375, 0.19287109375, -0.698486328125
223, 3731069780, -6.341830253601074, 1.7045867443084717, 7.108860015869141, -0.17934012413024902, -0.8288781046867371, -1.312330722808838, 0.603515625, 0.19287109375, -0.699951171875
224, 3731086447, -6.337186813354492, 1.7033950090408325, 7.0999369621276855, -0.20476073026657104, -0.8381115794181824, -1.3345369100570679, 0.60107421875, 0.1923828125, -0.696533203125
225, 3731103114, -6.328507900238037, 1.7174172401428223, 7.097025394439697, -0.2033904492855072, -0.7511692643165588, -1.3042243719100952, 0.6025390625, 0.19287109375, -0.697998046875
226, 3731119781, -6.3466033935546875, 1.7038503885269165, 7.103147983551025, -0.22523805499076843, -0.870806097984314, -1.3520559072494507, 0.599609375, 0.19091796875, -0.697021484375
227, 3731136448, -6.338790416717529, 1.6987406015396118, 7.098762035369873, -0.1380140334367752, -0.8476651906967163, -1.3119977712631226, 0.6015625, 0.19287109375, -0.697021484375
228, 3731153115, -6.3333563804626465, 1.712225317955017, 7.102548122406006, -0.1712721288204193, -0.8305558562278748, -1.3324623107910156, 0.6025390625, 0.19091796875, -0.696044921875
229, 3731169782, -6.326895236968994, 1.715110182762146, 7.100962162017822, -0.2275431901216507, -0.9506152868270874, -1.2960026264190674, 0.6025390625, 0.194091796875, -0.697021484375
230, 3731186449, -6.335697650909424, 1.7177693843841553, 7.1146464347839355, -0.15160155296325684, -0.8287885785102844, -1.3363553285598755, 0.60205078125, 0.19384765625, -0.698486328125
231, 3731203116, -6.337860584259033, 1.7085771560668945, 7.104539394378662, -0.17990359663963318, -0.8959705829620361, -1.3396720886230469, 0.6025390625, 0.19189453125, -0.696533203125
232, 3731219783, -6.33456563949585, 1.7051482200622559, 7.098694801330566, -0.114347904920578, -0.8237044215202332, -1.299293875694275, 0.60400390625, 0.19091796875, -0.696533203125
233, 3731236450, -6.3248419761657715, 1.6989868879318237, 7.105350494384766, -0.09885221719741821, -0.8518527150154114, -1.3282489776611328, 0.60302734375, 0.193359375, -0.697509765625
234, 3731253117, -6.33855676651001, 1.716483473777771, 7.10056734085083, -0.15609659254550934, -0.7832620143890381, -1.3118057250976562, 0.603515625, 0.1923828125, -0.698974609375
235, 3731269784, -6.334916114807129, 1.7141788005828857, 7.0851874351501465, -0.09741789847612381, -0.8164944052696228, -1.3358687162399292, 0.603515625, 0.19384765625, -0.695556640625
236, 3731286451, -6.3349609375, 1.7172164916992188, 7.095320701599121, -0.1893162727355957, -0.7526163458824158, -1.3445643186569214, 0.6015625, 0.1923828125, -0.695068359375
237, 3731303118, -6.341979503631592, 1.7087525129318237, 7.119801998138428, -0.14571064710617065, -0.7359553575515747, -1.2843873500823975, 0.6015625, 0.193359375, -0.697509765625
238, 3731319785, -6.3357977867126465, 1.7175796031951904, 7.111309051513672, -0.1348508596420288, -0.7436006665229797, -1.2523585557937622, 0.60302734375, 0.195068359375, -0.696533203125
239, 3731336452, -6.334860801696777, 1.7112452983856201, 7.11694860458374, -0.17008112370967865, -0.8282378315925598, -1.3516461849212646, 0.60400390625, 0.19140625, -0.697509765625
240, 3731353119, -6.345396518707275, 1.7210618257522583, 7.137743949890137, -0.19228734076023102, -0.7390672564506531, -1.3848915100097656, 0.6015625, 0.193359375, -0.695556640625
241, 3731369786, -6.338314533233643, 1.7041950225830078, 7.100510120391846, -0.21400690078735352, -0.8621618151664734, -1.322729468345642, 0.603515625, 0.19384765625, -0.697509765625
242, 3731386453, -6.349641799926758, 1.70657479763031, 7.113306522369385, -0.24727779626846313, -0.8269444108009338, -1.407725214958191, 0.60205078125, 0.19287109375, -0.696044921875
243, 3731403120, -6.347929954528809, 1.6876286268234253, 7.105494976043701, -0.2812018394470215, -0.8495092988014221, -1.351082682609558, 0.60107421875, 0.193359375, -0.698974609375
244, 3731419787, -6.348820209503174, 1.6973596811294556, 7.111451148986816, -0.10665129125118256, -0.7676637768745422, -1.3702795505523682, 0.5986328125, 0.19140625, -0.697021484375
245, 3731436454, -6.325430393218994, 1.7139168977737427, 7.1033759117126465, -0.21824580430984497, -0.8308247327804565, -1.4021799564361572, 0.60205078125, 0.1923828125, -0.697998046875
246, 3731453121, -6.3292555809021, 1.7145817279815674, 7.113528728485107, -0.1959371566772461, -0.7714032530784607, -1.4165743589401245, 0.6025390625, 0.19189453125, -0.696533203125
247, 3731469788, -6.3292317390441895, 1.6938796043395996, 7.112137794494629, -0.21020343899726868, -0.7750915288925171, -1.512404441833496, 0.6005859375, 0.1923828125, -0.696044921875
248, 3731486455, -6.341338634490967, 1.709057092666626, 7.120444297790527, -0.19787730276584625, -0.82753986120224, -1.4684206247329712, 0.598876953125, 0.19384765625, -0.698486328125
249, 3731503122, -6.327463626861572, 1.7018123865127563, 7.136180877685547, -0.18725444376468658, -0.7981941103935242, -1.4334659576416016, 0.60205078125, 0.19189453125, -0.696533203125
250, 3731519789, -6.341510772705078, 1.7064149379730225, 7.125085830688477, -0.2907041013240814, -0.8150088787078857, -1.3856086730957031, 0.60400390625, 0.19189453125, -0.698486328125
251, 3731536456, -6.330793380737305, 1.6996833086013794, 7.123051166534424, -0.16878767311573029, -0.6883028149604797, -1.3456655740737915, 0.6025390625, 0.19140625, -0.698486328125
252, 3731553123, -6.33059024810791, 1.7094975709915161, 7.100694179534912, -0.20496562123298645, -0.7502343654632568, -1.3540153503417969, 0.6015625, 0.1923828125, -0.697021484375
253, 3731569790, -6.328964710235596, 1.7102137804031372, 7.094518184661865, -0.20249401032924652, -0.8383420705795288, -1.3160316944122314, 0.603515625, 0.19140625, -0.697021484375
254, 3731586457, -6.342436790466309, 1.6936842203140259, 7.114462375640869, -0.17140017449855804, -0.7581869959831238, -1.3538230657577515, 0.6025390625, 0.19287109375, -0.697509765625
255, 3731603124, -6.339282512664795, 1.7030375003814697, 7.108952045440674, -0.10339846462011337, -0.7634633183479309, -1.2729767560958862, 0.60107421875, 0.1923828125, -0.698974609375
256, 3731619791, -6.321699619293213, 1.7115731239318848, 7.120240688323975, -0.09789174795150757, -0.7414108514785767, -1.2868077754974365, 0.6015625, 0.19287109375, -0.698486328125
257, 3731636458, -6.327311038970947, 1.7031575441360474, 7.116844177246094, -0.08705756813287735, -0.7851957082748413, -1.3105634450912476, 0.6015625, 0.1943359375, -0.697509765625
258, 3731653125, -6.331961154937744, 1.7084976434707642, 7.095132350921631, -0.12928010523319244, -0.7898955941200256, -1.3631846904754639, 0.6044921875, 0.194091796875, -0.696044921875
259, 3731669792, -6.346924781799316, 1.698500633239746, 7.098484516143799, -0.22587841749191284, -0.8398532867431641, -1.2961947917938232, 0.603515625, 0.19140625, -0.697998046875
260, 3731686459, -6.33364725112915, 1.7009978294372559, 7.108563423156738, -0.25678011775016785, -0.9116455316543579, -1.344909906387329, 0.603515625, 0.19287109375, -0.697998046875
261, 3731703126, -6.359784126281738, 1.7006289958953857, 7.099004745483398, -0.2561013996601105, -0.8508538603782654, -1.3254444599151611, 0.603515625, 0.1923828125, -0.698974609375
262, 3731719793, -6.33281946182251, 1.6977429389953613, 7.1318464279174805, -0.17389743030071259, -0.8631223440170288, -1.289663553237915, 0.6015625, 0.19189453125, -0.696533203125
263, 3731736460, -6.336776256561279, 1.704638123512268, 7.122253894805908, -0.08430419862270355, -0.7810975909233093, -1.2328543663024902, 0.60205078125, 0.193359375, -0.695556640625
264, 3731753127, -6.3202691078186035, 1.717613697052002, 7.104484558105469, -0.22955380380153656, -0.8288268446922302, -1.3183494806289673, 0.6025390625, 0.1923828125, -0.698486328125
265, 3731769794, -6.325404167175293, 1.7083414793014526, 7.138001918792725, -0.16552206873893738, -0.8933838605880737, -1.2666120529174805, 0.60107421875, 0.19140625, -0.697998046875
266, 3731786461, -6.337175369262695, 1.7034469842910767, 7.112197399139404, -0.15175525844097137, -0.8378811478614807, -1.3397748470306396, 0.600341796875, 0.19482421875, -0.697998046875
267, 3731803128, -6.330693244934082, 1.7127259969711304, 7.123065948486328, -0.17367330193519592, -0.8145670294761658, -1.3240675926208496, 0.6015625, 0.1923828125, -0.697509765625
268, 3731819795, -6.32838773727417, 1.7221788167953491, 7.103360652923584, -0.20035535097122192, -0.731780469417572, -1.3372902870178223, 0.603515625, 0.19140625, -0.698486328125
269, 3731836462, -6.333906173706055, 1.7130165100097656, 7.092045307159424, -0.18010848760604858, -0.817083477973938, -1.2778558731079102, 0.60302734375, 0.19189453125, -0.697998046875
270, 3731853129, -6.341437816619873, 1.712200403213501, 7.118706226348877, -0.07828522473573685, -0.7272214293479919, -1.3187083005905151, 0.60400390625, 0.1923828125, -0.698486328125
271, 3731869796, -6.33263635635376, 1.7066823244094849, 7.1124587059021, -0.1958347111940384, -0.7446764707565308, -1.2643966674804688, 0.60009765625, 0.19091796875, -0.698974609375
272, 3731886463, -6.318366527557373, 1.712508201599121, 7.102860927581787, -0.1479005515575409, -0.7486080527305603, -1.275909423828125, 0.60302734375, 0.1923828125, -0.697021484375
273, 3731903130, -6.341380596160889, 1.7105662822723389, 7.113167762756348, -0.140562504529953, -0.7873856425285339, -1.3422720432281494, 0.6015625, 0.1923828125, -0.698486328125
274, 3731919797, -6.335899353027344, 1.7116450071334839, 7.1239800453186035, -0.20016323029994965, -0.7210230827331543, -1.2973088026046753, 0.60205078125, 0.19384765625, -0.697998046875
275, 3731936464, -6.3364081382751465, 1.710085391998291, 7.106757164001465, -0.14854085445404053, -0.6955897808074951, -1.3588179349899292, 0.6015625, 0.19287109375, -0.697998046875
276, 3731953131, -6.331162452697754, 1.7131643295288086, 7.109121322631836, -0.11019863188266754, -0.6649312376976013, -1.3867099285125732, 0.6005859375, 0.1923828125, -0.697509765625
277, 3731969798, -6.335116863250732, 1.6990751028060913, 7.0987935066223145, -0.15242117643356323, -0.698624849319458, -1.338955044746399, 0.6015625, 0.19140625, -0.697021484375
278, 3731986465, -6.33711051940918, 1.7054463624954224, 7.122107982635498, -0.16713567078113556, -0.7744511961936951, -1.3582926988601685, 0.60498046875, 0.1923828125, -0.698974609375
279, 3732003132, -6.331542491912842, 1.7134586572647095, 7.084162712097168, -0.06821942329406738, -0.7142100930213928, -1.3908720016479492, 0.6015625, 0.188232421875, -0.697998046875
280, 3732019799, -6.329044818878174, 1.7181721925735474, 7.106845378875732, -0.14713215827941895, -0.7145047187805176, -1.3198224306106567, 0.6015625, 0.19091796875, -0.697998046875
281, 3732036466, -6.324028491973877, 1.6993799209594727, 7.118327617645264, -0.21903982758522034, -0.7441002130508423, -1.375197172164917, 0.603515625, 0.19140625, -0.697998046875
282, 3732053133, -6.339260578155518, 1.6950442790985107, 7.089707851409912, -0.21617116034030914, -0.7401430010795593, -1.4047540426254272, 0.6025390625, 0.19189453125, -0.697509765625
283, 3732069800, -6.342033863067627, 1.7106913328170776, 7.093100070953369, -0.1135282814502716, -0.7523858547210693, -1.3029437065124512, 0.6005859375, 0.19189453125, -0.696533203125
284, 3732086467, -6.3210129737854, 1.7234610319137573, 7.103170871734619, -0.21837389469146729, -0.7546783089637756, -1.301855206489563, 0.60009765625, 0.19091796875, -0.699951171875
285, 3732103134, -6.334381103515625, 1.696482539176941, 7.097043037414551, -0.18546156585216522, -0.8015366792678833, -1.3042755126953125, 0.60205078125, 0.1904296875, -0.697998046875
286, 3732119801, -6.331680774688721, 1.7124159336090088, 7.1052775382995605, -0.13889767229557037, -0.768957257270813, -1.3144309520721436, 0.6025390625, 0.19287109375, -0.697509765625
287, 3732136468, -6.34161376953125, 1.7208337783813477, 7.103302955627441, -0.09069456905126572, -0.8167633414268494, -1.189966082572937, 0.60205078125, 0.19140625, -0.696044921875
288, 3732153135, -6.330748558044434, 1.7283220291137695, 7.128908157348633, -0.14897626638412476, -0.9341976642608643, -1.242523431777954, 0.603515625, 0.19189453125, -0.698486328125
289, 3732169802, -6.33475923538208, 1.7151060104370117, 7.101634979248047, -0.18580730259418488, -0.8028812408447266, -1.3055304288864136, 0.6025390625, 0.19189453125, -0.697021484375
290, 3732186469, -6.32740592956543, 1.7110828161239624, 7.095594882965088, -0.2091148942708969, -0.7975154519081116, -1.360405683517456, 0.60107421875, 0.19189453125, -0.698486328125
291, 3732203136, -6.346208572387695, 1.7187421321868896, 7.0993971824646, -0.1775728464126587, -0.8802828192710876, -1.4553394317626953, 0.60107421875, 0.19287109375, -0.697021484375
292, 3732219803, -6.327977657318115, 1.7108185291290283, 7.10763692855835, -0.3191726505756378, -0.7634889483451843, -1.5939552783966064, 0.60107421875, 0.1923828125, -0.697021484375
293, 3732236470, -6.335057735443115, 1.6947271823883057, 7.078376770019531, -0.2166450172662735, -0.7210230827331543, -1.3676284551620483, 0.6025390625, 0.19287109375, -0.697021484375
294, 3732253137, -6.335642337799072, 1.7117128372192383, 7.124585151672363, -0.22741515934467316, -0.6638171076774597, -1.3862617015838623, 0.60205078125, 0.19384765625, -0.695556640625
295, 3732269804, -6.341364860534668, 1.7141969203948975, 7.116628170013428, -0.1749347597360611, -0.685242235660553, -1.3322960138320923, 0.60400390625, 0.1904296875, -0.697021484375
296, 3732286471, -6.340795516967773, 1.726948618888855, 7.108178615570068, -0.2576765716075897, -0.6541611552238464, -1.4500503540039062, 0.599609375, 0.19189453125, -0.697021484375
297, 3732303138, -6.331994533538818, 1.7079908847808838, 7.0896172523498535, -0.27933210134506226, -0.7767179012298584, -1.4491537809371948, 0.60107421875, 0.19091796875, -0.698974609375
298, 3732319805, -6.345558166503906, 1.70442795753479, 7.094852447509766, -0.3304550349712372, -0.7654995918273926, -1.4158316850662231, 0.60205078125, 0.19091796875, -0.696533203125
299, 3732336472, -6.340273380279541, 1.71700119972229, 7.0865397453308105, -0.32695892453193665, -0.8481389284133911, -1.4064956903457642, 0.603515625, 0.1923828125, -0.698486328125
300, 3732353139, -6.332003593444824, 1.7038086652755737, 7.10683536529541, -0.2816244065761566, -0.6923753023147583, -1.4052023887634277, 0.603515625, 0.19189453125, -0.698974609375
301, 3732369806, -6.334863185882568, 1.7104636430740356, 7.100152969360352, -0.29471251368522644, -0.8201441764831543, -1.471603274345398, 0.6025390625, 0.19384765625, -0.699951171875
302, 3732386473, -6.334527015686035, 1.7241616249084473, 7.123350620269775, -0.23064233362674713, -0.6887126564979553, -1.4786722660064697, 0.6025390625, 0.1923828125, -0.696533203125
303, 3732403140, -6.335993766784668, 1.7175641059875488, 7.12188720703125, -0.2639644742012024, -0.7393490076065063, -1.4576059579849243, 0.600341796875, 0.1923828125, -0.701171875
304, 3732419807, -6.345271587371826, 1.7046695947647095, 7.096189022064209, -0.3637259602546692, -0.6966270208358765, -1.4888789653778076, 0.6015625, 0.19189453125, -0.69482421875
305, 3732436474, -6.327436923980713, 1.697528600692749, 7.109756946563721, -0.1738077849149704, -0.710509181022644, -1.384929895401001, 0.603515625, 0.19091796875, -0.698974609375
306, 3732453141, -6.32877779006958, 1.704476237297058, 7.101924896240234, -0.2954936921596527, -0.7132496237754822, -1.3572553396224976, 0.60302734375, 0.193359375, -0.697509765625
307, 3732469808, -6.33508825302124, 1.7025704383850098, 7.105935096740723, -0.22263841331005096, -0.764590322971344, -1.3743007183074951, 0.60302734375, 0.1923828125, -0.697509765625
308, 3732486475, -6.321254253387451, 1.7228602170944214, 7.101826190948486, -0.1806335747241974, -0.8422479629516602, -1.3716882467269897, 0.60107421875, 0.19384765625, -0.697021484375
309, 3732503142, -6.328773498535156, 1.702303171157837, 7.102684497833252, -0.16979938745498657, -0.7057194709777832, -1.4079941511154175, 0.603515625, 0.1923828125, -0.697998046875
310, 3732519809, -6.329973220825195, 1.6990102529525757, 7.1099629402160645, -0.25770217180252075, -0.780790388584137, -1.4609227180480957, 0.6015625, 0.19189453125, -0.696044921875
311, 3732536476, -6.339329242706299, 1.7024871110916138, 7.124600887298584, -0.2563062608242035, -0.7582767009735107, -1.3779759407043457, 0.6005859375, 0.19384765625, -0.697509765625
312, 3732553143, -6.339632034301758, 1.699144721031189, 7.104691028594971, -0.32920005917549133, -0.8434261083602905, -1.3423360586166382, 0.60205078125, 0.19091796875, -0.696044921875
313, 3732569810, -6.337920188903809, 1.6939111948013306, 7.128492832183838, -0.20721955597400665, -0.8045333027839661, -1.4196990728378296, 0.6044921875, 0.1923828125, -0.697998046875
314, 3732586477, -6.326598644256592, 1.707478642463684, 7.108675479888916, -0.29444360733032227, -0.830402135848999, -1.2791366577148438, 0.6015625, 0.19384765625, -0.697021484375
315, 3732603144, -6.331904888153076, 1.7127087116241455, 7.122458457946777, -0.3544797897338867, -0.9084311723709106, -1.312881350517273, 0.60107421875, 0.19384765625, -0.697021484375
316, 3732619811, -6.334999084472656, 1.7070543766021729, 7.142120838165283, -0.3338487446308136, -0.9129006862640381, -1.3798587322235107, 0.60107421875, 0.19384765625, -0.697998046875
317, 3732636478, -6.337852478027344, 1.705353021621704, 7.100007057189941, -0.358308881521225, -0.8900285959243774, -1.4261280298233032, 0.60302734375, 0.19189453125, -0.698486328125
318, 3732653145, -6.329237937927246, 1.696826696395874, 7.093596458435059, -0.21647855639457703, -0.7892810106277466, -1.4030765295028687, 0.6005859375, 0.1923828125, -0.698486328125
319, 3732669812, -6.346218109130859, 1.6978241205215454, 7.107689380645752, -0.2767580449581146, -0.7241351008415222, -1.4456192255020142, 0.6025390625, 0.194091796875, -0.697509765625
320, 3732686479, -6.330670356750488, 1.7073744535446167, 7.133557319641113, -0.2323583960533142, -0.6989833116531372, -1.3715726137161255, 0.60205078125, 0.193359375, -0.697509765625
321, 3732703146, -6.337291717529297, 1.6847655773162842, 7.109128475189209, -0.3299555778503418, -0.722124457359314, -1.4247190952301025, 0.603515625, 0.194580078125, -0.697509765625
322, 3732719813, -6.334749221801758, 1.7184317111968994, 7.1093573570251465, -0.32213094830513, -0.8690645694732666, -1.4601417779922485, 0.60302734375, 0.194091796875, -0.696533203125
323, 3732736480, -6.34140157699585, 1.7109116315841675, 7.119724750518799, -0.35318633913993835, -0.8001919984817505, -1.4364370107650757, 0.6015625, 0.195556640625, -0.697509765625
324, 3732753147, -6.342596530914307, 1.7005311250686646, 7.108896255493164, -0.42766809463500977, -0.811871349811554, -1.5125067234039307, 0.60205078125, 0.1943359375, -0.697509765625
325, 3732769814, -6.334919452667236, 1.7006226778030396, 7.112309455871582, -0.3978036642074585, -0.7608636617660522, -1.5352894067764282, 0.60205078125, 0.19384765625, -0.697509765625
326, 3732786481, -6.325831890106201, 1.7108049392700195, 7.099558353424072, -0.4364404082298279, -0.7744383811950684, -1.5789077281951904, 0.6015625, 0.195068359375, -0.697509765625
327, 3732803148, -6.325901985168457, 1.6886961460113525, 7.094730377197266, -0.398379921913147, -0.751911997795105, -1.6130748987197876, 0.60302734375, 0.19091796875, -0.697998046875
328, 3732819815, -6.33864688873291, 1.700510859489441, 7.109030246734619, -0.46425580978393555, -0.7422432899475098, -1.5559203624725342, 0.60107421875, 0.1943359375, -0.696044921875
329, 3732836482, -6.349473476409912, 1.694959044456482, 7.0863776206970215, -0.3773903548717499, -0.7642446160316467, -1.491056203842163, 0.6025390625, 0.19287109375, -0.699462890625
330, 3732853149, -6.337100505828857, 1.6848067045211792, 7.123071670532227, -0.35022804141044617, -0.7914195656776428, -1.388361930847168, 0.60546875, 0.19287109375, -0.698486328125
331, 3732869816, -6.319465637207031, 1.6946886777877808, 7.096567153930664, -0.2594822645187378, -0.7148120403289795, -1.3573065996170044, 0.60400390625, 0.19287109375, -0.697021484375
332, 3732886483, -6.327681064605713, 1.6963683366775513, 7.121284008026123, -0.18874000012874603, -0.5805375576019287, -1.391960620880127, 0.60205078125, 0.194580078125, -0.697021484375
333, 3732903150, -6.347537994384766, 1.690840482711792, 7.124045372009277, -0.20689937472343445, -0.6359760761260986, -1.3705483675003052, 0.6015625, 0.19384765625, -0.697509765625
334, 3732919817, -6.337018013000488, 1.7037311792373657, 7.102883815765381, -0.190827414393425, -0.7696744203567505, -1.4433013200759888, 0.6025390625, 0.19189453125, -0.698486328125
335, 3732936484, -6.331827163696289, 1.6914738416671753, 7.098270893096924, -0.3577069342136383, -0.8072866201400757, -1.372302770614624, 0.60205078125, 0.1923828125, -0.696533203125
336, 3732953151, -6.3299880027771, 1.684984803199768, 7.1098313331604, -0.32939210534095764, -0.8932684659957886, -1.3900395631790161, 0.6025390625, 0.19384765625, -0.697021484375
337, 3732969818, -6.329916477203369, 1.6927610635757446, 7.103487014770508, -0.3958827257156372, -0.8938960433006287, -1.3926650285720825, 0.60205078125, 0.19287109375, -0.696044921875
338, 3732986485, -6.335595607757568, 1.6918762922286987, 7.0874176025390625, -0.41947194933891296, -0.8238708972930908, -1.4523552656173706, 0.6025390625, 0.193359375, -0.697509765625
339, 3733003152, -6.344318866729736, 1.6991760730743408, 7.1069793701171875, -0.47140178084373474, -0.7702636122703552, -1.4598215818405151, 0.6015625, 0.1923828125, -0.698486328125
340, 3733019819, -6.34728479385376, 1.7063192129135132, 7.079630374908447, -0.4248121976852417, -0.805826723575592, -1.380370855331421, 0.60205078125, 0.1943359375, -0.697509765625
341, 3733036486, -6.3298420906066895, 1.684043526649475, 7.127756595611572, -0.33626917004585266, -0.8572314977645874, -1.4893529415130615, 0.6025390625, 0.19140625, -0.699462890625
342, 3733053153, -6.331854343414307, 1.6674238443374634, 7.111659049987793, -0.41924145817756653, -0.7648336291313171, -1.347074270248413, 0.60302734375, 0.19140625, -0.698974609375
343, 3733069820, -6.3388991355896, 1.6951812505722046, 7.110872745513916, -0.28126588463783264, -0.9228896498680115, -1.4640733003616333, 0.60302734375, 0.195556640625, -0.696533203125
344, 3733086487, -6.332519054412842, 1.6802858114242554, 7.1235504150390625, -0.30450940132141113, -0.9495396614074707, -1.4709374904632568, 0.603515625, 0.19384765625, -0.697509765625
345, 3733103154, -6.338217258453369, 1.6786936521530151, 7.132235527038574, -0.3789398670196533, -0.9662262201309204, -1.4114902019500732, 0.60302734375, 0.19384765625, -0.698486328125
346, 3733119821, -6.31636381149292, 1.69704008102417, 7.096081256866455, -0.377313494682312, -1.0596486330032349, -1.3350107669830322, 0.600830078125, 0.194580078125, -0.698486328125
347, 3733136488, -6.346296310424805, 1.7023788690567017, 7.074070453643799, -0.4585953950881958, -1.0427700281143188, -1.4190716743469238, 0.6005859375, 0.19189453125, -0.697509765625
348, 3733153155, -6.34480094909668, 1.693956971168518, 7.09597635269165, -0.4868333637714386, -1.3819458484649658, -1.3830856084823608, 0.60302734375, 0.194091796875, -0.698486328125
349, 3733169822, -6.343071460723877, 1.6890467405319214, 7.113560199737549, -0.46875080466270447, -1.3145718574523926, -1.3450251817703247, 0.60107421875, 0.1943359375, -0.699951171875
350, 3733186489, -6.33573055267334, 1.681930422782898, 7.132689952850342, -0.3437160551548004, -1.1488256454467773, -1.2645822763442993, 0.60107421875, 0.194580078125, -0.697998046875
351, 3733203156, -6.326285362243652, 1.6978620290756226, 7.123741149902344, -0.18979011476039886, -0.9417406320571899, -1.2436630725860596, 0.6015625, 0.196044921875, -0.697998046875
352, 3733219823, -6.336791038513184, 1.6862905025482178, 7.116491794586182, -0.29250985383987427, -0.8802316188812256, -1.3324110507965088, 0.6015625, 0.19384765625, -0.698974609375
353, 3733236490, -6.343067646026611, 1.6982454061508179, 7.110890865325928, -0.49066248536109924, -0.8521345853805542, -1.4640220403671265, 0.60205078125, 0.19287109375, -0.699951171875
354, 3733253157, -6.322052955627441, 1.6862907409667969, 7.139435768127441, -0.5641196966171265, -0.9556993842124939, -1.62257719039917, 0.600830078125, 0.19482421875, -0.698974609375
355, 3733269824, -6.339254379272461, 1.672906517982483, 7.110562801361084, -0.5970832705497742, -0.9130158424377441, -1.6994153261184692, 0.600341796875, 0.1943359375, -0.70166015625
356, 3733286491, -6.342243194580078, 1.6933648586273193, 7.132022380828857, -0.5463444590568542, -0.9435333609580994, -1.6141248941421509, 0.603515625, 0.193359375, -0.70068359375
357, 3733303158, -6.335816860198975, 1.6691999435424805, 7.130515098571777, -0.4655364155769348, -0.9740765690803528, -1.4798120260238647, 0.600341796875, 0.19482421875, -0.699951171875
358, 3733319825, -6.334836006164551, 1.6597795486450195, 7.108325004577637, -0.22007711231708527, -0.8829465508460999, -1.2372342348098755, 0.6025390625, 0.19287109375, -0.697998046875
359, 3733336492, -6.327604293823242, 1.660409927368164, 7.1125898361206055, -0.18328449130058289, -0.8250874876976013, -1.1934493780136108, 0.599853515625, 0.19287109375, -0.698486328125
360, 3733353159, -6.341105937957764, 1.6929349899291992, 7.10695743560791, -0.13602903485298157, -0.8660677671432495, -1.0317052602767944, 0.60400390625, 0.19384765625, -0.697509765625
361, 3733369826, -6.328454971313477, 1.6777560710906982, 7.133151531219482, -0.10606219619512558, -0.8468839526176453, -1.028631567955017, 0.60205078125, 0.1943359375, -0.697998046875
362, 3733386493, -6.313086986541748, 1.688007116317749, 7.119903087615967, -0.17312905192375183, -0.9632296562194824, -1.0769628286361694, 0.60107421875, 0.1943359375, -0.699951171875
363, 3733403160, -6.3259663581848145, 1.6767877340316772, 7.078710079193115, -0.1728857159614563, -1.0692788362503052, -1.093137264251709, 0.6025390625, 0.19384765625, -0.699462890625
364, 3733419827, -6.309698581695557, 1.5984798669815063, 7.099478244781494, -0.08310040831565857, -1.7097246646881104, -0.6203780174255371, 0.60205078125, 0.196044921875, -0.697021484375
365, 3733436494, -6.222017765045166, 1.666216254234314, 7.130104064941406, 3.0108556747436523, 1.0577722787857056, -0.1272951066493988, 0.6005859375, 0.193359375, -0.699951171875
366, 3733453161, -6.3763322830200195, 1.4631075859069824, 7.240051746368408, 9.801240921020508, 6.438663959503174, 1.2291796207427979, 0.60302734375, 0.19091796875, -0.697021484375
367, 3733469828, -6.365888595581055, 1.6228232383728027, 7.2126383781433105, 12.11845874786377, 5.165003299713135, 4.734107494354248, 0.605712890625, 0.18798828125, -0.6953125
368, 3733486495, -6.398615837097168, 1.830925464630127, 7.065524578094482, 9.055877685546875, 3.211379051208496, 5.0055108070373535, 0.603271484375, 0.187255859375, -0.69482421875
369, 3733503162, -6.407364368438721, 1.8971914052963257, 7.041810512542725, 7.316679000854492, 2.2654054164886475, 4.008541584014893, 0.603271484375, 0.183837890625, -0.69677734375
370, 3733519829, -6.325855731964111, 1.9555611610412598, 7.008941173553467, 5.878653049468994, 1.6307862997055054, 2.7841262817382812, 0.602294921875, 0.181640625, -0.693359375
371, 3733536496, -6.346619129180908, 1.9565585851669312, 6.989799499511719, 3.1657488346099854, 0.4984423518180847, 1.0723588466644287, 0.60595703125, 0.1806640625, -0.690673828125
372, 3733553163, -6.363999366760254, 1.9163380861282349, 7.017662525177002, 1.3418174982070923, 0.5097631812095642, -0.3713713586330414, 0.604248046875, 0.1806640625, -0.69384765625
373, 3733569830, -6.388248920440674, 1.8916982412338257, 7.081913471221924, 1.501518964767456, 1.3399027585983276, -0.7665624618530273, 0.60693359375, 0.18017578125, -0.691162109375
374, 3733586497, -6.370575428009033, 1.842665433883667, 7.082374095916748, 1.9905487298965454, 2.164971113204956, -0.9479901194572449, 0.6044921875, 0.17919921875, -0.6923828125
375, 3733603164, -6.367837429046631, 1.828083872795105, 7.121356964111328, 2.8989481925964355, 4.339560508728027, -0.9480030536651611, 0.6064453125, 0.17822265625, -0.691650390625
376, 3733619831, -6.44944429397583, 1.5234700441360474, 7.470894813537598, 7.4065375328063965, 9.627517700195312, 0.824364423751831, 0.60888671875, 0.1787109375, -0.689697265625
377, 3733636498, -6.48945426940918, 1.0185627937316895, 7.481789588928223, 13.985013008117676, 15.488198280334473, 8.005448341369629, 0.607177734375, 0.173583984375, -0.685546875
378, 3733653165, -6.307856559753418, -0.17009979486465454, 8.034882545471191, 21.8135929107666, 23.85519027709961, 18.571889877319336, 0.60888671875, 0.16650390625, -0.678955078125
379, 3733669832, -5.044479846954346, 0.0325198769569397, 9.255002975463867, 34.13569259643555, 47.19498062133789, 29.2139835357666, 0.61572265625, 0.15478515625, -0.6689453125
380, 3733686499, 6.398446083068848, 0.6564488410949707, 19.260677337646484, -53.272037506103516, 89.75071716308594, 66.49576568603516, 0.625, 0.14453125, -0.64697265625
381, 3733703166, 8.178032875061035, -20.727325439453125, 35.245269775390625, -161.0014190673828, 101.67169189453125, 113.16424560546875, 0.635986328125, 0.13916015625, -0.626220703125
382, 3733719833, 4.969717025756836, -22.928138732910156, 39.46977996826172, -93.45423889160156, 1.476935625076294, 45.52714157104492, 0.63623046875, 0.1298828125, -0.62255859375
383, 3733736500, -4.230633735656738, -23.82608413696289, 41.96400833129883, -22.206806182861328, -154.05616760253906, -91.83589172363281, 0.6259765625, 0.14404296875, -0.64990234375
384, 3733753167, -7.463412284851074, -17.36621856689453, 36.29098129272461, 33.704322814941406, -288.7516174316406, -181.0025634765625, 0.593994140625, 0.176025390625, -0.712158203125
385, 3733769834, -10.778125762939453, -10.59646224975586, 31.296287536621094, 45.54050064086914, -347.27569580078125, -220.18960571289062, 0.552490234375, 0.208984375, -0.791015625
386, 3733786501, -13.718504905700684, -5.511006832122803, 27.896230697631836, 39.876346588134766, -360.28173828125, -213.75450134277344, 0.4921875, 0.242919921875, -0.86669921875
387, 3733803168, -18.28285026550293, -1.6867272853851318, 23.957763671875, 25.509944915771484, -368.1869812011719, -201.4901580810547, 0.4248046875, 0.26708984375, -0.943115234375
388, 3733819835, -18.94396209716797, -0.9629502296447754, 18.126842498779297, 24.50916290283203, -365.7272033691406, -206.01263427734375, 0.344970703125, 0.2958984375, -1.01220703125
389, 3733836502, -17.99840545654297, 2.164358139038086, 14.006629943847656, 34.63992691040039, -330.1888122558594, -200.6470947265625, 0.261962890625, 0.313232421875, -1.065673828125
390, 3733853169, -19.217012405395508, 7.179843425750732, 11.928041458129883, 14.187561988830566, -305.3125305175781, -164.27862548828125, 0.180908203125, 0.326904296875, -1.108154296875
391, 3733869836, -17.69692039489746, 10.180248260498047, 7.125793933868408, -40.72406768798828, -289.716064453125, -121.62952423095703, 0.09716796875, 0.345703125, -1.135986328125
392, 3733886503, -18.409494400024414, 10.289172172546387, 2.080843448638916, -67.32909393310547, -245.3748779296875, -90.66773986816406, 0.024169921875, 0.36962890625, -1.15478515625
393, 3733903170, -23.736623764038086, 9.250665664672852, -4.523352146148682, -47.2278938293457, -207.4544677734375, -68.03006744384766, -0.041259765625, 0.389404296875, -1.162353515625
394, 3733919837, -25.440494537353516, 6.888891220092773, -13.944125175476074, 0.7542585134506226, -158.57513427734375, -69.42375183105469, -0.094970703125, 0.395751953125, -1.169677734375
395, 3733936504, -28.57280158996582, 7.247652530670166, -19.016597747802734, 38.87629699707031, -96.10633850097656, -72.97959899902344, -0.12890625, 0.3876953125, -1.17431640625
396, 3733953171, -27.73064613342285, 9.652432441711426, -22.611225128173828, 29.745784759521484, -55.63986587524414, -53.258663177490234, -0.1513671875, 0.376953125, -1.179443359375
397, 3733969838, -23.340694427490234, 9.692859649658203, -23.912397384643555, -10.112541198730469, 16.590042114257812, -29.57088851928711, -0.15234375, 0.37646484375, -1.177490234375
398, 3733986505, -22.336824417114258, 9.179961204528809, -20.184654235839844, -27.093364715576172, 90.53958129882812, 5.539721965789795, -0.1337890625, 0.385009765625, -1.17578125
399, 3734003172, -21.133705139160156, 8.714242935180664, -15.409093856811523, -37.32159423828125, 141.37982177734375, 34.047882080078125, -0.095947265625, 0.39306640625, -1.172607421875
400, 3734019839, -20.481449127197266, 7.306698322296143, -10.282964706420898, -40.05191421508789, 185.88531494140625, 51.174861907958984, -0.04443359375, 0.401611328125, -1.16162109375
401, 3734036506, -21.593610763549805, 6.695630073547363, -4.860958099365234, -26.575511932373047, 216.0680389404297, 62.874481201171875, 0.015380859375, 0.406982421875, -1.14990234375
402, 3734053173, -20.896644592285156, 6.749197483062744, -0.430144339799881, -7.77750825881958, 233.0838623046875, 61.6845588684082, 0.081787109375, 0.40380859375, -1.130615234375
403, 3734069840, -19.97058868408203, 7.8090057373046875, 4.240444660186768, 10.146002769470215, 254.9861602783203, 50.73661422729492, 0.151123046875, 0.400390625, -1.10693359375
404, 3734086507, -20.236610412597656, 9.362874984741211, 9.770450592041016, 28.65850830078125, 271.2511901855469, 55.51956558227539, 0.219482421875, 0.388427734375, -1.071044921875
405, 3734103174, -18.569961547851562, 7.534903526306152, 13.339356422424316, 38.1516227722168, 279.4418640136719, 80.91179656982422, 0.288818359375, 0.365478515625, -1.03271484375
406, 3734119841, -17.246627807617188, 3.8258590698242188, 16.206493377685547, 46.741416931152344, 305.648193359375, 103.48670959472656, 0.358154296875, 0.343994140625, -0.986083984375
407, 3734136508, -15.7888822555542, 3.199467658996582, 20.361251831054688, 39.12242889404297, 324.9775695800781, 114.6612548828125, 0.425537109375, 0.317626953125, -0.925048828125
408, 3734153175, -9.638286590576172, 1.1769591569900513, 28.252260208129883, 11.59942626953125, 348.55084228515625, 134.7255401611328, 0.493408203125, 0.292236328125, -0.85498046875
409, 3734169842, -4.058514595031738, -1.4424737691879272, 35.007545471191406, -31.902881622314453, 321.40374755859375, 168.36474609375, 0.551513671875, 0.265380859375, -0.78076171875
410, 3734186509, 0.18757081031799316, -9.839662551879883, 36.089256286621094, -53.81147003173828, 230.14739990234375, 172.9793243408203, 0.588134765625, 0.241943359375, -0.721923828125
411, 3734203176, 2.836162567138672, -15.873185157775879, 31.498737335205078, -0.4429382085800171, 132.0471649169922, 136.2691650390625, 0.606201171875, 0.21240234375, -0.68701171875
412, 3734219843, 0.5716193914413452, -15.281201362609863, 26.734146118164062, 71.0549087524414, 69.2413330078125, 73.48419952392578, 0.61767578125, 0.1865234375, -0.669677734375
413, 3734236510, -1.5877968072891235, -9.161667823791504, 22.12094497680664, 82.62833404541016, 33.20916748046875, 17.55925178527832, 0.62255859375, 0.171630859375, -0.6572265625
414, 3734253177, -1.7290599346160889, -4.538647174835205, 16.748056411743164, 50.072532653808594, 24.02545166015625, -16.82826805114746, 0.6259765625, 0.167236328125, -0.653076171875
415, 3734269844, -0.4393293857574463, -1.5698466300964355, 13.46097469329834, 43.33684158325195, 44.24017333984375, -17.86002540588379, 0.633544921875, 0.1689453125, -0.639892578125
416, 3734286511, -4.124692440032959, 3.9656684398651123, 19.161638259887695, -16.034454345703125, 50.002593994140625, -32.26268768310547, 0.63916015625, 0.17138671875, -0.62646484375
417, 3734303178, -0.3192068040370941, -11.809334754943848, 22.628368377685547, -79.02877044677734, -23.407697677612305, -46.519222259521484, 0.641357421875, 0.192626953125, -0.628173828125
418, 3734319845, -6.264803886413574, -5.5459370613098145, 14.194186210632324, -10.290689468383789, -59.19551467895508, -60.3691520690918, 0.634521484375, 0.215087890625, -0.643798828125
419, 3734336512, -8.937387466430664, 3.0555596351623535, 5.378952980041504, -2.3952016830444336, -42.49505615234375, -15.156872749328613, 0.62890625, 0.221435546875, -0.65625
420, 3734353179, -7.453019618988037, 0.8861775994300842, 6.588707447052002, -6.79831075668335, -43.04836654663086, 5.278858184814453, 0.62255859375, 0.21826171875, -0.665771484375
421, 3734369846, -6.080327033996582, 2.9226739406585693, 7.221210956573486, -4.9011735916137695, -41.094661712646484, 5.268570899963379, 0.6201171875, 0.21728515625, -0.675048828125
422, 3734386513, -6.358558177947998, 2.387918472290039, 6.877621173858643, -8.542999267578125, -34.328887939453125, 1.1813331842422485, 0.61279296875, 0.216552734375, -0.683349609375
423, 3734403180, -6.518196105957031, 2.5180306434631348, 6.770629405975342, -11.082351684570312, -31.759004592895508, -3.8278720378875732, 0.610107421875, 0.21875, -0.691650390625
424, 3734419847, -6.246030330657959, 2.1427652835845947, 6.894643783569336, -12.92131233215332, -30.27259063720703, -7.67860221862793, 0.60498046875, 0.22314453125, -0.694580078125
425, 3734436514, -6.1447625160217285, 1.5293025970458984, 7.302464008331299, -9.117138862609863, -20.36798858642578, -6.9056196212768555, 0.600830078125, 0.2255859375, -0.702392578125
426, 3734453181, -6.338240146636963, 1.0049571990966797, 7.304267883300781, -2.751317024230957, -9.183500289916992, -2.491476058959961, 0.600341796875, 0.227294921875, -0.703857421875
427, 3734469848, -6.4207234382629395, 1.2042666673660278, 7.117709159851074, 2.5394675731658936, -3.0550575256347656, 2.5527091026306152, 0.599853515625, 0.2255859375, -0.70654296875
428, 3734486515, -6.440216541290283, 1.7723010778427124, 7.0288214683532715, 4.6522722244262695, -1.1002448797225952, 4.71447229385376, 0.600341796875, 0.224609375, -0.705322265625
429, 3734503182, -6.490467548370361, 1.9285624027252197, 7.004887580871582, 4.83860445022583, 0.07626821845769882, 4.537821292877197, 0.597900390625, 0.22265625, -0.702880859375
430, 3734519849, -6.480595111846924, 2.1639232635498047, 6.931466579437256, 3.0077569484710693, -0.6477707624435425, 2.900362730026245, 0.598876953125, 0.220458984375, -0.702392578125
431, 3734536516, -6.4677300453186035, 2.222308397293091, 6.8907270431518555, -0.07683809846639633, -2.4941647052764893, -0.39762434363365173, 0.599853515625, 0.220458984375, -0.703857421875
432, 3734553183, -6.397234916687012, 1.9815887212753296, 6.933994770050049, -2.618283987045288, -4.300090789794922, -2.815591335296631, 0.597900390625, 0.22216796875, -0.7060546875
433, 3734569850, -6.393360614776611, 1.9009610414505005, 6.977378845214844, -4.157927989959717, -4.806032180786133, -3.909447193145752, 0.59765625, 0.22216796875, -0.70849609375
434, 3734586517, -6.396826267242432, 1.724003791809082, 7.026285648345947, -4.851993560791016, -5.061479568481445, -4.121352672576904, 0.59765625, 0.22412109375, -0.70849609375
435, 3734603184, -6.389147758483887, 1.6874053478240967, 7.043817520141602, -4.860919952392578, -4.786719799041748, -3.4700732231140137, 0.59716796875, 0.22509765625, -0.70947265625
436, 3734619851, -6.384850025177002, 1.6781851053237915, 7.028573513031006, -4.2345356941223145, -4.497411727905273, -2.59881854057312, 0.59765625, 0.2265625, -0.7099609375
437, 3734636518, -6.4008660316467285, 1.7359557151794434, 7.041357517242432, -3.2137537002563477, -3.7482011318206787, -1.9724724292755127, 0.5966796875, 0.2275390625, -0.708984375
438, 3734653185, -6.385399341583252, 1.7795072793960571, 7.038812160491943, -2.8068959712982178, -3.6980130672454834, -1.9479484558105469, 0.593994140625, 0.2255859375, -0.710205078125
439, 3734669852, -6.385289669036865, 1.835452914237976, 7.037271499633789, -2.922473669052124, -3.6346092224121094, -2.294923782348633, 0.59716796875, 0.22705078125, -0.710693359375
440, 3734686519, -6.388869762420654, 1.77729332447052, 7.070175647735596, -3.041982412338257, -3.3404598236083984, -2.743760824203491, 0.593505859375, 0.228759765625, -0.711669921875
441, 3734703186, -6.3790130615234375, 1.7732845544815063, 7.068371295928955, -3.0986123085021973, -3.1557798385620117, -3.007392406463623, 0.593505859375, 0.22802734375, -0.710205078125
442, 3734719853, -6.38892126083374, 1.7318930625915527, 7.067861557006836, -2.918823480606079, -2.6412200927734375, -3.1537816524505615, 0.593505859375, 0.228515625, -0.713623046875
443, 3734736520, -6.3568434715271, 1.7279986143112183, 7.082736015319824, -2.463141441345215, -2.115461826324463, -3.064053535461426, 0.592041015625, 0.231689453125, -0.713623046875
444, 3734753187, -6.364132881164551, 1.6751296520233154, 7.095084190368652, -1.8199745416641235, -1.2470057010650635, -2.8641788959503174, 0.593994140625, 0.229736328125, -0.714599609375
445, 3734769854, -6.367623329162598, 1.6754306554794312, 7.082706451416016, -1.268917202949524, -0.7451374530792236, -2.511991024017334, 0.594482421875, 0.230224609375, -0.714111328125
446, 3734786521, -6.3709211349487305, 1.7093294858932495, 7.071712970733643, -1.0444859266281128, -0.49920427799224854, -2.347109079360962, 0.593994140625, 0.231689453125, -0.714111328125
447, 3734803188, -6.383519172668457, 1.6867656707763672, 7.0851969718933105, -0.9735642671585083, -0.4445211887359619, -2.3022358417510986, 0.593017578125, 0.230712890625, -0.713134765625
448, 3734819855, -6.390016078948975, 1.6889142990112305, 7.095498561859131, -0.8665032982826233, -0.5012277364730835, -2.1877729892730713, 0.595458984375, 0.231201171875, -0.71484375
449, 3734836522, -6.353309631347656, 1.676459550857544, 7.070682525634766, -0.4811345338821411, -0.2026861011981964, -1.9593843221664429, 0.594970703125, 0.231689453125, -0.713134765625
450, 3734853189, -6.354640483856201, 1.6921378374099731, 7.090027332305908, -0.23993974924087524, 0.16616876423358917, -1.8682029247283936, 0.596435546875, 0.23291015625, -0.71484375
451, 3734869856, -6.396562099456787, 1.6786768436431885, 7.063051700592041, -0.046691954135894775, 0.5069329738616943, -1.7497317790985107, 0.595947265625, 0.232177734375, -0.713623046875
452, 3734886523, -6.399377346038818, 1.6902272701263428, 7.055563926696777, -0.002753365319222212, 0.2657894194126129, -1.6674509048461914, 0.594482421875, 0.23486328125, -0.712646484375
453, 3734903190, -6.383030414581299, 1.6995831727981567, 7.047638893127441, 0.06776480376720428, -0.07188204675912857, -1.5673693418502808, 0.594970703125, 0.2333984375, -0.714111328125
454, 3734919857, -6.386642932891846, 1.714479684829712, 7.058157920837402, 0.0724775418639183, -0.21248294413089752, -1.5673435926437378, 0.592529296875, 0.232177734375, -0.713623046875
455, 3734936524, -6.386559009552002, 1.6853924989700317, 7.046189308166504, 0.023608505725860596, -0.30575162172317505, -1.5892679691314697, 0.594482421875, 0.232666015625, -0.713134765625
456, 3734953191, -6.394959449768066, 1.6989271640777588, 7.066537380218506, -0.020438935607671738, -0.3551841080188751, -1.5983350276947021, 0.593994140625, 0.234375, -0.712646484375
457, 3734969858, -6.3683013916015625, 1.6580687761306763, 7.0627851486206055, 0.13618911802768707, -0.4467751085758209, -1.4266271591186523, 0.596923828125, 0.234375, -0.712646484375
458, 3734986525, -6.385260105133057, 1.668107032775879, 7.067145824432373, 0.27562469244003296, -0.358308881521225, -1.169014811515808, 0.595458984375, 0.23388671875, -0.712646484375
459, 3735003192, -6.372641563415527, 1.7066266536712646, 7.078540325164795, 0.3697769343852997, -0.47304093837738037, -1.0846720933914185, 0.595458984375, 0.232177734375, -0.709716796875
460, 3735019859, -6.37345027923584, 1.7321323156356812, 7.067749500274658, 0.1618274301290512, -0.36346980929374695, -1.1284699440002441, 0.595947265625, 0.23388671875, -0.711669921875
461, 3735036526, -6.3802947998046875, 1.6914317607879639, 7.091887950897217, 0.25644075870513916, 0.31987062096595764, -1.2959771156311035, 0.594482421875, 0.232666015625, -0.712646484375
462, 3735053193, -6.409996509552002, 1.6903566122055054, 7.051057815551758, 0.37687167525291443, 0.2942194938659668, -1.1238853931427002, 0.594970703125, 0.230712890625, -0.710693359375
463, 3735069860, -6.416565895080566, 1.6953250169754028, 7.032466411590576, 0.2662760615348816, -0.1874721646308899, -0.9683393836021423, 0.594970703125, 0.231689453125, -0.70849609375
464, 3735086527, -6.406204700469971, 1.6977152824401855, 7.045970916748047, 0.18158763647079468, -0.2629527747631073, -1.0238419771194458, 0.59765625, 0.231689453125, -0.710693359375
465, 3735103194, -6.405624866485596, 1.7289286851882935, 7.06209135055542, -0.05363299697637558, -0.3725367486476898, -1.1827176809310913, 0.594970703125, 0.230712890625, -0.710205078125
466, 3735119861, -6.367466449737549, 1.7212083339691162, 7.066924095153809, -0.0836382657289505, -0.2620307207107544, -1.4208258390426636, 0.594970703125, 0.231689453125, -0.710205078125
467, 3735136528, -6.390384674072266, 1.7161953449249268, 7.055567741394043, -0.0028686223085969687, -0.0658886730670929, -1.3641324043273926, 0.595458984375, 0.232666015625, -0.711669921875
468, 3735153195, -6.406394958496094, 1.703791856765747, 7.0668745040893555, 0.005762856919318438, -0.0863916277885437, -1.3591378927230835, 0.595458984375, 0.230712890625, -0.709716796875
469, 3735169862, -6.4043426513671875, 1.6952418088912964, 7.071580410003662, 0.010712511837482452, -0.21670907735824585, -1.2775999307632446, 0.593994140625, 0.231689453125, -0.708984375
470, 3735186529, -6.399313926696777, 1.6856215000152588, 7.05353307723999, 0.05864667147397995, -0.46830257773399353, -1.2047829627990723, 0.596435546875, 0.232177734375, -0.711181640625
471, 3735203196, -6.394814968109131, 1.7077893018722534, 7.05396842956543, 0.05445900559425354, -0.3375369608402252, -1.1847410202026367, 0.596435546875, 0.232666015625, -0.70849609375
472, 3735219863, -6.398780822753906, 1.7189807891845703, 7.073093414306641, 0.2721796929836273, -0.12408071011304855, -1.1692965030670166, 0.595947265625, 0.23291015625, -0.711181640625
473, 3735236530, -6.4072160720825195, 1.6972306966781616, 7.063562393188477, 0.33845260739326477, 0.08475881814956665, -1.0609164237976074, 0.594482421875, 0.230712890625, -0.70849609375
474, 3735253197, -6.396766185760498, 1.707337498664856, 7.0459184646606445, 0.22685806453227997, -0.08334371447563171, -1.0661669969558716, 0.595458984375, 0.231201171875, -0.709228515625
475, 3735269864, -6.39156436920166, 1.7222522497177124, 7.04710054397583, 0.30611658096313477, 0.09152057021856308, -0.9747938513755798, 0.59716796875, 0.231689453125, -0.709716796875
476, 3735286531, -6.422051429748535, 1.7089924812316895, 7.040792465209961, 0.2746385335922241, 0.274715393781662, -0.8953431248664856, 0.596435546875, 0.231689453125, -0.7080078125
477, 3735303198, -6.412137985229492, 1.6990764141082764, 7.049205303192139, 0.28629234433174133, 0.3553313612937927, -1.0243158340454102, 0.594482421875, 0.232177734375, -0.708984375
478, 3735319865, -6.402978420257568, 1.7017788887023926, 7.032641410827637, 0.2744080424308777, 0.2969728410243988, -0.8724581599235535, 0.595703125, 0.229248046875, -0.7080078125
479, 3735336532, -6.421239376068115, 1.7108105421066284, 7.028541564941406, 0.5811585783958435, 0.255557119846344, -0.632082998752594, 0.595947265625, 0.230224609375, -0.708984375
480, 3735353199, -6.408015251159668, 1.7388429641723633, 7.035286903381348, 0.7071858644485474, 0.17387822270393372, -0.5008179545402527, 0.5966796875, 0.227783203125, -0.70703125
481, 3735369866, -6.422590255737305, 1.7481071949005127, 7.0168304443359375, 0.460266649723053, 0.08803724497556686, -0.5436423420906067, 0.59912109375, 0.229248046875, -0.708984375
482, 3735386533, -6.422567844390869, 1.731499433517456, 7.014054775238037, 0.25670966506004333, -0.03352702036499977, -0.7490946650505066, 0.5966796875, 0.227783203125, -0.708984375
483, 3735403200, -6.424330234527588, 1.7361751794815063, 7.0371222496032715, 0.18371348083019257, -0.23527824878692627, -0.8911554217338562, 0.59716796875, 0.230712890625, -0.70947265625
484, 3735419867, -6.437253952026367, 1.7603907585144043, 7.024318695068359, 0.01159614883363247, -0.35421082377433777, -1.068638563156128, 0.60009765625, 0.227783203125, -0.7080078125
485, 3735436534, -6.430541515350342, 1.7408157587051392, 7.018701553344727, -0.22712060809135437, -0.596558153629303, -1.2048085927963257, 0.59619140625, 0.229248046875, -0.7080078125
486, 3735453201, -6.4360761642456055, 1.734857201576233, 7.028666019439697, -0.3914901316165924, -0.866657018661499, -1.432083010673523, 0.59765625, 0.227783203125, -0.70947265625
487, 3735469868, -6.4469709396362305, 1.7337541580200195, 7.030355930328369, -0.40437325835227966, -1.1440807580947876, -1.4418540000915527, 0.59716796875, 0.229736328125, -0.7080078125
488, 3735486535, -6.428645610809326, 1.7327895164489746, 7.0382981300354, -0.3624325394630432, -1.161612868309021, -1.331681251525879, 0.59765625, 0.229248046875, -0.708984375
489, 3735503202, -6.429386138916016, 1.7415834665298462, 7.031336784362793, -0.1482655256986618, -0.9965454339981079, -1.352894902229309, 0.5966796875, 0.229736328125, -0.70751953125
490, 3735519869, -6.425471305847168, 1.7230180501937866, 7.024082660675049, -0.2511709928512573, -0.995809018611908, -1.3657076358795166, 0.59716796875, 0.229736328125, -0.7080078125
491, 3735536536, -6.429872989654541, 1.725285291671753, 7.039539337158203, -0.22838842868804932, -1.032537579536438, -1.3264048099517822, 0.595703125, 0.228271484375, -0.70703125
492, 3735553203, -6.414810657501221, 1.7423712015151978, 7.019676208496094, -0.2057339996099472, -1.1462708711624146, -1.4027690887451172, 0.59814453125, 0.228271484375, -0.70654296875
493, 3735569870, -6.414023399353027, 1.7176929712295532, 7.051875114440918, -0.06610637903213501, -0.9084184765815735, -1.331348180770874, 0.5986328125, 0.227783203125, -0.70703125
494, 3735586537, -6.419760704040527, 1.7154841423034668, 7.023484706878662, -0.07729913294315338, -0.7683682441711426, -1.263180136680603, 0.59765625, 0.229736328125, -0.7080078125
495, 3735603204, -6.431317329406738, 1.7223052978515625, 7.048188209533691, -0.10401317477226257, -0.9459794759750366, -1.181641936302185, 0.59765625, 0.227294921875, -0.70947265625
496, 3735619871, -6.420392036437988, 1.7454758882522583, 7.015575885772705, -0.04150537773966789, -0.9058699607849121, -1.1133968830108643, 0.59765625, 0.229736328125, -0.7080078125
497, 3735636538, -6.423219203948975, 1.7604776620864868, 7.049591064453125, -0.03818853572010994, -0.9244006872177124, -1.1806174516677856, 0.59619140625, 0.227783203125, -0.70849609375
498, 3735653205, -6.42525577545166, 1.7428418397903442, 7.038807392120361, -0.07390544563531876, -1.0348938703536987, -1.1929243803024292, 0.59765625, 0.22705078125, -0.7080078125
499, 3735669872, -6.419612884521484, 1.7355250120162964, 7.033926010131836, -0.052352357655763626, -1.1673628091812134, -1.0690228939056396, 0.59716796875, 0.228271484375, -0.70703125
500, 3735686539, -6.421031951904297, 1.7253022193908691, 7.0329813957214355, -0.0655813217163086, -1.1492674350738525, -1.1254218816757202, 0.59619140625, 0.229736328125, -0.70849609375
501, 3735703206, -6.4288330078125, 1.7433756589889526, 7.026496887207031, -0.07645390182733536, -1.1609981060028076, -1.1178407669067383, 0.5966796875, 0.228759765625, -0.70947265625
502, 3735719873, -6.409199237823486, 1.7424647808074951, 7.004003524780273, -0.16261503100395203, -1.2326111793518066, -1.20270836353302, 0.5966796875, 0.227783203125, -0.70849609375
503, 3735736540, -6.407654762268066, 1.7470468282699585, 7.024865627288818, -0.13257133960723877, -1.2819924354553223, -1.196433186531067, 0.59912109375, 0.229248046875, -0.708984375
504, 3735753207, -6.401522159576416, 1.7452077865600586, 7.035276412963867, -0.22212614119052887, -1.2545998096466064, -1.2787398099899292, 0.59619140625, 0.229248046875, -0.7080078125
505, 3735769874, -6.399093151092529, 1.732649564743042, 7.024237632751465, -0.26452794671058655, -1.0766938924789429, -1.4288300275802612, 0.59765625, 0.228271484375, -0.7080078125
506, 3735786541, -6.414970397949219, 1.723832607269287, 7.028983116149902, -0.2873232364654541, -0.8955735564231873, -1.395943284034729, 0.5986328125, 0.230224609375, -0.708984375
507, 3735803208, -6.39215087890625, 1.7397193908691406, 7.020421504974365, -0.23343412578105927, -0.7946340441703796, -1.3622369766235352, 0.595703125, 0.228759765625, -0.710205078125
508, 3735819875, -6.398845672607422, 1.7508708238601685, 7.043585777282715, -0.2000095546245575, -0.8628277778625488, -1.301381230354309, 0.5986328125, 0.227783203125, -0.710693359375
509, 3735836542, -6.403285980224609, 1.7257061004638672, 7.044116497039795, -0.19912593066692352, -0.7317035794258118, -1.3257135152816772, 0.59716796875, 0.229736328125, -0.7080078125
510, 3735853209, -6.406553745269775, 1.7422900199890137, 7.0319600105285645, -0.121993288397789, -0.6588226556777954, -1.2796745300292969, 0.59814453125, 0.228271484375, -0.7080078125
511, 3735869876, -6.423467636108398, 1.7337685823440552, 7.031520366668701, -0.11537239700555801, -0.49073928594589233, -1.3388653993606567, 0.59765625, 0.227294921875, -0.710693359375
512, 3735886543, -6.408174991607666, 1.7517691850662231, 7.03172492980957, -0.12324830889701843, -0.5474073886871338, -1.3776047229766846, 0.5966796875, 0.2275390625, -0.70849609375
513, 3735903210, -6.406767845153809, 1.7552543878555298, 7.047546863555908, -0.2199234664440155, -0.5921143889427185, -1.429214358329773, 0.59716796875, 0.22705078125, -0.7080078125
514, 3735919877, -6.430280685424805, 1.7292120456695557, 7.020243167877197, -0.29216405749320984, -0.6425201892852783, -1.4667881727218628, 0.59814453125, 0.229736328125, -0.70849609375
515, 3735936544, -6.429200172424316, 1.745194673538208, 7.033492088317871, -0.3298531770706177, -0.6719492077827454, -1.5209463834762573, 0.5966796875, 0.229248046875, -0.708984375
516, 3735953211, -6.418724536895752, 1.744889736175537, 7.045590877532959, -0.39702245593070984, -0.7861690521240234, -1.4292272329330444, 0.59765625, 0.228271484375, -0.711181640625
517, 3735969878, -6.416944980621338, 1.7265326976776123, 7.0156755447387695, -0.3032543659210205, -0.9137459397315979, -1.482642412185669, 0.59716796875, 0.231201171875, -0.70751953125
518, 3735986545, -6.429919719696045, 1.7171552181243896, 7.0305585861206055, -0.3083256483078003, -0.8123323917388916, -1.449102520942688, 0.595458984375, 0.230712890625, -0.710205078125
519, 3736003212, -6.41577672958374, 1.7250726222991943, 7.0387115478515625, -0.28363505005836487, -0.8887479305267334, -1.3799482583999634, 0.59716796875, 0.229736328125, -0.70947265625
520, 3736019879, -6.407819747924805, 1.7251945734024048, 7.014925479888916, -0.2861194610595703, -0.9297154545783997, -1.3142131567001343, 0.59912109375, 0.228759765625, -0.708984375
521, 3736036546, -6.413757801055908, 1.728383183479309, 7.006420135498047, -0.264079749584198, -0.9911987781524658, -1.317581295967102, 0.5966796875, 0.227783203125, -0.70849609375
522, 3736053213, -6.4169464111328125, 1.7319278717041016, 7.026641368865967, -0.2723270356655121, -1.1068272590637207, -1.2454944849014282, 0.59716796875, 0.230712890625, -0.709716796875
523, 3736069880, -6.422302722930908, 1.738368272781372, 7.032992839813232, -0.408215194940567, -1.3801274299621582, -1.4195325374603271, 0.5966796875, 0.227783203125, -0.7099609375
524, 3736086547, -6.408379077911377, 1.7343389987945557, 7.0479536056518555, -0.43691426515579224, -1.5352251529693604, -1.4153193235397339, 0.593017578125, 0.229736328125, -0.710693359375
525, 3736103214, -6.419501781463623, 1.7318511009216309, 7.053465366363525, -0.34249305725097656, -1.6118327379226685, -1.3741470575332642, 0.5966796875, 0.227783203125, -0.708984375
526, 3736119881, -6.400587558746338, 1.735412359237671, 7.038539886474609, -0.2688564956188202, -1.5209972858428955, -1.2540489435195923, 0.593505859375, 0.230712890625, -0.711181640625
527, 3736136548, -6.400203227996826, 1.7442493438720703, 7.050395488739014, -0.21987220644950867, -1.407392144203186, -1.1742910146713257, 0.59521484375, 0.228271484375, -0.709716796875
528, 3736153215, -6.414166450500488, 1.7335319519042969, 7.0403923988342285, -0.2776416540145874, -1.344948410987854, -1.3024441003799438, 0.595458984375, 0.229736328125, -0.710693359375
529, 3736169882, -6.416268825531006, 1.7347759008407593, 7.054074764251709, -0.2615312933921814, -1.3194382190704346, -1.266560673713684, 0.59765625, 0.227294921875, -0.70947265625
530, 3736186549, -6.406254768371582, 1.7344813346862793, 7.046390533447266, -0.3741374611854553, -1.5457775592803955, -1.2222892045974731, 0.59716796875, 0.228759765625, -0.711181640625
531, 3736203216, -6.3972697257995605, 1.7127461433410645, 7.053321838378906, -0.36804166436195374, -1.6181974411010742, -1.190836787223816, 0.593994140625, 0.22802734375, -0.711669921875
532, 3736219883, -6.401263236999512, 1.7319220304489136, 7.053053855895996, -0.23599539697170258, -1.489916205406189, -1.2291789054870605, 0.595703125, 0.228759765625, -0.710205078125
533, 3736236550, -6.3803863525390625, 1.7365413904190063, 7.052688121795654, -0.21757987141609192, -1.4673515558242798, -1.1633929014205933, 0.593505859375, 0.229736328125, -0.710693359375
534, 3736253217, -6.400482654571533, 1.7348101139068604, 7.057741641998291, -0.1861274689435959, -1.4618064165115356, -1.1050727367401123, 0.593505859375, 0.229736328125, -0.710693359375
535, 3736269884, -6.383896827697754, 1.7364041805267334, 7.063376426696777, -0.18001887202262878, -1.2613614797592163, -1.0841087102890015, 0.595458984375, 0.228271484375, -0.711181640625
536, 3736286551, -6.389345169067383, 1.7220293283462524, 7.057651996612549, -0.04338150843977928, -1.1342648267745972, -1.1474809646606445, 0.596435546875, 0.229248046875, -0.712646484375
537, 3736303218, -6.398209095001221, 1.7171716690063477, 7.0583600997924805, -0.13958919048309326, -1.1400468349456787, -1.0645917654037476, 0.595703125, 0.227783203125, -0.711669921875
538, 3736319885, -6.392603397369385, 1.716269850730896, 7.02793550491333, -0.07486592233181, -1.3128173351287842, -1.1325936317443848, 0.59716796875, 0.229736328125, -0.711669921875
539, 3736336552, -6.3921709060668945, 1.7377943992614746, 7.039742469787598, -0.12378618866205215, -1.3826119899749756, -1.1032286882400513, 0.594970703125, 0.229248046875, -0.712158203125
540, 3736353219, -6.390100479125977, 1.7292202711105347, 7.046759605407715, -0.1893291026353836, -1.4255645275115967, -1.063618779182434, 0.595703125, 0.228271484375, -0.710693359375
541, 3736369886, -6.396320343017578, 1.7318387031555176, 7.053210735321045, -0.18161964416503906, -1.5720305442810059, -1.1181992292404175, 0.59716796875, 0.229736328125, -0.711669921875
542, 3736386553, -6.398022651672363, 1.7338813543319702, 7.053062438964844, -0.24553611874580383, -1.7101982831954956, -1.1367043256759644, 0.595458984375, 0.228271484375, -0.713134765625
543, 3736403220, -6.393458366394043, 1.732722520828247, 7.0601348876953125, -0.16641850769519806, -1.7471445798873901, -1.0576251745224, 0.594970703125, 0.228759765625, -0.712646484375
544, 3736419887, -6.393770217895508, 1.733064889907837, 7.048369884490967, -0.27757763862609863, -1.9294302463531494, -0.9929531812667847, 0.594970703125, 0.2275390625, -0.714599609375
545, 3736436554, -6.379581928253174, 1.7514592409133911, 7.0704121589660645, -0.2520545721054077, -1.945182204246521, -1.0308215618133545, 0.59765625, 0.227783203125, -0.711669921875
546, 3736453221, -6.357851505279541, 1.7497345209121704, 7.071908473968506, -0.254090815782547, -1.9888262748718262, -1.0975682735443115, 0.593017578125, 0.228515625, -0.71484375
547, 3736469888, -6.359428882598877, 1.740323781967163, 7.094268321990967, -0.12174996733665466, -1.5214838981628418, -1.1104769706726074, 0.594970703125, 0.22802734375, -0.715087890625
548, 3736486555, -6.359378814697266, 1.732776165008545, 7.075873374938965, -0.21332816779613495, -1.4633431434631348, -1.191413164138794, 0.594482421875, 0.230224609375, -0.714111328125
549, 3736503222, -6.362014293670654, 1.744381308555603, 7.090027809143066, -0.20001599192619324, -1.323837161064148, -1.1898571252822876, 0.593505859375, 0.229248046875, -0.713623046875
550, 3736519889, -6.368605136871338, 1.7431879043579102, 7.072077751159668, -0.2684595286846161, -1.2031054496765137, -1.2811856269836426, 0.591552734375, 0.229248046875, -0.714599609375
551, 3736536556, -6.357046604156494, 1.7298271656036377, 7.088744163513184, -0.2082824558019638, -1.2445850372314453, -1.3474841117858887, 0.593994140625, 0.229248046875, -0.714599609375
552, 3736553223, -6.357524394989014, 1.730647325515747, 7.068192958831787, -0.2810225486755371, -1.1206196546554565, -1.3533751964569092, 0.593994140625, 0.22802734375, -0.714599609375
553, 3736569890, -6.3615264892578125, 1.755558729171753, 7.06674337387085, -0.21248294413089752, -1.0312952995300293, -1.2882676124572754, 0.594970703125, 0.228271484375, -0.713134765625
554, 3736586557, -6.351953029632568, 1.7470217943191528, 7.0683369636535645, -0.3770061135292053, -0.8129470348358154, -1.4036526679992676, 0.594482421875, 0.228271484375, -0.713623046875
555, 3736603224, -6.355408191680908, 1.7202179431915283, 7.099143981933594, -0.30714744329452515, -0.736992597579956, -1.458399772644043, 0.592041015625, 0.22705078125, -0.711181640625
556, 3736619891, -6.36533784866333, 1.725926160812378, 7.075929641723633, -0.3842929005622864, -0.7506953477859497, -1.4756499528884888, 0.593994140625, 0.229736328125, -0.712158203125
557, 3736636558, -6.357006549835205, 1.758052945137024, 7.075026512145996, -0.3326577842235565, -0.7859257459640503, -1.516131043434143, 0.593017578125, 0.230712890625, -0.713623046875
558, 3736653225, -6.359912872314453, 1.7466286420822144, 7.084024906158447, -0.3443755507469177, -0.6589122414588928, -1.4785571098327637, 0.594482421875, 0.22802734375, -0.713134765625
559, 3736669892, -6.344898223876953, 1.7242231369018555, 7.06754207611084, -0.25424447655677795, -0.5359969735145569, -1.488776683807373, 0.593505859375, 0.228759765625, -0.714111328125
560, 3736686559, -6.345911979675293, 1.7249835729599, 7.082431316375732, -0.1586066484451294, -0.5607004165649414, -1.3752995729446411, 0.593017578125, 0.229736328125, -0.711181640625
561, 3736703226, -6.362961292266846, 1.7413564920425415, 7.0856032371521, -0.039853353053331375, -0.39691999554634094, -1.3611482381820679, 0.593017578125, 0.22705078125, -0.713623046875
562, 3736719893, -6.354712963104248, 1.7344635725021362, 7.054378509521484, -0.08464998006820679, -0.4595943093299866, -1.4718211889266968, 0.593994140625, 0.2275390625, -0.714599609375
563, 3736736560, -6.369815349578857, 1.7594555616378784, 7.068931579589844, -0.19539928436279297, -0.5190541744232178, -1.5469814538955688, 0.593505859375, 0.228759765625, -0.712158203125
564, 3736753227, -6.398297309875488, 1.720597743988037, 7.059257507324219, -0.2677679657936096, -0.44708243012428284, -1.4958840608596802, 0.591552734375, 0.228515625, -0.71484375
565, 3736769894, -6.375398635864258, 1.7348685264587402, 7.078290939331055, -0.2165297567844391, -0.57157301902771, -1.4494355916976929, 0.593505859375, 0.229248046875, -0.713134765625
566, 3736786561, -6.377028942108154, 1.728442668914795, 7.058535099029541, -0.19433635473251343, -0.5834701061248779, -1.452803611755371, 0.593994140625, 0.230712890625, -0.712158203125
567, 3736803228, -6.373741149902344, 1.718251347541809, 7.049345016479492, -0.1274103820323944, -0.47159382700920105, -1.290687918663025, 0.594970703125, 0.229248046875, -0.714111328125
568, 3736819895, -6.374362945556641, 1.7295373678207397, 7.058753967285156, -0.12008514255285263, -0.469314306974411, -1.2629750967025757, 0.592041015625, 0.229736328125, -0.712646484375
569, 3736836562, -6.379964828491211, 1.7277692556381226, 7.0450897216796875, -0.14937324821949005, -0.5797818303108215, -1.3458576202392578, 0.593994140625, 0.230224609375, -0.711669921875
570, 3736853229, -6.384958267211914, 1.7355364561080933, 7.0783843994140625, -0.1725783795118332, -0.7331250905990601, -1.3446539640426636, 0.592041015625, 0.228759765625, -0.713623046875
571, 3736869896, -6.364500045776367, 1.7472342252731323, 7.053531646728516, -0.2163504809141159, -0.9263986349105835, -1.3497892618179321, 0.595458984375, 0.228759765625, -0.713623046875
572, 3736886563, -6.3687872886657715, 1.7228103876113892, 7.068044662475586, -0.22389338910579681, -0.9371175169944763, -1.3724051713943481, 0.595458984375, 0.229248046875, -0.712158203125
573, 3736903230, -6.374401092529297, 1.7347444295883179, 7.090489864349365, -0.19286362826824188, -0.872957706451416, -1.3047493696212769, 0.594482421875, 0.230224609375, -0.713623046875
574, 3736919897, -6.3710408210754395, 1.7224048376083374, 7.087188720703125, -0.14193278551101685, -0.7328945994377136, -1.3753892183303833, 0.593994140625, 0.229736328125, -0.713134765625
575, 3736936564, -6.377617835998535, 1.731724739074707, 7.066066265106201, -0.17143860459327698, -0.698829710483551, -1.3250728845596313, 0.591064453125, 0.2275390625, -0.712646484375
576, 3736953231, -6.3779988288879395, 1.7304404973983765, 7.072373390197754, -0.2195008248090744, -0.7631688117980957, -1.326340913772583, 0.592529296875, 0.229248046875, -0.713134765625
577, 3736969898, -6.372900485992432, 1.7365666627883911, 7.062511444091797, -0.2089099884033203, -0.6682865619659424, -1.3289917707443237, 0.594970703125, 0.230224609375, -0.713134765625
578, 3736986565, -6.382951259613037, 1.734342098236084, 7.064044952392578, -0.1947333663702011, -0.6654307842254639, -1.3020087480545044, 0.594482421875, 0.230224609375, -0.714599609375
579, 3737003232, -6.364716053009033, 1.7305424213409424, 7.05696964263916, -0.10607500374317169, -0.6824632883071899, -1.2811728715896606, 0.593017578125, 0.22802734375, -0.713134765625
580, 3737019899, -6.378502368927002, 1.740257740020752, 7.071749687194824, -0.11520592123270035, -0.6765850186347961, -1.2916228771209717, 0.594482421875, 0.229248046875, -0.713623046875
581, 3737036566, -6.387795448303223, 1.7378349304199219, 7.087573051452637, -0.19213366508483887, -0.6173684597015381, -1.3474584817886353, 0.594970703125, 0.228759765625, -0.714599609375
582, 3737053233, -6.385436058044434, 1.729453682899475, 7.085964679718018, -0.1568649858236313, -0.736646831035614, -1.2991145849227905, 0.596435546875, 0.228271484375, -0.714599609375
583, 3737069900, -6.379530906677246, 1.7429746389389038, 7.051857948303223, -0.20181527733802795, -0.8693718314170837, -1.3780784606933594, 0.595458984375, 0.22802734375, -0.712158203125
584, 3737086567, -6.379635334014893, 1.740637183189392, 7.067372798919678, -0.24772605299949646, -0.9244264960289001, -1.3489696979522705, 0.593505859375, 0.228759765625, -0.713623046875
585, 3737103234, -6.37869930267334, 1.73636794090271, 7.084669589996338, -0.25140148401260376, -0.9007601141929626, -1.2391295433044434, 0.595458984375, 0.22802734375, -0.714111328125
586, 3737119901, -6.391134738922119, 1.7259091138839722, 7.056281566619873, -0.19609081745147705, -0.9541755318641663, -1.2230318784713745, 0.593994140625, 0.228759765625, -0.711669921875
587, 3737136568, -6.3732147216796875, 1.7166587114334106, 7.068535804748535, -0.19259469211101532, -1.019615888595581, -1.2229679822921753, 0.593505859375, 0.229736328125, -0.713134765625
588, 3737153235, -6.37711238861084, 1.731954574584961, 7.075920104980469, -0.13193102180957794, -0.8778624534606934, -1.1645325422286987, 0.593017578125, 0.228759765625, -0.713134765625
589, 3737169902, -6.385589122772217, 1.7213774919509888, 7.075410842895508, -0.12633465230464935, -1.0432053804397583, -1.130250096321106, 0.594970703125, 0.228759765625, -0.710693359375
590, 3737186569, -6.367905616760254, 1.7367911338806152, 7.08228063583374, -0.11982902884483337, -1.1564903259277344, -1.180668592453003, 0.594482421875, 0.230224609375, -0.713623046875
591, 3737203236, -6.381374359130859, 1.7427421808242798, 7.06184720993042, -0.11765194684267044, -1.2311385869979858, -1.149587631225586, 0.595458984375, 0.228759765625, -0.715087890625
592, 3737219903, -6.361256122589111, 1.738365888595581, 7.0821990966796875, -0.2480718046426773, -1.2132993936538696, -1.150266408920288, 0.593505859375, 0.22802734375, -0.713134765625
593, 3737236570, -6.369732856750488, 1.7350062131881714, 7.063487529754639, -0.2544109523296356, -1.2777022123336792, -1.137946605682373, 0.592041015625, 0.228515625, -0.713134765625
594, 3737253237, -6.371887683868408, 1.7405211925506592, 7.094104290008545, -0.21629926562309265, -1.3604953289031982, -1.1329265832901, 0.593017578125, 0.22705078125, -0.714111328125
595, 3737269904, -6.354348182678223, 1.7583966255187988, 7.084238529205322, -0.20920449495315552, -1.4041519165039062, -1.1622017621994019, 0.591552734375, 0.2275390625, -0.714111328125
596, 3737286571, -6.356891632080078, 1.7176746129989624, 7.076881408691406, -0.2075781375169754, -1.2010564804077148, -1.212005853652954, 0.594482421875, 0.229248046875, -0.716796875
597, 3737303238, -6.371113300323486, 1.7249162197113037, 7.070356845855713, -0.009233378805220127, -1.1769803762435913, -1.1670554876327515, 0.591552734375, 0.22900390625, -0.714111328125
598, 3737319905, -6.359282493591309, 1.745998740196228, 7.057988166809082, -0.010257885791361332, -1.0137889385223389, -1.1609596014022827, 0.594970703125, 0.228271484375, -0.712646484375
599, 3737336572, -6.369011878967285, 1.729862928390503, 7.08490514755249, -0.07265042513608932, -0.9688260555267334, -1.1463476419448853, 0.593994140625, 0.231201171875, -0.714599609375
600, 3737353239, -6.37309455871582, 1.71390962600708, 7.060177803039551, -0.06743823736906052, -0.9386284947395325, -1.1029597520828247, 0.593994140625, 0.2275390625, -0.714111328125
601, 3737369906, -6.354773998260498, 1.7513495683670044, 7.064913749694824, -0.050892435014247894, -0.913118302822113, -1.1662743091583252, 0.593505859375, 0.228759765625, -0.71484375
602, 3737386573, -6.347915172576904, 1.7431889772415161, 7.040925979614258, -0.07551904022693634, -0.9933372735977173, -1.1685280799865723, 0.593505859375, 0.22802734375, -0.712158203125
603, 3737403240, -6.367559909820557, 1.740161418914795, 7.075953960418701, -0.05577165633440018, -0.9528437256813049, -1.2423185110092163, 0.592041015625, 0.229736328125, -0.712158203125
604, 3737419907, -6.3481764793396, 1.7497987747192383, 7.0669474601745605, -0.042517080903053284, -0.8472937941551208, -1.137242317199707, 0.594482421875, 0.22802734375, -0.714599609375
605, 3737436574, -6.368110179901123, 1.7386473417282104, 7.061767578125, 0.030741645023226738, -0.8228592276573181, -1.2124155759811401, 0.593994140625, 0.228271484375, -0.714111328125
606, 3737453241, -6.354771614074707, 1.7456424236297607, 7.079561710357666, 0.03863035514950752, -0.7613374590873718, -1.140405535697937, 0.594482421875, 0.22802734375, -0.714111328125
607, 3737469908, -6.349111557006836, 1.738160252571106, 7.087789535522461, 0.07840687036514282, -0.8030093908309937, -1.1559650897979736, 0.592041015625, 0.22802734375, -0.71630859375
608, 3737486575, -6.337882041931152, 1.757954478263855, 7.074116230010986, -0.037612248212099075, -0.7209334373474121, -1.312407374382019, 0.593505859375, 0.2275390625, -0.71533203125
609, 3737503242, -6.361558437347412, 1.7512787580490112, 7.0814290046691895, -0.19363199174404144, -0.7053225636482239, -1.3539129495620728, 0.594970703125, 0.228271484375, -0.714111328125
610, 3737519909, -6.357812881469727, 1.750540852546692, 7.08460807800293, -0.25964874029159546, -0.8755572438240051, -1.4217865467071533, 0.593017578125, 0.22802734375, -0.713623046875
611, 3737536576, -6.3790459632873535, 1.738044261932373, 7.058459281921387, -0.43375104665756226, -1.0502231121063232, -1.5342518091201782, 0.593505859375, 0.22802734375, -0.713134765625
612, 3737553243, -6.387032508850098, 1.7492700815200806, 7.069451332092285, -0.48445144295692444, -1.4090313911437988, -1.5982582569122314, 0.594970703125, 0.22802734375, -0.714599609375
613, 3737569910, -6.365763187408447, 1.7317891120910645, 7.07274866104126, -0.2888472080230713, -1.288331389427185, -1.4491792917251587, 0.593505859375, 0.22705078125, -0.71533203125
614, 3737586577, -6.359759330749512, 1.721657156944275, 7.08581018447876, 0.0744112879037857, -1.2102128267288208, -1.0509274005889893, 0.593994140625, 0.228515625, -0.71533203125
615, 3737603244, -6.346808433532715, 1.7249157428741455, 7.055035591125488, 0.22418153285980225, -1.1258445978164673, -0.9858841300010681, 0.593017578125, 0.2275390625, -0.71630859375
616, 3737619911, -6.336935520172119, 1.7713261842727661, 7.083845138549805, 0.24796292185783386, -1.1251403093338013, -0.9041666984558105, 0.595458984375, 0.228271484375, -0.713623046875
617, 3737636578, -6.347882270812988, 1.7524925470352173, 7.088582515716553, 0.19759556651115417, -1.1208115816116333, -1.0163631439208984, 0.590576171875, 0.22802734375, -0.7158203125
618, 3737653245, -6.3483405113220215, 1.7645561695098877, 7.087193965911865, 0.08040465414524078, -1.1585646867752075, -1.191080093383789, 0.591064453125, 0.22509765625, -0.7177734375
619, 3737669912, -6.362156867980957, 1.757004976272583, 7.0798444747924805, 0.05110374093055725, -1.1125390529632568, -1.2668042182922363, 0.593994140625, 0.228271484375, -0.715087890625
620, 3737686579, -6.35448694229126, 1.7397875785827637, 7.070981502532959, 0.13410168886184692, -1.2740269899368286, -1.1414684057235718, 0.594482421875, 0.2275390625, -0.71533203125
621, 3737703246, -6.363570213317871, 1.7647308111190796, 7.079376220703125, 0.13169409334659576, -1.5492737293243408, -1.178081750869751, 0.593505859375, 0.228515625, -0.715087890625
622, 3737719913, -6.345006465911865, 1.77012038230896, 7.060112953186035, 0.1066448837518692, -1.7976274490356445, -1.2366453409194946, 0.592041015625, 0.22705078125, -0.716796875
623, 3737736580, -6.321102619171143, 1.7786695957183838, 7.0649333000183105, 0.5491682887077332, -1.034074306488037, -1.5149143934249878, 0.592041015625, 0.22705078125, -0.71630859375
624, 3737753247, -6.3720784187316895, 1.713525414466858, 7.0800042152404785, 0.990129292011261, -0.4397828280925751, -1.2542537450790405, 0.591552734375, 0.2255859375, -0.71728515625
625, 3737769914, -6.352564811706543, 1.7754067182540894, 7.078184604644775, 1.1132113933563232, -1.1728568077087402, -0.8256254196166992, 0.592529296875, 0.22705078125, -0.716796875
626, 3737786581, -6.30110502243042, 1.7933756113052368, 7.032499313354492, 2.361663818359375, -0.07271444797515869, -1.0354061126708984, 0.592529296875, 0.228515625, -0.7158203125
627, 3737803248, -6.439136505126953, 1.59914231300354, 7.049771785736084, 4.409745693206787, 1.0707327127456665, 0.02956346422433853, 0.593994140625, 0.22509765625, -0.71630859375
628, 3737819915, -6.400411128997803, 1.7219351530075073, 7.009311676025391, 4.098973751068115, -1.6363955736160278, 1.6565593481063843, 0.593505859375, 0.2236328125, -0.715087890625
629, 3737836582, -6.331126689910889, 1.6855413913726807, 7.0086164474487305, 2.9209558963775635, -3.8723714351654053, 2.2329344749450684, 0.591552734375, 0.221435546875, -0.71630859375
630, 3737853249, -6.133084774017334, 1.7315691709518433, 7.0880584716796875, 1.4569209814071655, -6.138711452484131, 2.2260704040527344, 0.591064453125, 0.221923828125, -0.7197265625
631, 3737869916, -6.2812275886535645, 1.7955296039581299, 7.061151504516602, -0.21916788816452026, -6.6964921951293945, 0.9850068688392639, 0.591552734375, 0.221923828125, -0.7177734375
632, 3737886583, -6.322378158569336, 1.7878985404968262, 7.022268772125244, -0.7958763241767883, -7.446932315826416, 1.3444554805755615, 0.589599609375, 0.220458984375, -0.7197265625
633, 3737903250, -6.337170600891113, 1.8511803150177002, 6.991444110870361, 1.4059133529663086, -7.598611354827881, 3.6880438327789307, 0.587890625, 0.220947265625, -0.721923828125
634, 3737919917, -6.331727504730225, 1.571851372718811, 7.0822625160217285, 6.767609119415283, -4.9814934730529785, 8.216443061828613, 0.587158203125, 0.216796875, -0.7216796875
635, 3737936584, -6.200653553009033, 1.861699104309082, 7.1797871589660645, 10.278852462768555, -3.082516670227051, 11.763738632202148, 0.587646484375, 0.212158203125, -0.723876953125
636, 3737953251, -6.055682182312012, 1.9945412874221802, 7.279303073883057, 11.080838203430176, -0.5463705062866211, 11.030573844909668, 0.587646484375, 0.20703125, -0.726806640625
637, 3737969918, -6.230467319488525, 2.11453914642334, 7.176066875457764, 10.658583641052246, 3.1368210315704346, 8.188685417175293, 0.587890625, 0.202392578125, -0.72314453125
638, 3737986585, -6.185722351074219, 2.1473827362060547, 7.218452453613281, 8.516500473022461, 3.861647367477417, 5.427787780761719, 0.58837890625, 0.19775390625, -0.72021484375
639, 3738003252, -6.22139835357666, 2.1978282928466797, 7.140676975250244, 5.739608287811279, 4.5452880859375, 2.5790905952453613, 0.591064453125, 0.19580078125, -0.72119140625
640, 3738019919, -6.241508960723877, 2.210153579711914, 7.079844951629639, 4.282142639160156, 5.013538837432861, 0.8847459554672241, 0.59375, 0.19384765625, -0.718505859375
641, 3738036586, -6.154918670654297, 2.063887119293213, 7.171987056732178, 5.854648590087891, 7.57392692565918, 1.461492896080017, 0.59375, 0.189697265625, -0.71337890625
642, 3738053253, -6.059148788452148, 2.055119752883911, 7.178051948547363, 6.333120822906494, 10.946353912353516, 1.8680438995361328, 0.596435546875, 0.185546875, -0.708740234375
643, 3738069920, -6.192115306854248, 2.2162933349609375, 7.067440509796143, 4.803966522216797, 14.230932235717773, 0.8709156513214111, 0.599853515625, 0.175537109375, -0.70361328125
644, 3738086587, -6.41161584854126, 2.040808916091919, 6.909432411193848, 3.223098039627075, 14.640618324279785, -0.037676308304071426, 0.6005859375, 0.166748046875, -0.701904296875
645, 3738103254, -6.404417514801025, 2.1002981662750244, 6.903068542480469, 2.437312602996826, 13.751437187194824, 0.5166406035423279, 0.59814453125, 0.16015625, -0.69921875
646, 3738119921, -6.351742267608643, 2.226792097091675, 6.971436977386475, 2.107715368270874, 14.267276763916016, 0.49781519174575806, 0.591064453125, 0.159912109375, -0.699462890625
647, 3738136588, -6.428033828735352, 1.98336660861969, 6.897819519042969, 1.8730007410049438, 15.508330345153809, 0.030882544815540314, 0.590576171875, 0.1611328125, -0.700927734375
648, 3738153255, -6.297977447509766, 2.0366103649139404, 6.809883117675781, -0.2457924783229828, 16.739212036132812, -1.5931495428085327, 0.58984375, 0.16552734375, -0.69775390625
649, 3738169922, -6.203596115112305, 2.3971798419952393, 6.857648849487305, -3.660291910171509, 21.089502334594727, -6.0168304443359375, 0.5927734375, 0.17236328125, -0.6943359375
650, 3738186589, -6.373125076293945, 2.4223108291625977, 6.773681640625, -8.830605506896973, 23.705652236938477, -13.672994613647461, 0.59521484375, 0.178955078125, -0.688720703125
651, 3738203256, -6.597225189208984, 2.6975576877593994, 6.596591472625732, -15.415021896362305, 25.228776931762695, -25.41486167907715, 0.601318359375, 0.187744140625, -0.6806640625
652, 3738219923, -6.84350061416626, 2.316042900085449, 6.624419212341309, -15.49622917175293, 25.183364868164062, -30.819856643676758, 0.604736328125, 0.19873046875, -0.676025390625
