sep=,
DeviceTag:,A,,,,,,,,,,,,,,,,,
FirmwareVersion:,2.2.1,,,,,,,,,,,,,,,,,
AppVersion:,2022.0.1,,,,,,,,,,,,,,,,,
SyncStatus:,Synced,,,,,,,,,,,,,,,,,
OutputRate:,60Hz,,,,,,,,,,,,,,,,,
FilterProfile:,General,,,,,,,,,,,,,,,,,
Measurement Mode:,Inertial Mode - Rate quantities (with mag),,,,,,,,,,,,,,,,,
StartTime:,2022-08-16 15:48:38.988 +0300,,,,,,,,,,,,,,,,,
© Xsens Technologies B. V. 2005-2022,,,,,,,,,,,,,,,,,,,

PacketCounter,SampleTimeFine,Acc_X,Acc_Y,Acc_Z,Gyr_X,Gyr_Y,Gyr_Z,Mag_X,Mag_Y,Mag_Z
1, 2342034237, -5.569135665893555, 1.781888484954834, 7.962480545043945, -2.4038798809051514, -1.996432900428772, -2.0106608867645264, 0.327392578125, -0.15673828125, -0.908203125
2, 2342050904, -5.561880588531494, 1.7991201877593994, 7.959629535675049, -2.719146966934204, -1.8099983930587769, -2.188746213912964, 0.327392578125, -0.15576171875, -0.907958984375
3, 2342067571, -5.598598480224609, 1.7602277994155884, 7.951981067657471, -2.5182666778564453, -1.9833452701568604, -2.1232802867889404, 0.32421875, -0.15478515625, -0.908203125
4, 2342084238, -5.587741851806641, 1.7749844789505005, 7.992528915405273, -2.4154696464538574, -1.7215704917907715, -2.18408465385437, 0.32470703125, -0.158203125, -0.9091796875
5, 2342100905, -5.594001770019531, 1.7634735107421875, 7.961137294769287, -2.3286678791046143, -1.7443400621414185, -2.068532943725586, 0.326416015625, -0.154296875, -0.91015625
6, 2342117572, -5.5731635093688965, 1.7700084447860718, 7.9607319831848145, -2.2520477771759033, -1.8835325241088867, -1.9393807649612427, 0.326171875, -0.15576171875, -0.9091796875
7, 2342134239, -5.566628456115723, 1.7934247255325317, 7.987916469573975, -2.1490976810455322, -1.784257411956787, -1.9871101379394531, 0.327392578125, -0.15625, -0.908203125
8, 2342150906, -5.578421592712402, 1.770088791847229, 7.959029674530029, -2.2255260944366455, -1.6995692253112793, -2.006767988204956, 0.3251953125, -0.1552734375, -0.91064453125
9, 2342167573, -5.583952903747559, 1.7662441730499268, 7.950827121734619, -2.2077505588531494, -1.8278119564056396, -2.0542538166046143, 0.3251953125, -0.154296875, -0.90771484375
10, 2342184240, -5.579871654510498, 1.7644845247268677, 7.967347145080566, -2.250319004058838, -1.9360897541046143, -2.0087273120880127, 0.3251953125, -0.15771484375, -0.908203125
11, 2342200907, -5.574697017669678, 1.7890230417251587, 7.960249900817871, -2.2878544330596924, -1.8936753273010254, -1.993321418762207, 0.32470703125, -0.1552734375, -0.9091796875
12, 2342217574, -5.571667194366455, 1.7917187213897705, 7.951832294464111, -2.330653429031372, -1.8775005340576172, -2.1101536750793457, 0.32470703125, -0.15673828125, -0.908203125
13, 2342234241, -5.547016620635986, 1.7846044301986694, 7.986436367034912, -2.386425018310547, -1.8315386772155762, -2.1267762184143066, 0.32373046875, -0.158203125, -0.9091796875
14, 2342250908, -5.56982946395874, 1.7657169103622437, 7.987251281738281, -2.3269264698028564, -1.48014497756958, -2.1628386974334717, 0.3251953125, -0.15625, -0.906494140625
15, 2342267575, -5.588592052459717, 1.759175181388855, 7.954662322998047, -2.3479418754577637, -1.4262049198150635, -2.088306188583374, 0.3232421875, -0.1552734375, -0.91064453125
16, 2342284242, -5.596251487731934, 1.7707206010818481, 7.968036651611328, -2.287060260772705, -1.3851730823516846, -2.0706584453582764, 0.32568359375, -0.15771484375, -0.90966796875
17, 2342300909, -5.593629837036133, 1.778347134590149, 7.962610721588135, -2.258527994155884, -1.5442538261413574, -2.125969409942627, 0.32568359375, -0.1572265625, -0.907470703125
18, 2342317576, -5.577134609222412, 1.771618366241455, 7.956114768981934, -2.2843072414398193, -1.6456032991409302, -2.0503478050231934, 0.3251953125, -0.1552734375, -0.90966796875
19, 2342334243, -5.550857067108154, 1.7824063301086426, 7.98267126083374, -2.27650785446167, -1.680000901222229, -2.0778045654296875, 0.32373046875, -0.15478515625, -0.9091796875
20, 2342350910, -5.5694756507873535, 1.779862880706787, 7.98336935043335, -2.3140816688537598, -1.5427168607711792, -2.107797145843506, 0.32421875, -0.16015625, -0.907470703125
21, 2342367577, -5.577592849731445, 1.8175550699234009, 7.962179183959961, -2.214345932006836, -1.5275156497955322, -2.235527515411377, 0.325927734375, -0.15576171875, -0.908203125
22, 2342384244, -5.570954322814941, 1.749451994895935, 7.973325729370117, -2.2461955547332764, -1.5795992612838745, -2.150250196456909, 0.325927734375, -0.1572265625, -0.908203125
23, 2342400911, -5.569850921630859, 1.7833918333053589, 7.973392963409424, -2.1538102626800537, -1.5027098655700684, -2.2028329372406006, 0.3232421875, -0.15576171875, -0.90673828125
24, 2342417578, -5.571329593658447, 1.7988096475601196, 7.978523254394531, -2.268862724304199, -1.5287965536117554, -2.2582590579986572, 0.32470703125, -0.15625, -0.91259765625
25, 2342434245, -5.580083847045898, 1.7654169797897339, 7.953029155731201, -2.3074097633361816, -1.3295551538467407, -2.2915682792663574, 0.32470703125, -0.15771484375, -0.907470703125
26, 2342450912, -5.571123123168945, 1.7784485816955566, 7.957070827484131, -2.3804824352264404, -1.307400107383728, -2.2829620838165283, 0.326904296875, -0.158203125, -0.91015625
27, 2342467579, -5.573713302612305, 1.8092832565307617, 7.9991841316223145, -2.3477752208709717, -1.1980725526809692, -2.4495859146118164, 0.32421875, -0.15673828125, -0.9091796875
28, 2342484246, -5.621476650238037, 1.7733497619628906, 7.916630268096924, -2.660109758377075, -1.2042838335037231, -2.6043381690979004, 0.32568359375, -0.15673828125, -0.907470703125
29, 2342500913, -5.572655200958252, 1.7607492208480835, 7.946190357208252, -2.31960129737854, -1.4106833934783936, -2.349670171737671, 0.326904296875, -0.15576171875, -0.906005859375
30, 2342517580, -5.591074466705322, 1.7490626573562622, 7.930332660675049, -2.2935144901275635, -1.3514924049377441, -2.1392109394073486, 0.32470703125, -0.158203125, -0.908203125
31, 2342534247, -5.58340311050415, 1.756077527999878, 7.92484712600708, -2.182957649230957, -1.5953127145767212, -2.209825038909912, 0.326904296875, -0.15673828125, -0.907958984375
32, 2342550914, -5.573642730712891, 1.7704836130142212, 7.958092212677002, -2.193702459335327, -1.666093349456787, -2.1711502075195312, 0.325927734375, -0.158203125, -0.90869140625
33, 2342567581, -5.606039524078369, 1.7901571989059448, 7.9827704429626465, -2.26379132270813, -1.7667512893676758, -2.223400115966797, 0.3251953125, -0.1572265625, -0.9091796875
34, 2342584248, -5.5757670402526855, 1.7756645679473877, 7.977209091186523, -2.3552160263061523, -1.7354141473770142, -2.19327974319458, 0.326904296875, -0.1572265625, -0.908203125
35, 2342600915, -5.569650650024414, 1.776235580444336, 7.94620943069458, -2.4309911727905273, -1.6281994581222534, -2.244044065475464, 0.32470703125, -0.15673828125, -0.908203125
36, 2342617582, -5.554481506347656, 1.7920295000076294, 7.9752655029296875, -2.406787395477295, -1.6567192077636719, -2.181779623031616, 0.32421875, -0.15869140625, -0.90869140625
37, 2342634249, -5.560485363006592, 1.7731027603149414, 7.951678276062012, -2.375347375869751, -1.4781471490859985, -2.186901807785034, 0.32421875, -0.15625, -0.90869140625
38, 2342650916, -5.588459014892578, 1.77744460105896, 7.95854377746582, -2.4024970531463623, -1.4346826076507568, -2.1484060287475586, 0.32421875, -0.15576171875, -0.9072265625
39, 2342667583, -5.578145980834961, 1.7727314233779907, 7.94553279876709, -2.3036444187164307, -1.429047703742981, -2.152017116546631, 0.327880859375, -0.15625, -0.90869140625
40, 2342684250, -5.5854034423828125, 1.773840069770813, 7.963399410247803, -2.4070045948028564, -1.5266704559326172, -2.1334352493286133, 0.32421875, -0.1572265625, -0.9072265625
41, 2342700917, -5.578122138977051, 1.7788867950439453, 7.975268363952637, -2.383863925933838, -1.597054362297058, -2.193164587020874, 0.326904296875, -0.15771484375, -0.906005859375
42, 2342717584, -5.590117454528809, 1.7753125429153442, 7.943243503570557, -2.3091256618499756, -1.6017413139343262, -2.0463907718658447, 0.326904296875, -0.15673828125, -0.90869140625
43, 2342734251, -5.601595878601074, 1.785728931427002, 7.9591217041015625, -2.0388987064361572, -1.776138424873352, -1.9421852827072144, 0.326904296875, -0.15771484375, -0.906982421875
44, 2342750918, -5.592263698577881, 1.787820816040039, 7.946118354797363, -2.399897336959839, -1.856779932975769, -2.156294822692871, 0.326416015625, -0.15771484375, -0.907470703125
45, 2342767585, -5.584983825683594, 1.774064540863037, 7.9778971672058105, -2.3713643550872803, -1.9426462650299072, -2.0999341011047363, 0.3251953125, -0.1572265625, -0.91064453125
46, 2342784252, -5.57764196395874, 1.7811678647994995, 7.98458194732666, -2.418632984161377, -1.7800443172454834, -2.2446844577789307, 0.326904296875, -0.1572265625, -0.906005859375
47, 2342800919, -5.575885772705078, 1.7696532011032104, 7.961492538452148, -2.4284937381744385, -1.7402675151824951, -2.2051639556884766, 0.326904296875, -0.15478515625, -0.908203125
48, 2342817586, -5.593198299407959, 1.7676422595977783, 7.966446876525879, -2.3486974239349365, -1.7756645679473877, -2.070953369140625, 0.327392578125, -0.15673828125, -0.906982421875
49, 2342834253, -5.587214946746826, 1.7820295095443726, 7.974427700042725, -2.3964650630950928, -1.756813406944275, -2.110806703567505, 0.3251953125, -0.15771484375, -0.906494140625
50, 2342850920, -5.566534042358398, 1.7828311920166016, 7.957435607910156, -2.2645084857940674, -1.778289794921875, -2.156409978866577, 0.32568359375, -0.158203125, -0.90966796875
51, 2342867587, -5.583290100097656, 1.7600654363632202, 7.965615272521973, -2.256427526473999, -1.639904260635376, -2.1750688552856445, 0.32373046875, -0.15673828125, -0.908203125
52, 2342884254, -5.577511310577393, 1.768867015838623, 7.969200134277344, -2.199695587158203, -1.734876275062561, -2.168358325958252, 0.32568359375, -0.15625, -0.90771484375
53, 2342900921, -5.584362983703613, 1.7830219268798828, 7.970217704772949, -2.185122013092041, -1.6659907102584839, -2.136995553970337, 0.32373046875, -0.15673828125, -0.906982421875
54, 2342917588, -5.565064907073975, 1.7596704959869385, 7.951597690582275, -2.1502885818481445, -1.6551437377929688, -2.215165376663208, 0.32568359375, -0.15869140625, -0.907958984375
55, 2342934255, -5.5693182945251465, 1.764629602432251, 7.981220245361328, -2.058953285217285, -1.48588228225708, -2.282616376876831, 0.326416015625, -0.15966796875, -0.907958984375
56, 2342950922, -5.567508220672607, 1.7847379446029663, 7.984362602233887, -2.0412425994873047, -1.2001726627349854, -2.194880485534668, 0.326904296875, -0.15673828125, -0.907470703125
57, 2342967589, -5.5828633308410645, 1.805561900138855, 7.955588340759277, -2.095938205718994, -1.0811759233474731, -2.2533280849456787, 0.325927734375, -0.15966796875, -0.906494140625
58, 2342984256, -5.587932109832764, 1.7764004468917847, 7.944880485534668, -2.087998390197754, -1.2723619937896729, -2.3345589637756348, 0.3251953125, -0.15576171875, -0.906982421875
59, 2343000923, -5.584526062011719, 1.7808332443237305, 7.958934783935547, -2.089266538619995, -1.330912709236145, -2.2334530353546143, 0.326904296875, -0.15869140625, -0.90869140625
60, 2343017590, -5.582302093505859, 1.7759953737258911, 7.966877460479736, -1.9922200441360474, -1.4984455108642578, -2.236706018447876, 0.325927734375, -0.158203125, -0.90869140625
61, 2343034257, -5.588129043579102, 1.7843897342681885, 7.95070219039917, -2.0238773822784424, -1.4132704734802246, -2.1528115272521973, 0.328857421875, -0.159423828125, -0.906982421875
62, 2343050924, -5.580557823181152, 1.7939820289611816, 7.96497106552124, -2.055483102798462, -1.4653409719467163, -2.2599620819091797, 0.327880859375, -0.15771484375, -0.906494140625
63, 2343067591, -5.597415924072266, 1.7754322290420532, 7.94041109085083, -2.1168127059936523, -1.7146804332733154, -2.0907773971557617, 0.326416015625, -0.158203125, -0.907470703125
64, 2343084258, -5.5886125564575195, 1.7944778203964233, 7.949351787567139, -2.1192972660064697, -1.8472133874893188, -2.038130283355713, 0.326416015625, -0.1572265625, -0.906494140625
65, 2343100925, -5.578510284423828, 1.8067938089370728, 7.932618141174316, -2.253674030303955, -1.942262053489685, -1.8734408617019653, 0.326904296875, -0.15771484375, -0.90869140625
66, 2343117592, -5.600915431976318, 1.7610372304916382, 7.987886428833008, -2.2066619396209717, -2.070735454559326, -2.1576521396636963, 0.326904296875, -0.15771484375, -0.9091796875
67, 2343134259, -5.578124046325684, 1.7930864095687866, 7.954531192779541, -2.194175958633423, -1.823675274848938, -2.0809547901153564, 0.327392578125, -0.15869140625, -0.908447265625
68, 2343150926, -5.577586650848389, 1.784401535987854, 7.969091892242432, -2.273088216781616, -1.8023910522460938, -2.021251678466797, 0.3251953125, -0.158203125, -0.906982421875
69, 2343167593, -5.573387145996094, 1.8120298385620117, 7.9655442237854, -2.2489233016967773, -1.869214653968811, -2.0345704555511475, 0.32568359375, -0.15771484375, -0.9091796875
70, 2343184260, -5.579955577850342, 1.7930552959442139, 7.939796447753906, -2.186696767807007, -1.698736548423767, -2.0128121376037598, 0.325927734375, -0.158203125, -0.907958984375
71, 2343200927, -5.599562168121338, 1.7845275402069092, 7.9602580070495605, -2.2554802894592285, -1.8150696754455566, -2.1342806816101074, 0.3251953125, -0.1591796875, -0.907470703125
72, 2343217594, -5.582048416137695, 1.7903351783752441, 7.9736328125, -2.2654943466186523, -1.6954965591430664, -2.1049540042877197, 0.327392578125, -0.1591796875, -0.907470703125
73, 2343234261, -5.574557781219482, 1.796059012413025, 7.955991744995117, -2.218111038208008, -1.694920301437378, -2.0943758487701416, 0.326416015625, -0.15869140625, -0.908203125
74, 2343250928, -5.57498025894165, 1.7902824878692627, 7.951260566711426, -2.288046360015869, -1.5729782581329346, -2.14113187789917, 0.325927734375, -0.1591796875, -0.90869140625
75, 2343267595, -5.583922863006592, 1.7777206897735596, 7.968532562255859, -2.223540782928467, -1.5966827869415283, -1.9926680326461792, 0.326904296875, -0.15625, -0.906982421875
76, 2343284262, -5.570596694946289, 1.784420371055603, 7.952864170074463, -2.1461005210876465, -1.5514634847640991, -2.052025318145752, 0.326416015625, -0.158203125, -0.91015625
77, 2343300929, -5.580302715301514, 1.789239764213562, 7.951715469360352, -2.170100212097168, -1.6879538297653198, -2.1101152896881104, 0.32470703125, -0.15869140625, -0.908203125
78, 2343317596, -5.572409629821777, 1.801723837852478, 7.9607157707214355, -2.2271392345428467, -1.784462332725525, -2.1024820804595947, 0.32421875, -0.15869140625, -0.907470703125
79, 2343334263, -5.573523044586182, 1.7882258892059326, 7.96457052230835, -2.2594239711761475, -1.7195980548858643, -2.062129497528076, 0.326904296875, -0.1572265625, -0.9091796875
80, 2343350930, -5.583971977233887, 1.8121577501296997, 7.941847801208496, -2.681086301803589, -1.6185178756713867, -2.2904672622680664, 0.3251953125, -0.15869140625, -0.90771484375
81, 2343367597, -5.587563991546631, 1.7879644632339478, 7.9751763343811035, -2.601994752883911, -1.4980744123458862, -2.3519506454467773, 0.32470703125, -0.15771484375, -0.91015625
82, 2343384264, -5.55641508102417, 1.8188904523849487, 7.9884772300720215, -2.572399139404297, -1.5376970767974854, -2.365218162536621, 0.325927734375, -0.15869140625, -0.90869140625
83, 2343400931, -5.593055248260498, 1.7818948030471802, 7.952019214630127, -2.5239524841308594, -1.4540073871612549, -2.276200771331787, 0.3251953125, -0.1572265625, -0.907470703125
84, 2343417598, -5.584421634674072, 1.7833378314971924, 7.962282180786133, -2.5875227451324463, -1.4541096687316895, -2.2368595600128174, 0.326904296875, -0.15869140625, -0.9091796875
85, 2343434265, -5.555188179016113, 1.7876096963882446, 7.96608829498291, -2.3853745460510254, -1.5047588348388672, -2.064537286758423, 0.326904296875, -0.158203125, -0.907958984375
86, 2343450932, -5.5799336433410645, 1.78179132938385, 7.994106769561768, -2.294193744659424, -1.6348459720611572, -2.2028462886810303, 0.327392578125, -0.15576171875, -0.90966796875
87, 2343467599, -5.599084854125977, 1.7372621297836304, 7.971772193908691, -2.04774808883667, -1.7945411205291748, -2.094465732574463, 0.32470703125, -0.15869140625, -0.90771484375
88, 2343484266, -5.618148326873779, 1.8232665061950684, 7.948644638061523, -2.137892007827759, -1.612665057182312, -2.2387804985046387, 0.326416015625, -0.1591796875, -0.905029296875
89, 2343500933, -5.568477153778076, 1.7674174308776855, 7.954266548156738, -2.2574777603149414, -1.7915059328079224, -2.225090503692627, 0.32470703125, -0.161865234375, -0.906494140625
90, 2343517600, -5.574484348297119, 1.8150043487548828, 7.962160587310791, -2.3365185260772705, -1.641940712928772, -2.2046005725860596, 0.326416015625, -0.15869140625, -0.90869140625
91, 2343534267, -5.575830459594727, 1.7794814109802246, 7.948661804199219, -2.352424144744873, -1.5977202653884888, -2.1910641193389893, 0.326904296875, -0.1591796875, -0.906494140625
92, 2343550934, -5.580941200256348, 1.7705243825912476, 7.971966743469238, -2.2689905166625977, -1.610513687133789, -2.0528194904327393, 0.3251953125, -0.158203125, -0.908203125
93, 2343567601, -5.5913166999816895, 1.7922731637954712, 7.938250541687012, -2.244018077850342, -1.706343650817871, -2.1540536880493164, 0.32373046875, -0.158203125, -0.90771484375
94, 2343584268, -5.573897838592529, 1.801267385482788, 7.97381591796875, -2.3409368991851807, -1.790891170501709, -2.163889169692993, 0.326171875, -0.1591796875, -0.9091796875
95, 2343600935, -5.5687575340271, 1.7937575578689575, 7.96951961517334, -2.4354732036590576, -1.4980612993240356, -2.2790822982788086, 0.327392578125, -0.15673828125, -0.907958984375
96, 2343617602, -5.591961860656738, 1.7793399095535278, 7.956514835357666, -2.3718509674072266, -1.5848242044448853, -2.076549530029297, 0.3251953125, -0.158203125, -0.908203125
97, 2343634269, -5.587595462799072, 1.7808341979980469, 7.951779365539551, -2.2914915084838867, -1.6652607917785645, -2.118656873703003, 0.32568359375, -0.1591796875, -0.907958984375
98, 2343650936, -5.579047679901123, 1.7837458848953247, 7.95572566986084, -2.339003086090088, -1.7544955015182495, -2.1063241958618164, 0.328857421875, -0.160400390625, -0.9091796875
99, 2343667603, -5.566860675811768, 1.8123053312301636, 7.965907096862793, -2.319511890411377, -1.909234642982483, -2.1529011726379395, 0.3251953125, -0.1591796875, -0.91015625
100, 2343684270, -5.595443248748779, 1.7988966703414917, 7.9632720947265625, -2.143244981765747, -1.8779103755950928, -2.1587023735046387, 0.32373046875, -0.1591796875, -0.907470703125
101, 2343700937, -5.569580554962158, 1.7940133810043335, 7.945866107940674, -2.3311142921447754, -1.8970304727554321, -2.2089290618896484, 0.326416015625, -0.15966796875, -0.907958984375
102, 2343717604, -5.5828680992126465, 1.7842860221862793, 7.9661359786987305, -2.4233455657958984, -1.906519889831543, -2.1371750831604004, 0.32470703125, -0.1591796875, -0.908203125
103, 2343734271, -5.580657005310059, 1.784862995147705, 7.966815948486328, -2.4417612552642822, -1.9495108127593994, -2.044572591781616, 0.326171875, -0.15673828125, -0.9111328125
104, 2343750938, -5.585203647613525, 1.7878105640411377, 7.9812798500061035, -2.452326774597168, -1.9988025426864624, -2.1269686222076416, 0.327880859375, -0.158203125, -0.907470703125
105, 2343767605, -5.570280075073242, 1.8007392883300781, 7.964980602264404, -2.393801689147949, -1.7974097728729248, -2.058774471282959, 0.32470703125, -0.158203125, -0.9091796875
106, 2343784272, -5.567185878753662, 1.8067595958709717, 7.956607341766357, -2.3946468830108643, -1.599820613861084, -2.203486204147339, 0.326416015625, -0.1572265625, -0.91015625
107, 2343800939, -5.5739054679870605, 1.7934399843215942, 7.957738876342773, -2.4075939655303955, -1.7758054733276367, -2.1707916259765625, 0.32373046875, -0.15771484375, -0.90771484375
108, 2343817606, -5.5697736740112305, 1.7786474227905273, 7.972206115722656, -2.3119304180145264, -1.7459537982940674, -2.2024106979370117, 0.3232421875, -0.15966796875, -0.9091796875
109, 2343834273, -5.580872058868408, 1.7889270782470703, 7.959313869476318, -2.302671432495117, -1.7540090084075928, -2.1838414669036865, 0.325927734375, -0.158203125, -0.906494140625
110, 2343850940, -5.581195831298828, 1.80526864528656, 7.953357219696045, -2.322611093521118, -1.7760487794876099, -2.2444026470184326, 0.3251953125, -0.160400390625, -0.9091796875
111, 2343867607, -5.579399108886719, 1.7904084920883179, 7.970861911773682, -2.2205569744110107, -1.8119192123413086, -2.1294143199920654, 0.32470703125, -0.158203125, -0.908203125
112, 2343884274, -5.579256057739258, 1.7880505323410034, 7.966157913208008, -2.310906171798706, -1.9444266557693481, -2.085463047027588, 0.32470703125, -0.1591796875, -0.906982421875
113, 2343900941, -5.575018405914307, 1.787656307220459, 7.960618495941162, -2.251650810241699, -1.9059946537017822, -2.114238739013672, 0.32568359375, -0.15771484375, -0.9111328125
114, 2343917608, -5.564206123352051, 1.7995805740356445, 7.962535858154297, -2.42968487739563, -2.0543434619903564, -2.1330127716064453, 0.32421875, -0.158203125, -0.90869140625
115, 2343934275, -5.573379993438721, 1.7779160737991333, 7.970178604125977, -2.337210178375244, -1.9990971088409424, -2.14863657951355, 0.326171875, -0.16015625, -0.9091796875
116, 2343950942, -5.570033073425293, 1.793766975402832, 7.976122856140137, -2.3109188079833984, -2.0762553215026855, -2.094273805618286, 0.32568359375, -0.15869140625, -0.907470703125
117, 2343967609, -5.554520606994629, 1.8016539812088013, 7.982292652130127, -2.0051157474517822, -2.3115978240966797, -2.0487470626831055, 0.325927734375, -0.15869140625, -0.906494140625
118, 2343984276, -5.574831485748291, 1.7868130207061768, 7.986815929412842, -2.2725634574890137, -1.7810301780700684, -2.2131805419921875, 0.326904296875, -0.1591796875, -0.90869140625
119, 2344000943, -5.576521873474121, 1.7858315706253052, 7.970131874084473, -2.3372228145599365, -1.7857816219329834, -2.0961947441101074, 0.3232421875, -0.15771484375, -0.906982421875
120, 2344017610, -5.551022052764893, 1.7976338863372803, 7.991013526916504, -2.3369667530059814, -1.6355886459350586, -2.1339733600616455, 0.32470703125, -0.158203125, -0.908203125
121, 2344034277, -5.563271999359131, 1.7884795665740967, 7.960454940795898, -2.170407295227051, -1.6901307106018066, -2.109794855117798, 0.32470703125, -0.15771484375, -0.908203125
122, 2344050944, -5.572896957397461, 1.7955453395843506, 7.952444076538086, -2.355933427810669, -1.7173445224761963, -2.1998238563537598, 0.32421875, -0.1591796875, -0.90966796875
123, 2344067611, -5.5712785720825195, 1.7975577116012573, 7.942892074584961, -2.2840638160705566, -1.7933757305145264, -2.145524740219116, 0.32470703125, -0.158203125, -0.906005859375
124, 2344084278, -5.571334362030029, 1.7801835536956787, 7.965136528015137, -2.369917631149292, -1.8368403911590576, -2.1380844116210938, 0.3251953125, -0.16015625, -0.908203125
125, 2344100945, -5.569717884063721, 1.7979079484939575, 7.974271297454834, -2.358417272567749, -1.6821013689041138, -2.1398770809173584, 0.32373046875, -0.1572265625, -0.9091796875
126, 2344117612, -5.545349597930908, 1.7999807596206665, 7.9754228591918945, -2.2782750129699707, -1.437627911567688, -2.2197115421295166, 0.326171875, -0.16015625, -0.9091796875
127, 2344134279, -5.556497097015381, 1.796137809753418, 7.963948726654053, -2.365499258041382, -1.4466948509216309, -2.204497814178467, 0.32421875, -0.15966796875, -0.906982421875
128, 2344150946, -5.581416606903076, 1.7929836511611938, 7.961831569671631, -2.4703192710876465, -1.35653817653656, -2.192178249359131, 0.326171875, -0.1591796875, -0.9091796875
129, 2344167613, -5.560764312744141, 1.7973486185073853, 7.972986698150635, -2.3121867179870605, -1.393984079360962, -2.2080581188201904, 0.322265625, -0.1572265625, -0.9072265625
130, 2344184280, -5.562045574188232, 1.7948343753814697, 7.9558234214782715, -2.3195626735687256, -1.3985557556152344, -2.3042848110198975, 0.32421875, -0.1591796875, -0.90869140625
131, 2344200947, -5.574182510375977, 1.8006356954574585, 7.98125696182251, -2.324800729751587, -1.4543914794921875, -2.331472635269165, 0.32373046875, -0.1591796875, -0.90771484375
132, 2344217614, -5.581467151641846, 1.7803269624710083, 7.946527004241943, -2.3549728393554688, -1.4627926349639893, -2.278557300567627, 0.322265625, -0.1572265625, -0.9072265625
133, 2344234281, -5.576351165771484, 1.7770663499832153, 7.964062213897705, -2.3209075927734375, -1.5736442804336548, -2.1603927612304688, 0.32275390625, -0.15673828125, -0.90869140625
134, 2344250948, -5.57272481918335, 1.7952393293380737, 7.970845699310303, -2.301032543182373, -1.6040210723876953, -2.07989239692688, 0.32470703125, -0.16015625, -0.9091796875
135, 2344267615, -5.5610175132751465, 1.8048937320709229, 7.962316513061523, -2.2888023853302, -1.5578925609588623, -2.0612590312957764, 0.32421875, -0.15966796875, -0.90966796875
136, 2344284282, -5.5642547607421875, 1.7950167655944824, 7.966007709503174, -2.425689458847046, -1.5884357690811157, -2.102930784225464, 0.32373046875, -0.15771484375, -0.906982421875
137, 2344300949, -5.571370601654053, 1.7991524934768677, 7.960072040557861, -2.435652494430542, -1.6440536975860596, -2.1128175258636475, 0.32421875, -0.16015625, -0.908203125
138, 2344317616, -5.608163833618164, 1.786144495010376, 7.942633152008057, -2.4964957237243652, -1.7296640872955322, -2.169818639755249, 0.32275390625, -0.15966796875, -0.90869140625
139, 2344334283, -5.555118083953857, 1.793664574623108, 7.953432559967041, -2.469935417175293, -1.9425184726715088, -2.152939796447754, 0.32177734375, -0.15869140625, -0.90869140625
140, 2344350950, -5.568352699279785, 1.811030387878418, 7.9749555587768555, -2.502284288406372, -1.9644430875778198, -2.2281386852264404, 0.32470703125, -0.1591796875, -0.9091796875
141, 2344367617, -5.567006587982178, 1.7872916460037231, 7.977166175842285, -2.410308599472046, -1.7587345838546753, -2.2632408142089844, 0.326416015625, -0.15673828125, -0.906982421875
142, 2344384284, -5.576663970947266, 1.7930444478988647, 7.9763970375061035, -2.3536534309387207, -1.5926103591918945, -2.214268922805786, 0.326171875, -0.16015625, -0.9091796875
143, 2344400951, -5.578154563903809, 1.776998519897461, 7.96551513671875, -2.3491199016571045, -1.6355375051498413, -2.1975953578948975, 0.32373046875, -0.1591796875, -0.908203125
144, 2344417618, -5.577967166900635, 1.7953461408615112, 7.958034515380859, -2.285305976867676, -1.7525875568389893, -2.1666295528411865, 0.3232421875, -0.16015625, -0.90966796875
145, 2344434285, -5.582065582275391, 1.7867532968521118, 7.9541096687316895, -2.370365858078003, -1.8955832719802856, -2.0779457092285156, 0.32470703125, -0.15771484375, -0.908203125
146, 2344450952, -5.562536239624023, 1.8120943307876587, 7.965806484222412, -2.4318490028381348, -1.9245127439498901, -2.111344575881958, 0.32421875, -0.15869140625, -0.908203125
147, 2344467619, -5.57061243057251, 1.7829781770706177, 7.973133087158203, -2.538513422012329, -2.0079591274261475, -2.0464165210723877, 0.3232421875, -0.1591796875, -0.9072265625
148, 2344484286, -5.550392150878906, 1.804931402206421, 7.988587856292725, -2.5653553009033203, -1.9976884126663208, -2.085078716278076, 0.32470703125, -0.15771484375, -0.90771484375
149, 2344500953, -5.539373874664307, 1.790140986442566, 7.97346830368042, -2.530355453491211, -1.8387998342514038, -2.15437388420105, 0.32568359375, -0.15625, -0.91015625
150, 2344517620, -5.5483527183532715, 1.787138819694519, 7.9976043701171875, -2.5505123138427734, -1.654631495475769, -2.1061575412750244, 0.32275390625, -0.1591796875, -0.91015625
151, 2344534287, -5.546225070953369, 1.834855556488037, 7.950920104980469, -2.487300395965576, -1.3936126232147217, -2.2633047103881836, 0.325927734375, -0.15771484375, -0.908203125
152, 2344550954, -5.575272560119629, 1.8002232313156128, 7.943188190460205, -2.4629814624786377, -1.453584909439087, -2.1783344745635986, 0.32470703125, -0.1591796875, -0.907470703125
153, 2344567621, -5.566279411315918, 1.770156979560852, 7.968350887298584, -2.331972599029541, -1.538913607597351, -2.3479421138763428, 0.32373046875, -0.15869140625, -0.90869140625
154, 2344584288, -5.564143180847168, 1.796492576599121, 7.963296890258789, -2.4273669719696045, -1.5804188251495361, -2.1856727600097656, 0.32568359375, -0.1572265625, -0.9091796875
155, 2344600955, -5.556670188903809, 1.7665150165557861, 7.969879150390625, -2.3383243083953857, -1.6437207460403442, -2.1763625144958496, 0.3232421875, -0.1572265625, -0.906494140625
156, 2344617622, -5.581655979156494, 1.799060583114624, 7.968531131744385, -2.3695714473724365, -1.6153289079666138, -2.0451741218566895, 0.32470703125, -0.15869140625, -0.91015625
157, 2344634289, -5.570967197418213, 1.7901352643966675, 7.95081901550293, -2.3785998821258545, -1.745863914489746, -2.1152758598327637, 0.32421875, -0.1591796875, -0.90771484375
158, 2344650956, -5.567605018615723, 1.8009008169174194, 7.9635910987854, -2.485379457473755, -1.7981781959533691, -2.0235955715179443, 0.32470703125, -0.158203125, -0.9091796875
159, 2344667623, -5.5477705001831055, 1.788426160812378, 7.958197593688965, -2.4720098972320557, -1.835188388824463, -2.031996488571167, 0.32373046875, -0.1591796875, -0.90771484375
160, 2344684290, -5.547059535980225, 1.7875111103057861, 7.988571643829346, -2.4046742916107178, -1.7330578565597534, -2.0705690383911133, 0.32568359375, -0.15673828125, -0.906982421875
161, 2344700957, -5.557229518890381, 1.7745146751403809, 7.9525465965271, -2.4967262744903564, -1.7738460302352905, -2.0753331184387207, 0.32177734375, -0.15771484375, -0.9091796875
162, 2344717624, -5.546433925628662, 1.8051555156707764, 7.998570919036865, -2.605144500732422, -1.6889399290084839, -2.1228060722351074, 0.32373046875, -0.15625, -0.91162109375
163, 2344734291, -5.552800178527832, 1.7797175645828247, 8.002689361572266, -2.4359214305877686, -1.6616111993789673, -2.2018086910247803, 0.32421875, -0.158203125, -0.91162109375
164, 2344750958, -5.548884868621826, 1.7784043550491333, 8.002792358398438, -2.3497345447540283, -1.5370564460754395, -2.2218503952026367, 0.3251953125, -0.16015625, -0.906494140625
165, 2344767625, -5.565451145172119, 1.7994463443756104, 7.961592674255371, -2.4478955268859863, -1.5271188020706177, -2.2338244915008545, 0.322265625, -0.15869140625, -0.9111328125
166, 2344784292, -5.574675559997559, 1.7889947891235352, 7.97922945022583, -2.4280202388763428, -1.439075231552124, -2.232915163040161, 0.322265625, -0.15771484375, -0.90771484375
167, 2344800959, -5.576315402984619, 1.772911787033081, 7.9494404792785645, -2.37217116355896, -1.7606937885284424, -2.228240966796875, 0.32373046875, -0.15673828125, -0.90869140625
168, 2344817626, -5.563516139984131, 1.8006298542022705, 7.941227436065674, -2.4850211143493652, -1.8257886171340942, -2.1724565029144287, 0.32470703125, -0.1572265625, -0.906982421875
169, 2344834293, -5.564405918121338, 1.7828017473220825, 7.978765964508057, -2.5012853145599365, -1.8521184921264648, -2.153029441833496, 0.325927734375, -0.15673828125, -0.907470703125
170, 2344850960, -5.561044692993164, 1.7850346565246582, 7.9784159660339355, -2.5268337726593018, -1.764689564704895, -2.201411724090576, 0.326416015625, -0.15625, -0.907958984375
171, 2344867627, -5.549180030822754, 1.787660837173462, 7.960395812988281, -2.481832265853882, -1.7415484189987183, -2.276789903640747, 0.3232421875, -0.158203125, -0.9091796875
172, 2344884294, -5.553779125213623, 1.785362720489502, 7.964544773101807, -2.5027191638946533, -1.5544346570968628, -2.32305908203125, 0.32421875, -0.15673828125, -0.913330078125
173, 2344900961, -5.554329872131348, 1.788348913192749, 7.980072975158691, -2.436753988265991, -1.5968493223190308, -2.208890438079834, 0.32421875, -0.15771484375, -0.9091796875
174, 2344917628, -5.556183815002441, 1.776065468788147, 7.97646951675415, -2.402522563934326, -1.487380862236023, -2.3074228763580322, 0.3251953125, -0.1572265625, -0.906494140625
175, 2344934295, -5.564706802368164, 1.786623239517212, 7.982526779174805, -2.419977903366089, -1.5533205270767212, -2.1868762969970703, 0.3251953125, -0.1591796875, -0.906494140625
176, 2344950962, -5.574331760406494, 1.791831612586975, 7.97813606262207, -2.4009599685668945, -1.660701870918274, -2.308690309524536, 0.32470703125, -0.15673828125, -0.906982421875
177, 2344967629, -5.563918113708496, 1.7792776823043823, 7.983015537261963, -2.341308116912842, -1.7253355979919434, -2.196826934814453, 0.3232421875, -0.158203125, -0.9072265625
178, 2344984296, -5.55898380279541, 1.7726798057556152, 7.954893112182617, -2.361964702606201, -1.8616336584091187, -2.2120537757873535, 0.32421875, -0.158203125, -0.906982421875
179, 2345000963, -5.5485148429870605, 1.808530330657959, 7.975681304931641, -2.353076934814453, -1.8177971839904785, -2.1156601905822754, 0.3251953125, -0.15673828125, -0.906982421875
180, 2345017630, -5.562559604644775, 1.7856782674789429, 7.9876298904418945, -2.3883843421936035, -1.8147751092910767, -2.0922117233276367, 0.32373046875, -0.1591796875, -0.90966796875
181, 2345034297, -5.559978485107422, 1.7738598585128784, 7.99379825592041, -2.4474596977233887, -1.6228846311569214, -2.1445000171661377, 0.32470703125, -0.158203125, -0.907470703125
182, 2345050964, -5.566980361938477, 1.7791337966918945, 7.974462509155273, -2.3744637966156006, -1.8122137784957886, -2.0891385078430176, 0.32373046875, -0.15771484375, -0.906982421875
183, 2345067631, -5.561153411865234, 1.7884609699249268, 7.940837860107422, -2.445410966873169, -1.718266487121582, -2.1037375926971436, 0.3232421875, -0.15966796875, -0.908203125
184, 2345084298, -5.554600238800049, 1.7737611532211304, 7.973435401916504, -2.36622953414917, -1.779570460319519, -2.0649471282958984, 0.32421875, -0.1572265625, -0.908203125
185, 2345100965, -5.534668445587158, 1.7876853942871094, 7.983956336975098, -2.3288347721099854, -1.718407154083252, -2.2298543453216553, 0.32275390625, -0.15673828125, -0.91015625
186, 2345117632, -5.5579118728637695, 1.768836259841919, 7.977936267852783, -2.2689268589019775, -1.5592372417449951, -2.262587547302246, 0.3251953125, -0.1572265625, -0.90966796875
187, 2345134299, -5.555335521697998, 1.7735650539398193, 7.988469123840332, -2.273280620574951, -1.5705835819244385, -2.1453068256378174, 0.32373046875, -0.15966796875, -0.907470703125
188, 2345150966, -5.556530952453613, 1.7655715942382812, 7.988667011260986, -2.2424302101135254, -1.5351611375808716, -2.1849682331085205, 0.32421875, -0.15771484375, -0.90771484375
189, 2345167633, -5.5667829513549805, 1.7884784936904907, 7.971065521240234, -2.129426956176758, -1.4917219877243042, -2.1189002990722656, 0.326416015625, -0.16015625, -0.9091796875
190, 2345184300, -5.5709052085876465, 1.7871371507644653, 7.970799446105957, -2.1405818462371826, -1.5693670511245728, -2.1923062801361084, 0.32373046875, -0.15771484375, -0.9072265625
191, 2345200967, -5.55476188659668, 1.7921266555786133, 7.950336456298828, -2.146561861038208, -1.5512330532073975, -2.143104076385498, 0.3232421875, -0.15771484375, -0.9072265625
192, 2345217634, -5.562425136566162, 1.795652985572815, 7.97233772277832, -2.218808650970459, -1.6026440858840942, -2.168684482574463, 0.32421875, -0.1572265625, -0.908203125
193, 2345234301, -5.55263614654541, 1.7754729986190796, 7.968807220458984, -2.2944369316101074, -1.4545965194702148, -2.18717098236084, 0.32275390625, -0.1572265625, -0.908203125
194, 2345250968, -5.586863994598389, 1.7967016696929932, 7.9651031494140625, -2.3799571990966797, -1.4946930408477783, -2.205240249633789, 0.32421875, -0.15771484375, -0.9111328125
195, 2345267635, -5.53737211227417, 1.777555227279663, 7.958400249481201, -2.4105775356292725, -1.4994442462921143, -2.254032611846924, 0.32373046875, -0.15966796875, -0.907470703125
196, 2345284302, -5.565821170806885, 1.794235348701477, 7.968050003051758, -2.4004604816436768, -1.4099278450012207, -2.197364568710327, 0.3251953125, -0.1572265625, -0.90771484375
197, 2345300969, -5.5645976066589355, 1.7774686813354492, 7.986975193023682, -2.214435577392578, -1.3578059673309326, -2.2132444381713867, 0.326171875, -0.15966796875, -0.9091796875
198, 2345317636, -5.571332931518555, 1.7878726720809937, 7.945562839508057, -2.1228699684143066, -1.5207796096801758, -2.182842254638672, 0.32373046875, -0.1552734375, -0.90771484375
199, 2345334303, -5.586164474487305, 1.8011327981948853, 7.956940174102783, -2.317770004272461, -1.5482749938964844, -2.224271059036255, 0.32470703125, -0.15771484375, -0.90771484375
200, 2345350970, -5.579753398895264, 1.793642520904541, 7.971694469451904, -2.3702120780944824, -1.6200929880142212, -2.19687819480896, 0.3251953125, -0.160888671875, -0.907470703125
201, 2345367637, -5.5647149085998535, 1.791696548461914, 7.965022087097168, -2.4517760276794434, -1.8140835762023926, -2.1226909160614014, 0.32470703125, -0.15673828125, -0.91015625
202, 2345384304, -5.5517258644104, 1.792291522026062, 7.978321075439453, -2.4289677143096924, -2.034916400909424, -2.1333200931549072, 0.32470703125, -0.15771484375, -0.90771484375
203, 2345400971, -5.548181533813477, 1.7806717157363892, 7.992079257965088, -2.4620206356048584, -1.875835657119751, -2.155116319656372, 0.3251953125, -0.15771484375, -0.908203125
204, 2345417638, -5.556990623474121, 1.797058343887329, 7.98541259765625, -2.350080728530884, -1.8674092292785645, -2.233786106109619, 0.32373046875, -0.158203125, -0.91064453125
205, 2345434305, -5.558261871337891, 1.795341968536377, 8.001714706420898, -2.1975951194763184, -1.6642619371414185, -2.184840202331543, 0.326416015625, -0.158203125, -0.91064453125
206, 2345450972, -5.573234558105469, 1.7684704065322876, 7.951654434204102, -2.2061495780944824, -1.5290268659591675, -2.1709964275360107, 0.32470703125, -0.15966796875, -0.90771484375
207, 2345467639, -5.562415599822998, 1.7716821432113647, 7.97749662399292, -2.129990577697754, -1.764343500137329, -2.0024261474609375, 0.322265625, -0.1591796875, -0.91162109375
208, 2345484306, -5.5594000816345215, 1.795387625694275, 7.966391086578369, -2.1400434970855713, -1.7136046886444092, -2.034647226333618, 0.3232421875, -0.16015625, -0.90869140625
209, 2345500973, -5.53969669342041, 1.8266572952270508, 7.986494064331055, -2.080019950866699, -1.6881201267242432, -2.00178599357605, 0.3232421875, -0.1591796875, -0.91015625
210, 2345517640, -5.5628814697265625, 1.8080486059188843, 7.9784135818481445, -2.181215524673462, -1.6165965795516968, -1.9726643562316895, 0.3251953125, -0.1572265625, -0.90771484375
211, 2345534307, -5.582098960876465, 1.7931448221206665, 7.986671447753906, -2.2438387870788574, -1.5308325290679932, -1.9093881845474243, 0.32470703125, -0.15869140625, -0.90869140625
212, 2345550974, -5.567888259887695, 1.8147773742675781, 7.9679789543151855, -2.3649098873138428, -1.6179412603378296, -2.0582363605499268, 0.32470703125, -0.1591796875, -0.906982421875
213, 2345567641, -5.571675777435303, 1.7628188133239746, 7.963461875915527, -2.3797786235809326, -1.8287723064422607, -1.9052520990371704, 0.32568359375, -0.15673828125, -0.906982421875
214, 2345584308, -5.558496475219727, 1.7957226037979126, 7.9733099937438965, -2.345841646194458, -1.9534934759140015, -1.9127309322357178, 0.32470703125, -0.15869140625, -0.90771484375
215, 2345600975, -5.551583766937256, 1.7930251359939575, 7.994340419769287, -2.4603302478790283, -1.9306210279464722, -1.8808684349060059, 0.32470703125, -0.1591796875, -0.91015625
216, 2345617642, -5.5550127029418945, 1.8013933897018433, 7.959660530090332, -2.428173542022705, -1.8315256834030151, -2.039090633392334, 0.32177734375, -0.1591796875, -0.908203125
217, 2345634309, -5.557190895080566, 1.7926183938980103, 7.975276947021484, -2.4779133796691895, -1.787894606590271, -2.001005172729492, 0.32470703125, -0.1591796875, -0.907470703125
218, 2345650976, -5.562015533447266, 1.799993634223938, 7.975486755371094, -2.478233575820923, -1.9373191595077515, -1.943171501159668, 0.32421875, -0.158203125, -0.90771484375
219, 2345667643, -5.5630011558532715, 1.8043564558029175, 7.987090587615967, -2.559886932373047, -1.9368706941604614, -1.9784785509109497, 0.3232421875, -0.15966796875, -0.90771484375
220, 2345684310, -5.561596393585205, 1.815925121307373, 7.970394611358643, -2.951107978820801, -2.0050644874572754, -2.2439794540405273, 0.32470703125, -0.15673828125, -0.90869140625
221, 2345700977, -5.5473480224609375, 1.7791385650634766, 7.990101337432861, -2.5791351795196533, -2.0057435035705566, -2.193305492401123, 0.322265625, -0.16015625, -0.908203125
222, 2345717644, -5.544332504272461, 1.7791801691055298, 7.976917266845703, -2.353461503982544, -1.9514318704605103, -2.122396469116211, 0.32373046875, -0.15771484375, -0.908203125
223, 2345734311, -5.556972980499268, 1.7945798635482788, 7.987316131591797, -2.312032699584961, -1.8533732891082764, -2.0805578231811523, 0.32177734375, -0.158203125, -0.90966796875
224, 2345750978, -5.549789905548096, 1.7886738777160645, 7.959619045257568, -2.278032064437866, -1.7731928825378418, -2.0391294956207275, 0.3232421875, -0.15869140625, -0.9091796875
225, 2345767645, -5.572849750518799, 1.7870796918869019, 7.960007190704346, -2.279491901397705, -1.8819442987442017, -2.076050281524658, 0.32470703125, -0.1591796875, -0.90966796875
226, 2345784312, -5.558593273162842, 1.795253038406372, 7.9724931716918945, -2.2395873069763184, -2.0015170574188232, -2.0258493423461914, 0.322265625, -0.158203125, -0.90869140625
227, 2345800979, -5.561864376068115, 1.8045604228973389, 7.958602428436279, -2.3859641551971436, -2.2437496185302734, -2.080904006958008, 0.3203125, -0.15869140625, -0.9091796875
228, 2345817646, -5.556642055511475, 1.7989373207092285, 7.977442741394043, -2.3810975551605225, -2.3932254314422607, -2.0176918506622314, 0.32275390625, -0.15966796875, -0.91015625
229, 2345834313, -5.553550720214844, 1.7802540063858032, 7.980749130249023, -2.4294545650482178, -2.2214407920837402, -2.012646198272705, 0.32080078125, -0.158203125, -0.90869140625
230, 2345850980, -5.54681921005249, 1.8013906478881836, 8.015807151794434, -2.411628007888794, -2.3747329711914062, -1.9787863492965698, 0.32177734375, -0.16015625, -0.9091796875
231, 2345867647, -5.5356764793396, 1.8183400630950928, 7.987863540649414, -2.430299758911133, -2.1737759113311768, -2.0635130405426025, 0.32080078125, -0.158203125, -0.90966796875
232, 2345884314, -5.550532817840576, 1.7955478429794312, 7.983969688415527, -2.4275336265563965, -2.120065689086914, -2.0701205730438232, 0.32177734375, -0.1591796875, -0.91015625
233, 2345900981, -5.546139717102051, 1.8029601573944092, 7.980905532836914, -2.4317212104797363, -2.1369574069976807, -2.0182299613952637, 0.32080078125, -0.158203125, -0.91064453125
234, 2345917648, -5.539623737335205, 1.8019647598266602, 7.994549751281738, -2.3780882358551025, -2.130695343017578, -2.115788459777832, 0.32177734375, -0.15869140625, -0.90966796875
235, 2345934315, -5.533446311950684, 1.7995381355285645, 7.988058090209961, -2.374950408935547, -2.042266845703125, -2.026207685470581, 0.32177734375, -0.16064453125, -0.90771484375
236, 2345950982, -5.545520305633545, 1.790655493736267, 7.972971439361572, -2.386706829071045, -2.048234701156616, -1.943145751953125, 0.32177734375, -0.16015625, -0.90966796875
237, 2345967649, -5.527801513671875, 1.801455020904541, 7.993576526641846, -2.3691744804382324, -1.8407976627349854, -2.1304259300231934, 0.322265625, -0.158203125, -0.9091796875
238, 2345984316, -5.514784336090088, 1.8075367212295532, 8.022403717041016, -2.422398090362549, -1.576000690460205, -2.2584385871887207, 0.32275390625, -0.1572265625, -0.908203125
239, 2346000983, -5.540174961090088, 1.8042057752609253, 7.990630149841309, -2.3141586780548096, -1.3551039695739746, -2.2466440200805664, 0.3212890625, -0.158203125, -0.91064453125
240, 2346017650, -5.539883613586426, 1.7914413213729858, 8.005008697509766, -2.3137741088867188, -1.254868507385254, -2.244812250137329, 0.318603515625, -0.1591796875, -0.90771484375
241, 2346034317, -5.56432580947876, 1.7927275896072388, 7.968270301818848, -2.317629098892212, -1.5794711112976074, -2.1520302295684814, 0.3212890625, -0.158203125, -0.90966796875
242, 2346050984, -5.549979209899902, 1.7898467779159546, 7.972451210021973, -2.344496726989746, -1.6562323570251465, -2.002208709716797, 0.318603515625, -0.15966796875, -0.91015625
243, 2346067651, -5.545053482055664, 1.8104467391967773, 7.987309455871582, -2.2701942920684814, -1.7624865770339966, -2.063563823699951, 0.3212890625, -0.15771484375, -0.90966796875
244, 2346084318, -5.5394487380981445, 1.7768900394439697, 7.986821174621582, -2.2866761684417725, -1.7331088781356812, -1.9253065586090088, 0.3212890625, -0.1572265625, -0.90869140625
245, 2346100985, -5.566797256469727, 1.7862409353256226, 7.9917378425598145, -2.0776381492614746, -1.89590322971344, -1.8743116855621338, 0.32080078125, -0.15869140625, -0.9072265625
246, 2346117652, -5.5309157371521, 1.8114345073699951, 7.994726181030273, -2.0555343627929688, -1.9276117086410522, -1.8303090333938599, 0.320068359375, -0.15771484375, -0.911376953125
247, 2346134319, -5.546720504760742, 1.8012990951538086, 7.9738287925720215, -2.1595091819763184, -1.8932911157608032, -1.8427314758300781, 0.32080078125, -0.1611328125, -0.91015625
248, 2346150986, -5.536252021789551, 1.7994500398635864, 8.00889778137207, -2.1850454807281494, -1.8655011653900146, -1.7496036291122437, 0.32080078125, -0.15771484375, -0.90966796875
249, 2346167653, -5.5169758796691895, 1.7924543619155884, 7.994953155517578, -2.0459935665130615, -1.844882607460022, -1.7569795846939087, 0.318603515625, -0.15771484375, -0.908203125
250, 2346184320, -5.523324012756348, 1.794492483139038, 8.005758285522461, -1.9820003509521484, -1.939560055732727, -1.8687407970428467, 0.32080078125, -0.16064453125, -0.90771484375
251, 2346200987, -5.527469635009766, 1.8232702016830444, 7.984649181365967, -2.044572114944458, -1.6887222528457642, -1.8823925256729126, 0.319580078125, -0.15771484375, -0.91064453125
252, 2346217654, -5.5324625968933105, 1.796491026878357, 7.9772257804870605, -2.0042450428009033, -1.9548122882843018, -1.815645694732666, 0.319091796875, -0.15869140625, -0.908203125
253, 2346234321, -5.52179479598999, 1.7999207973480225, 8.009613037109375, -2.1333839893341064, -2.0067291259765625, -1.8621456623077393, 0.320556640625, -0.1611328125, -0.90966796875
254, 2346250988, -5.5197577476501465, 1.798659086227417, 8.011061668395996, -2.080404281616211, -1.9125902652740479, -1.9066097736358643, 0.3203125, -0.16162109375, -0.908203125
255, 2346267655, -5.528443336486816, 1.8127249479293823, 7.992385387420654, -2.0189850330352783, -1.7743068933486938, -1.9416985511779785, 0.317138671875, -0.1591796875, -0.90966796875
256, 2346284322, -5.5434956550598145, 1.8170974254608154, 7.973886013031006, -2.0013887882232666, -1.8030441999435425, -1.89274001121521, 0.32080078125, -0.16015625, -0.90869140625
257, 2346300989, -5.547797203063965, 1.8031383752822876, 7.978155612945557, -1.9139984846115112, -2.096745252609253, -1.776573657989502, 0.3203125, -0.16015625, -0.90869140625
258, 2346317656, -5.527861595153809, 1.820815920829773, 7.989593505859375, -2.053959369659424, -2.1918582916259766, -1.7853974103927612, 0.32080078125, -0.1591796875, -0.908203125
259, 2346334323, -5.517624855041504, 1.822924256324768, 8.013908386230469, -2.1415927410125732, -2.203972578048706, -1.7914929389953613, 0.318603515625, -0.16162109375, -0.91064453125
260, 2346350990, -5.518354415893555, 1.8048405647277832, 7.9856953620910645, -2.0789573192596436, -2.0197534561157227, -1.7498339414596558, 0.319580078125, -0.1611328125, -0.908203125
261, 2346367657, -5.535369396209717, 1.7974509000778198, 8.001226425170898, -2.041562795639038, -2.0872814655303955, -1.6709342002868652, 0.319091796875, -0.15966796875, -0.91015625
262, 2346384324, -5.548092842102051, 1.8022477626800537, 7.991034030914307, -2.014106035232544, -2.1857495307922363, -1.6577309370040894, 0.317626953125, -0.1611328125, -0.91015625
263, 2346400991, -5.506635665893555, 1.8314098119735718, 7.9870219230651855, -2.1770410537719727, -2.289839744567871, -1.6113462448120117, 0.316650390625, -0.158203125, -0.90966796875
264, 2346417658, -5.480491638183594, 1.8283251523971558, 8.0092134475708, -2.1484060287475586, -2.119694232940674, -1.8801387548446655, 0.318603515625, -0.1611328125, -0.9111328125
265, 2346434325, -5.495039463043213, 1.8164634704589844, 8.003702163696289, -2.1054792404174805, -1.8449596166610718, -1.9550557136535645, 0.320556640625, -0.16162109375, -0.91015625
266, 2346450992, -5.573470592498779, 1.8278305530548096, 7.986253261566162, -2.0790979862213135, -1.9004493951797485, -1.7777773141860962, 0.317626953125, -0.16015625, -0.908203125
267, 2346467659, -5.5481462478637695, 1.7880680561065674, 7.999537467956543, -2.002836227416992, -2.296344757080078, -1.7317129373550415, 0.318603515625, -0.16064453125, -0.91015625
268, 2346484326, -5.526788711547852, 1.8177380561828613, 7.991880893707275, -1.9804511070251465, -2.6049909591674805, -1.6196320056915283, 0.320068359375, -0.163330078125, -0.9111328125
269, 2346500993, -5.496949195861816, 1.8581304550170898, 7.990767002105713, -2.0431253910064697, -2.844815969467163, -1.6684883832931519, 0.317138671875, -0.163818359375, -0.90966796875
270, 2346517660, -5.507099628448486, 1.8370215892791748, 8.005629539489746, -2.279146432876587, -2.669163942337036, -1.6483184099197388, 0.316650390625, -0.16259765625, -0.9091796875
271, 2346534327, -5.4981184005737305, 1.806085467338562, 8.007617950439453, -2.3270676136016846, -2.5101089477539062, -1.6372408866882324, 0.315673828125, -0.15966796875, -0.91015625
272, 2346550994, -5.515316963195801, 1.836132287979126, 8.004351615905762, -2.0889463424682617, -2.5188682079315186, -1.6380730867385864, 0.317138671875, -0.16162109375, -0.91015625
273, 2346567661, -5.474418640136719, 1.8585147857666016, 8.029366493225098, -2.172161817550659, -2.3230843544006348, -1.6536582708358765, 0.318115234375, -0.163330078125, -0.91015625
274, 2346584328, -5.492061138153076, 1.8390055894851685, 8.029250144958496, -2.145742177963257, -2.2092232704162598, -1.6775548458099365, 0.315673828125, -0.1611328125, -0.90966796875
275, 2346600995, -5.489251613616943, 1.831494927406311, 8.008862495422363, -2.30879282951355, -2.1478042602539062, -1.764855980873108, 0.315673828125, -0.16259765625, -0.9091796875
276, 2346617662, -5.471662998199463, 1.8523973226547241, 8.008166313171387, -2.3411672115325928, -2.0324831008911133, -1.765393853187561, 0.317626953125, -0.16259765625, -0.90869140625
277, 2346634329, -5.48824405670166, 1.8486478328704834, 8.009380340576172, -2.4247798919677734, -2.019138813018799, -1.835713505744934, 0.3154296875, -0.162109375, -0.915771484375
278, 2346650996, -5.491929054260254, 1.846489667892456, 7.996389865875244, -2.3966190814971924, -1.884761929512024, -1.8909214735031128, 0.314453125, -0.162109375, -0.910888671875
279, 2346667663, -5.469902992248535, 1.82041597366333, 8.01250171661377, -2.4157259464263916, -1.9007567167282104, -1.947052001953125, 0.316162109375, -0.1630859375, -0.911376953125
280, 2346684330, -5.470734596252441, 1.8500632047653198, 8.00627326965332, -2.2852418422698975, -1.8875535726547241, -2.149289846420288, 0.316162109375, -0.16259765625, -0.90966796875
281, 2346700997, -5.480793476104736, 1.8437284231185913, 8.005436897277832, -2.3633737564086914, -1.6081960201263428, -2.127070665359497, 0.314697265625, -0.16015625, -0.9091796875
282, 2346717664, -5.497567176818848, 1.8278390169143677, 7.999873161315918, -2.2949488162994385, -1.4741899967193604, -2.032278060913086, 0.315185546875, -0.16162109375, -0.908203125
283, 2346734331, -5.49284029006958, 1.8332587480545044, 8.026764869689941, -2.3586349487304688, -1.5045667886734009, -1.977786898612976, 0.316162109375, -0.16259765625, -0.911376953125
284, 2346750998, -5.4867095947265625, 1.838485598564148, 8.008722305297852, -2.274202585220337, -1.4639962911605835, -2.057878017425537, 0.31494140625, -0.16162109375, -0.91064453125
285, 2346767665, -5.48564338684082, 1.8486764430999756, 8.021918296813965, -2.3198699951171875, -1.603201150894165, -2.056840658187866, 0.316650390625, -0.162841796875, -0.91015625
286, 2346784332, -5.489882946014404, 1.8551744222640991, 8.00171947479248, -2.4594852924346924, -1.5006481409072876, -2.1542587280273438, 0.315185546875, -0.1611328125, -0.91064453125
287, 2346800999, -5.484765529632568, 1.836784839630127, 8.02326488494873, -2.499089002609253, -1.4219467639923096, -2.194617986679077, 0.314453125, -0.162109375, -0.90966796875
288, 2346817666, -5.491422653198242, 1.8437193632125854, 8.01157283782959, -2.4769015312194824, -1.3649390935897827, -2.327195405960083, 0.316650390625, -0.163330078125, -0.9111328125
289, 2346834333, -5.504086494445801, 1.8548861742019653, 8.012873649597168, -2.542815923690796, -1.5380040407180786, -2.163017988204956, 0.317626953125, -0.16064453125, -0.9091796875
290, 2346851000, -5.490890026092529, 1.8447580337524414, 7.99774694442749, -2.5555458068847656, -1.5501575469970703, -2.1017396450042725, 0.315673828125, -0.16064453125, -0.910888671875
291, 2346867667, -5.489557266235352, 1.8273355960845947, 8.016986846923828, -2.5128750801086426, -1.636472463607788, -2.2550318241119385, 0.315185546875, -0.163818359375, -0.9111328125
292, 2346884334, -5.51931619644165, 1.8324825763702393, 8.00284194946289, -2.655883550643921, -1.6512125730514526, -2.2761752605438232, 0.315185546875, -0.163330078125, -0.911376953125
293, 2346901001, -5.5187668800354, 1.8400055170059204, 7.99340295791626, -2.4464993476867676, -1.8661283254623413, -2.1178629398345947, 0.317138671875, -0.16259765625, -0.9111328125
294, 2346917668, -5.488069534301758, 1.8422740697860718, 8.001133918762207, -2.4448349475860596, -1.9551198482513428, -2.158484935760498, 0.316162109375, -0.1611328125, -0.910888671875
295, 2346934335, -5.475018501281738, 1.8355790376663208, 8.003211975097656, -2.5433924198150635, -1.9631366729736328, -2.1569736003875732, 0.315673828125, -0.1611328125, -0.910888671875
296, 2346951002, -5.489400386810303, 1.8281443119049072, 8.011046409606934, -2.508699893951416, -1.9475383758544922, -2.143078565597534, 0.317138671875, -0.162841796875, -0.912353515625
297, 2346967669, -5.481072425842285, 1.7950907945632935, 7.997564315795898, -2.415226459503174, -1.874107003211975, -2.0795462131500244, 0.315185546875, -0.16259765625, -0.90966796875
298, 2346984336, -5.4965715408325195, 1.839457631111145, 8.013833999633789, -2.4677839279174805, -1.962778091430664, -2.0522561073303223, 0.315185546875, -0.16162109375, -0.911865234375
299, 2347001003, -5.4984259605407715, 1.8341203927993774, 8.039844512939453, -2.506471872329712, -2.071683645248413, -2.0835165977478027, 0.316162109375, -0.1630859375, -0.9111328125
300, 2347017670, -5.491645336151123, 1.827975869178772, 8.016633987426758, -2.4055063724517822, -2.0327775478363037, -2.10349440574646, 0.316650390625, -0.1630859375, -0.911376953125
301, 2347034337, -5.487231254577637, 1.8203259706497192, 8.042109489440918, -2.3738365173339844, -1.9189162254333496, -2.231199026107788, 0.314453125, -0.16162109375, -0.90966796875
302, 2347051004, -5.454169750213623, 1.8614332675933838, 8.024698257446289, -2.2982020378112793, -1.7611165046691895, -2.1214489936828613, 0.3154296875, -0.16259765625, -0.912353515625
303, 2347067671, -5.502860069274902, 1.8174031972885132, 8.001063346862793, -2.3102269172668457, -1.6921285390853882, -2.2753167152404785, 0.31396484375, -0.162109375, -0.911865234375
304, 2347084338, -5.488611221313477, 1.834132432937622, 8.007651329040527, -2.3939297199249268, -1.6489840745925903, -2.173929214477539, 0.318115234375, -0.162841796875, -0.91064453125
305, 2347101005, -5.492153644561768, 1.8201051950454712, 8.020795822143555, -2.338606119155884, -1.8404263257980347, -2.1811907291412354, 0.316162109375, -0.162109375, -0.91064453125
306, 2347117672, -5.471832752227783, 1.8443512916564941, 8.019224166870117, -2.400806427001953, -1.7897899150848389, -2.282590866088867, 0.31494140625, -0.16259765625, -0.91064453125
307, 2347134339, -5.470950126647949, 1.8652392625808716, 8.021657943725586, -2.417621374130249, -1.746030569076538, -2.242891311645508, 0.314453125, -0.15966796875, -0.910888671875
308, 2347151006, -5.485589027404785, 1.8285999298095703, 8.01557731628418, -2.442734479904175, -1.7048966884613037, -2.2104785442352295, 0.316650390625, -0.16015625, -0.91015625
309, 2347167673, -5.471243858337402, 1.836641788482666, 8.005313873291016, -2.452697515487671, -1.6023048162460327, -2.2440309524536133, 0.31396484375, -0.16259765625, -0.910888671875
310, 2347184340, -5.485207557678223, 1.8261770009994507, 8.03183650970459, -2.4696662425994873, -1.6212456226348877, -2.284179210662842, 0.31494140625, -0.158203125, -0.910400390625
311, 2347201007, -5.4917097091674805, 1.8252367973327637, 8.007169723510742, -2.3704936504364014, -1.588217854499817, -2.226050853729248, 0.314697265625, -0.16162109375, -0.9091796875
312, 2347217674, -5.507281303405762, 1.8274385929107666, 8.006603240966797, -2.451571226119995, -1.6536327600479126, -2.248936176300049, 0.31494140625, -0.16259765625, -0.91015625
313, 2347234341, -5.485630989074707, 1.8374963998794556, 8.008892059326172, -2.4513661861419678, -1.9010388851165771, -2.1149816513061523, 0.315185546875, -0.15966796875, -0.910888671875
314, 2347251008, -5.493282318115234, 1.83633291721344, 8.003791809082031, -2.3638219833374023, -1.7897645235061646, -2.1167104244232178, 0.31396484375, -0.16162109375, -0.910888671875
315, 2347267675, -5.490499019622803, 1.854221224784851, 8.00866413116455, -2.494971752166748, -1.7650225162506104, -2.152376413345337, 0.315185546875, -0.16259765625, -0.911376953125
316, 2347284342, -5.4569411277771, 1.8210196495056152, 8.01878547668457, -2.570797920227051, -1.7257452011108398, -2.1577672958374023, 0.31494140625, -0.16015625, -0.911376953125
317, 2347301009, -5.503848552703857, 1.825589895248413, 8.004270553588867, -2.5112359523773193, -1.847367525100708, -2.2098896503448486, 0.315185546875, -0.16064453125, -0.910888671875
318, 2347317676, -5.4818878173828125, 1.8074575662612915, 8.033191680908203, -2.556339979171753, -1.9286236763000488, -2.1868765354156494, 0.31396484375, -0.16162109375, -0.912841796875
319, 2347334343, -5.451757907867432, 1.858184814453125, 8.035799026489258, -2.445244550704956, -1.8192062377929688, -2.1065680980682373, 0.315673828125, -0.1591796875, -0.9091796875
320, 2347351010, -5.444765090942383, 1.843381643295288, 8.02940559387207, -2.576150894165039, -1.4945521354675293, -2.1722640991210938, 0.3134765625, -0.1611328125, -0.911865234375
321, 2347367677, -5.483949661254883, 1.8076270818710327, 8.017403602600098, -2.6365842819213867, -1.4945138692855835, -2.3198704719543457, 0.31494140625, -0.1611328125, -0.911376953125
322, 2347384344, -5.4813714027404785, 1.8359631299972534, 8.041764259338379, -2.4502007961273193, -1.328761339187622, -2.3855926990509033, 0.31494140625, -0.16162109375, -0.912353515625
323, 2347401011, -5.4958906173706055, 1.848244309425354, 8.008736610412598, -2.5375781059265137, -1.2527811527252197, -2.4942286014556885, 0.315185546875, -0.16064453125, -0.911376953125
324, 2347417678, -5.4793572425842285, 1.8187220096588135, 8.0132417678833, -2.5437510013580322, -1.4222220182418823, -2.436753988265991, 0.316162109375, -0.162109375, -0.911376953125
325, 2347434345, -5.508336544036865, 1.8154178857803345, 7.992953300476074, -2.501925468444824, -1.1451694965362549, -2.3662679195404053, 0.316162109375, -0.163330078125, -0.9111328125
326, 2347451012, -5.487827777862549, 1.8194291591644287, 8.022859573364258, -2.4764790534973145, -1.3650801181793213, -2.3778703212738037, 0.31396484375, -0.1611328125, -0.910888671875
327, 2347467679, -5.498754024505615, 1.8155524730682373, 8.012635231018066, -2.3859899044036865, -1.5762825012207031, -2.293950319290161, 0.316650390625, -0.16162109375, -0.91015625
328, 2347484346, -5.491858005523682, 1.8278682231903076, 8.016454696655273, -2.5276918411254883, -1.7493987083435059, -2.2112722396850586, 0.315185546875, -0.1611328125, -0.91064453125
329, 2347501013, -5.495234489440918, 1.8139214515686035, 8.037633895874023, -2.6101009845733643, -1.7373738288879395, -2.2272167205810547, 0.316162109375, -0.16015625, -0.911376953125
330, 2347517680, -5.4986138343811035, 1.8147996664047241, 8.03591251373291, -2.4298131465911865, -1.6422864198684692, -2.223400354385376, 0.31494140625, -0.1611328125, -0.91015625
331, 2347534347, -5.468649387359619, 1.8379344940185547, 7.998525142669678, -2.542982816696167, -1.7570186853408813, -2.2366933822631836, 0.317138671875, -0.162109375, -0.91064453125
332, 2347551014, -5.472340106964111, 1.8209359645843506, 8.013087272644043, -2.528869867324829, -1.6270596981048584, -2.3091001510620117, 0.315673828125, -0.1611328125, -0.910888671875
333, 2347567681, -5.479347229003906, 1.823625922203064, 7.999133110046387, -2.507316827774048, -1.5839663743972778, -2.3679451942443848, 0.315673828125, -0.15966796875, -0.911376953125
334, 2347584348, -5.492080211639404, 1.8160985708236694, 8.00866413116455, -2.6605451107025146, -1.5268628597259521, -2.2943732738494873, 0.317626953125, -0.162841796875, -0.91162109375
335, 2347601015, -5.487912178039551, 1.7915748357772827, 8.01132869720459, -2.5233373641967773, -1.7018486261367798, -2.2550315856933594, 0.31396484375, -0.15966796875, -0.911865234375
336, 2347617682, -5.484148979187012, 1.8176149129867554, 8.005841255187988, -2.5412535667419434, -1.7392433881759644, -2.208839178085327, 0.31591796875, -0.1591796875, -0.914794921875
337, 2347634349, -5.4568939208984375, 1.8297401666641235, 7.992762565612793, -2.4635512828826904, -1.6649343967437744, -2.230104446411133, 0.315673828125, -0.15966796875, -0.90869140625
338, 2347651016, -5.4819793701171875, 1.8140411376953125, 8.007659912109375, -2.598024368286133, -1.5000205039978027, -2.2495250701904297, 0.31396484375, -0.1611328125, -0.911865234375
339, 2347667683, -5.480656147003174, 1.8066943883895874, 8.03580379486084, -2.5465810298919678, -1.442084550857544, -2.233222484588623, 0.315185546875, -0.15966796875, -0.90869140625
340, 2347684350, -5.48940896987915, 1.808253526687622, 8.017309188842773, -2.522761106491089, -1.476431131362915, -2.2953715324401855, 0.31494140625, -0.158203125, -0.91015625
341, 2347701017, -5.513821601867676, 1.8225611448287964, 8.037666320800781, -2.4811019897460938, -1.4205955266952515, -2.372260808944702, 0.31298828125, -0.16259765625, -0.910888671875
342, 2347717684, -5.489354133605957, 1.8286492824554443, 8.035429954528809, -2.478579521179199, -1.47419011592865, -2.418889284133911, 0.31494140625, -0.1591796875, -0.91015625
343, 2347734351, -5.473633289337158, 1.8177684545516968, 8.00264835357666, -2.6956088542938232, -1.4566967487335205, -2.4264960289001465, 0.314453125, -0.16162109375, -0.911376953125
344, 2347751018, -5.5093278884887695, 1.8282400369644165, 8.000200271606445, -2.7555298805236816, -1.4809393882751465, -2.3438313007354736, 0.3134765625, -0.1591796875, -0.910400390625
345, 2347767685, -5.478073596954346, 1.7883089780807495, 8.027453422546387, -2.6494035720825195, -1.2808911800384521, -2.4818198680877686, 0.317138671875, -0.16015625, -0.9091796875
346, 2347784352, -5.484564304351807, 1.8121042251586914, 8.007344245910645, -2.6758105754852295, -1.305748462677002, -2.4050331115722656, 0.316162109375, -0.16064453125, -0.91064453125
347, 2347801019, -5.503161907196045, 1.7799532413482666, 8.000688552856445, -2.652067184448242, -1.364298939704895, -2.314363479614258, 0.316650390625, -0.15869140625, -0.911865234375
348, 2347817686, -5.505568504333496, 1.8044209480285645, 8.00260066986084, -2.5989973545074463, -1.3292349576950073, -2.2990341186523438, 0.316162109375, -0.16015625, -0.911376953125
349, 2347834353, -5.510043144226074, 1.7681986093521118, 8.005253791809082, -2.6259937286376953, -1.5509388446807861, -2.339874029159546, 0.316162109375, -0.16015625, -0.91064453125
350, 2347851020, -5.513590335845947, 1.7953215837478638, 8.000872611999512, -2.610152006149292, -1.623883605003357, -2.2317240238189697, 0.317138671875, -0.1591796875, -0.911865234375
351, 2347867687, -5.489153861999512, 1.8034558296203613, 8.009564399719238, -2.4658243656158447, -1.7456464767456055, -2.17510724067688, 0.316650390625, -0.15869140625, -0.911376953125
352, 2347884354, -5.4871392250061035, 1.7973114252090454, 8.020586967468262, -2.566277265548706, -1.7748961448669434, -2.178091287612915, 0.315673828125, -0.1591796875, -0.910400390625
353, 2347901021, -5.491269588470459, 1.8097516298294067, 8.023271560668945, -2.4220521450042725, -1.4924136400222778, -2.3206772804260254, 0.317138671875, -0.15966796875, -0.913330078125
354, 2347917688, -5.471646308898926, 1.814102292060852, 8.01640796661377, -2.4903740882873535, -1.371009349822998, -2.4593698978424072, 0.316162109375, -0.15869140625, -0.912353515625
355, 2347934355, -5.490540504455566, 1.7981613874435425, 8.002209663391113, -2.485546112060547, -1.1556451320648193, -2.2758548259735107, 0.316650390625, -0.15869140625, -0.910888671875
356, 2347951022, -5.513547897338867, 1.7768783569335938, 8.001988410949707, -2.4195549488067627, -1.2433171272277832, -2.2029097080230713, 0.317138671875, -0.16015625, -0.911376953125
357, 2347967689, -5.481196880340576, 1.8187803030014038, 7.987061500549316, -2.3022871017456055, -1.2941840887069702, -2.327105760574341, 0.317138671875, -0.15869140625, -0.90771484375
358, 2347984356, -5.509451866149902, 1.8007756471633911, 8.019037246704102, -2.3070895671844482, -1.2312664985656738, -2.302440881729126, 0.319091796875, -0.1591796875, -0.9111328125
359, 2348001023, -5.506951332092285, 1.7934675216674805, 8.020097732543945, -2.3891782760620117, -1.40609872341156, -2.3162074089050293, 0.317138671875, -0.1591796875, -0.90966796875
360, 2348017690, -5.493401527404785, 1.8007872104644775, 7.997004508972168, -2.3131473064422607, -1.49684476852417, -2.295013427734375, 0.316650390625, -0.15966796875, -0.910888671875
361, 2348034357, -5.508027076721191, 1.7881882190704346, 7.993110656738281, -2.2772254943847656, -1.4236692190170288, -2.2200703620910645, 0.319091796875, -0.158203125, -0.90966796875
362, 2348051024, -5.510130405426025, 1.781889796257019, 8.003369331359863, -2.266070604324341, -1.5442023277282715, -2.1759138107299805, 0.316162109375, -0.15673828125, -0.90966796875
363, 2348067691, -5.486624717712402, 1.8433818817138672, 8.027356147766113, -2.287277936935425, -1.6074657440185547, -2.190782070159912, 0.317138671875, -0.158203125, -0.91015625
364, 2348084358, -5.499501705169678, 1.7893582582473755, 8.019189834594727, -2.353346109390259, -1.304570198059082, -2.2676589488983154, 0.318603515625, -0.1611328125, -0.9091796875
365, 2348101025, -5.501598358154297, 1.808619737625122, 8.04161548614502, -2.360440731048584, -1.2540489435195923, -2.2598981857299805, 0.317626953125, -0.15966796875, -0.91064453125
366, 2348117692, -5.496654033660889, 1.8141427040100098, 7.989413261413574, -2.3029658794403076, -1.2318171262741089, -2.3548572063446045, 0.317626953125, -0.1591796875, -0.9111328125
367, 2348134359, -5.509354114532471, 1.7982834577560425, 8.01623821258545, -2.3141074180603027, -1.3841102123260498, -2.288571357727051, 0.317138671875, -0.15771484375, -0.91015625
368, 2348151026, -5.502680778503418, 1.8096959590911865, 8.014714241027832, -2.2978692054748535, -1.2136449813842773, -2.1604952812194824, 0.316162109375, -0.15771484375, -0.911865234375
369, 2348167693, -5.506768703460693, 1.797592043876648, 8.009159088134766, -2.3233022689819336, -1.2182167768478394, -2.292682409286499, 0.316650390625, -0.1591796875, -0.911865234375
370, 2348184360, -5.52529239654541, 1.8131728172302246, 7.981551647186279, -2.257131814956665, -1.3285306692123413, -2.186901807785034, 0.319091796875, -0.158203125, -0.90966796875
371, 2348201027, -5.499161243438721, 1.8188611268997192, 8.02155876159668, -2.2574007511138916, -1.456146001815796, -2.2523677349090576, 0.318603515625, -0.15869140625, -0.90869140625
372, 2348217694, -5.524734020233154, 1.8065431118011475, 8.00712776184082, -2.2202305793762207, -1.5656722784042358, -2.3518927097320557, 0.318603515625, -0.158203125, -0.911865234375
373, 2348234361, -5.522749423980713, 1.798946499824524, 8.007647514343262, -2.329730987548828, -1.564666748046875, -2.137558937072754, 0.317138671875, -0.15771484375, -0.91064453125
374, 2348251028, -5.517633438110352, 1.8059306144714355, 7.997004985809326, -2.3346102237701416, -1.6344616413116455, -2.197197914123535, 0.32080078125, -0.15966796875, -0.91064453125
375, 2348267695, -5.510998725891113, 1.8025774955749512, 7.992904186248779, -2.3800089359283447, -1.5982197523117065, -2.2111828327178955, 0.316650390625, -0.15869140625, -0.91064453125
376, 2348284362, -5.510499954223633, 1.800856351852417, 8.008113861083984, -2.3308968544006348, -1.6465253829956055, -2.218533515930176, 0.318603515625, -0.1591796875, -0.9111328125
377, 2348301029, -5.520134925842285, 1.8116047382354736, 8.022337913513184, -2.344061851501465, -1.5556385517120361, -2.3028252124786377, 0.315673828125, -0.1611328125, -0.911865234375
378, 2348317696, -5.49934196472168, 1.796755075454712, 8.02382755279541, -2.236257553100586, -1.5455341339111328, -2.2394206523895264, 0.316162109375, -0.1591796875, -0.911376953125
379, 2348334363, -5.505566120147705, 1.8041528463363647, 8.012619018554688, -2.344625234603882, -1.3785780668258667, -2.3284378051757812, 0.318603515625, -0.15966796875, -0.911376953125
380, 2348351030, -5.497488975524902, 1.8326705694198608, 8.016485214233398, -2.2315447330474854, -1.3319371938705444, -2.365332841873169, 0.319580078125, -0.1591796875, -0.91015625
381, 2348367697, -5.517935276031494, 1.822109341621399, 7.999578952789307, -2.2324795722961426, -1.4332993030548096, -2.270015001296997, 0.319091796875, -0.1572265625, -0.90771484375
382, 2348384364, -5.520842552185059, 1.770171880722046, 8.01494026184082, -2.125777006149292, -1.3774125576019287, -2.2215940952301025, 0.318115234375, -0.15869140625, -0.9111328125
383, 2348401031, -5.51218843460083, 1.801045298576355, 7.997674465179443, -2.0953876972198486, -1.318618655204773, -2.104505777359009, 0.317626953125, -0.15966796875, -0.90966796875
384, 2348417698, -5.506568908691406, 1.824516773223877, 8.005934715270996, -2.2727811336517334, -1.455556869506836, -2.2175474166870117, 0.319091796875, -0.15673828125, -0.91015625
385, 2348434365, -5.513114929199219, 1.8013124465942383, 8.01260757446289, -2.285395383834839, -1.523148775100708, -2.2678635120391846, 0.320068359375, -0.1591796875, -0.91162109375
386, 2348451032, -5.531825542449951, 1.7938529253005981, 7.9893083572387695, -2.2520480155944824, -1.698198914527893, -2.1804349422454834, 0.319580078125, -0.15869140625, -0.90966796875
387, 2348467699, -5.493832111358643, 1.8117717504501343, 7.989809513092041, -2.2375640869140625, -1.6886582374572754, -2.2349131107330322, 0.318603515625, -0.1591796875, -0.90966796875
388, 2348484366, -5.49248743057251, 1.821211576461792, 8.029668807983398, -2.241482734680176, -1.5355069637298584, -2.1996312141418457, 0.319091796875, -0.15966796875, -0.911376953125
389, 2348501033, -5.508391380310059, 1.7990891933441162, 8.014962196350098, -2.1326286792755127, -1.2400003671646118, -2.3306658267974854, 0.317626953125, -0.15966796875, -0.9072265625
390, 2348517700, -5.490417957305908, 1.8235834836959839, 8.00273609161377, -2.073796033859253, -1.2578524351119995, -2.35959529876709, 0.317626953125, -0.1572265625, -0.912353515625
391, 2348534367, -5.482144832611084, 1.812650203704834, 8.009212493896484, -2.0298192501068115, -0.7473657727241516, -2.293975830078125, 0.318603515625, -0.16015625, -0.9111328125
392, 2348551034, -5.514909744262695, 1.8090534210205078, 8.004000663757324, -1.9358718395233154, -0.6109012365341187, -2.516627073287964, 0.319580078125, -0.15966796875, -0.9111328125
393, 2348567701, -5.5080084800720215, 1.7925095558166504, 7.987820625305176, -1.952635407447815, -0.5489442348480225, -2.4130239486694336, 0.319580078125, -0.1591796875, -0.90966796875
394, 2348584368, -5.524867057800293, 1.8081715106964111, 7.99114465713501, -1.9119625091552734, -0.6734347343444824, -2.353743076324463, 0.3212890625, -0.16015625, -0.9072265625
395, 2348601035, -5.528153419494629, 1.8276149034500122, 7.978109836578369, -2.1703689098358154, -0.748339056968689, -2.2854340076446533, 0.319580078125, -0.16064453125, -0.908203125
396, 2348617702, -5.5438761711120605, 1.8099799156188965, 7.982560157775879, -2.2436978816986084, -0.9972175359725952, -2.320612907409668, 0.318603515625, -0.16015625, -0.9111328125
397, 2348634369, -5.529581546783447, 1.8095941543579102, 7.982848167419434, -2.1812028884887695, -1.0837886333465576, -2.2206594944000244, 0.32080078125, -0.1591796875, -0.91015625
398, 2348651036, -5.542019844055176, 1.8249887228012085, 7.998575687408447, -2.127595901489258, -0.9932733178138733, -2.24702787399292, 0.319580078125, -0.1611328125, -0.9091796875
399, 2348667703, -5.538575172424316, 1.8198257684707642, 8.000340461730957, -2.2148196697235107, -0.9873438477516174, -2.2829749584198, 0.32177734375, -0.15966796875, -0.9091796875
400, 2348684370, -5.554202079772949, 1.8273332118988037, 8.000871658325195, -2.2537765502929688, -0.9701322317123413, -2.356778144836426, 0.3212890625, -0.16015625, -0.90966796875
401, 2348701037, -5.533384323120117, 1.813035011291504, 7.967726707458496, -2.3428573608398438, -1.0846080780029297, -2.312148094177246, 0.3212890625, -0.15869140625, -0.906494140625
402, 2348717704, -5.5748395919799805, 1.7897757291793823, 7.9969611167907715, -2.257721185684204, -1.146667718887329, -2.3191022872924805, 0.322265625, -0.15966796875, -0.9091796875
403, 2348734371, -5.508199691772461, 1.8097145557403564, 7.969733238220215, -2.2390496730804443, -1.3448972702026367, -2.2200703620910645, 0.3232421875, -0.15966796875, -0.907470703125
404, 2348751038, -5.538498878479004, 1.8097684383392334, 7.975335597991943, -2.2016420364379883, -1.3821253776550293, -2.259488821029663, 0.319580078125, -0.15966796875, -0.90966796875
405, 2348767705, -5.544075965881348, 1.8305162191390991, 7.974488258361816, -2.2786977291107178, -1.3214359283447266, -2.2631380558013916, 0.3232421875, -0.160888671875, -0.90771484375
406, 2348784372, -5.529818534851074, 1.7948334217071533, 7.965855598449707, -2.1798458099365234, -1.3218202590942383, -2.3538200855255127, 0.32373046875, -0.1572265625, -0.9091796875
407, 2348801039, -5.541960716247559, 1.7975972890853882, 7.987372875213623, -2.173929214477539, -1.3123178482055664, -2.2648160457611084, 0.3203125, -0.158203125, -0.90869140625
408, 2348817706, -5.553210258483887, 1.7987542152404785, 7.959533214569092, -2.1318857669830322, -1.3018933534622192, -2.210209608078003, 0.320068359375, -0.16064453125, -0.90966796875
409, 2348834373, -5.533775329589844, 1.8055872917175293, 7.962086200714111, -2.1921780109405518, -1.549363374710083, -2.227203607559204, 0.3212890625, -0.16015625, -0.91015625
410, 2348851040, -5.546408176422119, 1.8038383722305298, 7.961299896240234, -2.1826248168945312, -1.5264016389846802, -2.2555055618286133, 0.3212890625, -0.16015625, -0.9072265625
411, 2348867707, -5.531100273132324, 1.8110862970352173, 7.981011390686035, -2.1362013816833496, -1.4885588884353638, -2.1821634769439697, 0.320068359375, -0.1611328125, -0.91015625
412, 2348884374, -5.541284561157227, 1.8121668100357056, 7.982199668884277, -2.1104094982147217, -1.4175348281860352, -2.1231775283813477, 0.3232421875, -0.158203125, -0.9091796875
413, 2348901041, -5.561459541320801, 1.8120888471603394, 7.959614276885986, -2.1210389137268066, -1.3742365837097168, -2.1268529891967773, 0.32080078125, -0.16064453125, -0.908203125
414, 2348917708, -5.553274154663086, 1.8170220851898193, 7.966838359832764, -1.9439399242401123, -1.579842448234558, -2.1044161319732666, 0.3212890625, -0.1611328125, -0.90771484375
415, 2348934375, -5.540188312530518, 1.8245171308517456, 7.994059085845947, -2.0020296573638916, -1.3544124364852905, -2.203153371810913, 0.32373046875, -0.160888671875, -0.90771484375
416, 2348951042, -5.558992385864258, 1.8149362802505493, 7.9671430587768555, -2.08237624168396, -1.329042911529541, -2.0607080459594727, 0.32421875, -0.16015625, -0.908203125
417, 2348967709, -5.54796838760376, 1.8187735080718994, 7.983212947845459, -2.1074259281158447, -1.2689813375473022, -2.0539462566375732, 0.32373046875, -0.1591796875, -0.9091796875
418, 2348984376, -5.573843955993652, 1.8084290027618408, 7.978822231292725, -2.0106096267700195, -1.3610970973968506, -2.161250591278076, 0.3232421875, -0.160888671875, -0.90869140625
419, 2349001043, -5.5432658195495605, 1.8157097101211548, 7.9631571769714355, -2.0637431144714355, -1.5322284698486328, -2.0125434398651123, 0.32373046875, -0.162353515625, -0.907470703125
420, 2349017710, -5.557803153991699, 1.8138734102249146, 7.986989498138428, -1.8562418222427368, -1.6719456911087036, -2.0101230144500732, 0.3232421875, -0.160888671875, -0.906982421875
421, 2349034377, -5.562449932098389, 1.7985368967056274, 7.9687371253967285, -1.8068480491638184, -1.7818498611450195, -1.9119879007339478, 0.32275390625, -0.161865234375, -0.908203125
422, 2349051044, -5.521788120269775, 1.813133955001831, 7.979792594909668, -1.9573479890823364, -1.7196367979049683, -1.927125334739685, 0.32177734375, -0.16064453125, -0.90869140625
423, 2349067711, -5.524848461151123, 1.8307353258132935, 8.00527286529541, -1.8290669918060303, -1.4759447574615479, -2.035057306289673, 0.322265625, -0.162353515625, -0.90966796875
424, 2349084378, -5.528967380523682, 1.829495906829834, 7.9737749099731445, -1.7890214920043945, -1.28080153465271, -2.1115880012512207, 0.32470703125, -0.16064453125, -0.90966796875
425, 2349101045, -5.545438766479492, 1.8180947303771973, 7.954708099365234, -1.684611201286316, -1.1057642698287964, -2.0812108516693115, 0.3203125, -0.16162109375, -0.90869140625
426, 2349117712, -5.562260627746582, 1.8054062128067017, 7.9955596923828125, -1.692756175994873, -1.1189805269241333, -2.0846688747406006, 0.322265625, -0.162841796875, -0.9091796875
427, 2349134379, -5.560208320617676, 1.799742579460144, 7.945496082305908, -1.3984918594360352, -1.2563413381576538, -1.8863499164581299, 0.322265625, -0.162353515625, -0.90771484375
428, 2349151046, -5.534247398376465, 1.8578654527664185, 7.973243236541748, -1.1297378540039062, -1.3865691423416138, -1.7244902849197388, 0.32421875, -0.161865234375, -0.907470703125
429, 2349167713, -5.562912464141846, 1.844778060913086, 7.973085403442383, -1.3689860105514526, -1.3112293481826782, -1.8523231744766235, 0.32470703125, -0.162841796875, -0.905029296875
430, 2349184380, -5.520936012268066, 1.8287558555603027, 7.980291366577148, -1.2709020376205444, -1.2172563076019287, -1.8949171304702759, 0.32275390625, -0.164794921875, -0.905517578125
431, 2349201047, -5.534107208251953, 1.8698723316192627, 7.984868049621582, -1.3569096326828003, -1.090960144996643, -1.9122827053070068, 0.32275390625, -0.163818359375, -0.908203125
432, 2349217714, -5.550884246826172, 1.8396883010864258, 7.969257831573486, -1.3657587766647339, -0.8294928669929504, -1.9724596738815308, 0.3232421875, -0.163330078125, -0.906982421875
433, 2349234381, -5.570908546447754, 1.834219217300415, 7.963568210601807, -1.7381161451339722, -0.994784414768219, -1.8851330280303955, 0.32470703125, -0.164306640625, -0.907470703125
434, 2349251048, -5.567461013793945, 1.86997389793396, 7.971689701080322, -1.541666865348816, -1.2793543338775635, -1.9541079998016357, 0.3232421875, -0.164794921875, -0.906005859375
435, 2349267715, -5.532110691070557, 1.8599789142608643, 7.993152141571045, -1.3616992235183716, -1.3930234909057617, -2.0522561073303223, 0.32421875, -0.163330078125, -0.906982421875
436, 2349284382, -5.562839031219482, 1.9119993448257446, 7.997952461242676, -1.3640683889389038, -1.3381483554840088, -2.229316473007202, 0.32373046875, -0.161865234375, -0.906005859375
437, 2349301049, -5.54978609085083, 1.8189815282821655, 7.941508769989014, -1.1872767210006714, -1.3392112255096436, -2.2080581188201904, 0.322265625, -0.164794921875, -0.906494140625
438, 2349317716, -5.541749954223633, 1.886342167854309, 7.975626468658447, -1.441085696220398, -0.7218427062034607, -2.293104887008667, 0.32373046875, -0.164306640625, -0.906982421875
439, 2349334383, -5.584978103637695, 1.8349964618682861, 7.965567111968994, -1.4195454120635986, -0.7569705247879028, -2.182598829269409, 0.32421875, -0.165283203125, -0.906005859375
440, 2349351050, -5.594329357147217, 1.8699175119400024, 7.929680347442627, -1.452086329460144, -1.031974196434021, -2.0245559215545654, 0.325439453125, -0.16748046875, -0.905517578125
441, 2349367717, -5.591699600219727, 1.890963077545166, 7.920331954956055, -1.5979890823364258, -1.2963995933532715, -2.105684280395508, 0.3251953125, -0.1669921875, -0.908935546875
442, 2349384384, -5.5851731300354, 1.8701602220535278, 7.9678850173950195, -1.7777262926101685, -1.4230802059173584, -2.1434500217437744, 0.32421875, -0.163818359375, -0.905517578125
443, 2349401051, -5.5691986083984375, 1.8834375143051147, 7.932190895080566, -1.8307698965072632, -1.588217854499817, -2.1609303951263428, 0.32470703125, -0.166259765625, -0.907470703125
444, 2349417718, -5.538061618804932, 1.888097882270813, 7.940256118774414, -2.0370545387268066, -1.5694947242736816, -2.138660430908203, 0.32421875, -0.1669921875, -0.9091796875
445, 2349434385, -5.555281639099121, 1.872255563735962, 7.947693347930908, -2.2484238147735596, -1.5655251741409302, -2.286432981491089, 0.325927734375, -0.16748046875, -0.905517578125
446, 2349451052, -5.561104774475098, 1.8691959381103516, 7.954615592956543, -2.4151368141174316, -1.4376024007797241, -2.3255562782287598, 0.32421875, -0.165283203125, -0.907958984375
447, 2349467719, -5.549417495727539, 1.8668158054351807, 7.94385290145874, -2.400691032409668, -1.2066527605056763, -2.387052536010742, 0.3251953125, -0.16650390625, -0.906005859375
448, 2349484386, -5.5676116943359375, 1.887176752090454, 7.943217754364014, -2.420746088027954, -1.1066863536834717, -2.5125033855438232, 0.325927734375, -0.165771484375, -0.906494140625
449, 2349501053, -5.560712814331055, 1.8758292198181152, 7.959113597869873, -2.363079309463501, -0.821668267250061, -2.6650912761688232, 0.3232421875, -0.16796875, -0.907470703125
450, 2349517720, -5.553127288818359, 1.8449162244796753, 7.975517272949219, -2.0625905990600586, -0.5049159526824951, -2.690485715866089, 0.32568359375, -0.16650390625, -0.906982421875
451, 2349534387, -5.585538387298584, 1.8841043710708618, 7.965097904205322, -1.865513801574707, -0.15512330830097198, -2.7342708110809326, 0.3251953125, -0.16748046875, -0.906005859375
452, 2349551054, -5.5899786949157715, 1.8672429323196411, 7.998569011688232, -1.0820724964141846, -0.6009891629219055, -2.5673913955688477, 0.325927734375, -0.16650390625, -0.906982421875
453, 2349567721, -5.5800981521606445, 1.8491774797439575, 7.92388391494751, -1.2554066181182861, -0.23794202506542206, -2.7766473293304443, 0.325927734375, -0.166259765625, -0.906005859375
454, 2349584388, -5.588540077209473, 1.8958865404129028, 7.942648410797119, -1.2800076007843018, -0.4965406656265259, -2.790900945663452, 0.326904296875, -0.16650390625, -0.905029296875
455, 2349601055, -5.599571228027344, 1.886529803276062, 7.935965538024902, -1.4898138046264648, -0.339534729719162, -2.8445847034454346, 0.327880859375, -0.16748046875, -0.906005859375
456, 2349617722, -5.600079536437988, 1.8996012210845947, 7.918346405029297, -1.59449303150177, -0.6355662941932678, -2.6709048748016357, 0.326416015625, -0.165771484375, -0.905517578125
457, 2349634389, -5.637024402618408, 1.8756626844406128, 7.9200358390808105, -1.8475590944290161, -0.7217786312103271, -2.6028008460998535, 0.330322265625, -0.1689453125, -0.906005859375
458, 2349651056, -5.647577285766602, 1.892464280128479, 7.890195846557617, -2.2891604900360107, -1.0971711874008179, -2.3306915760040283, 0.327880859375, -0.16552734375, -0.904541015625
459, 2349667723, -5.589056015014648, 1.8576338291168213, 7.940584182739258, -2.342242956161499, -1.168310523033142, -2.434551239013672, 0.328369140625, -0.1669921875, -0.906494140625
460, 2349684390, -5.593563079833984, 1.865691065788269, 7.91826868057251, -2.2889301776885986, -1.3130606412887573, -2.6189372539520264, 0.326904296875, -0.16796875, -0.906494140625
461, 2349701057, -5.605518341064453, 1.9005309343338013, 7.928894519805908, -2.4819862842559814, -1.2006592750549316, -2.3841071128845215, 0.327392578125, -0.16748046875, -0.905029296875
462, 2349717724, -5.5906195640563965, 1.8817224502563477, 7.972593307495117, -2.44754958152771, -0.9972561001777649, -2.535875082015991, 0.330322265625, -0.16748046875, -0.9052734375
463, 2349734391, -5.607917308807373, 1.8804105520248413, 7.932229042053223, -2.5549564361572266, -0.9874080419540405, -2.5128748416900635, 0.328369140625, -0.169921875, -0.905517578125
464, 2349751058, -5.620940685272217, 1.8568165302276611, 7.924180030822754, -2.6051318645477295, -1.0171188116073608, -2.523939847946167, 0.33203125, -0.16650390625, -0.906982421875
465, 2349767725, -5.609185218811035, 1.8664880990982056, 7.897134304046631, -2.622356653213501, -1.0900126695632935, -2.6333444118499756, 0.329833984375, -0.16796875, -0.90478515625
466, 2349784392, -5.617012977600098, 1.8891372680664062, 7.89429235458374, -2.5419199466705322, -1.4064704179763794, -2.5774192810058594, 0.330322265625, -0.1689453125, -0.904296875
467, 2349801059, -5.640101909637451, 1.855170488357544, 7.8875274658203125, -2.698221445083618, -1.7918903827667236, -2.4690518379211426, 0.327392578125, -0.1669921875, -0.904541015625
468, 2349817726, -5.623833179473877, 1.8343877792358398, 7.921329975128174, -2.7995448112487793, -2.119246006011963, -2.23628306388855, 0.326416015625, -0.16650390625, -0.906005859375
469, 2349834393, -5.621881484985352, 1.8668246269226074, 7.911808490753174, -2.915134906768799, -2.4318618774414062, -2.0916354656219482, 0.329345703125, -0.166015625, -0.90478515625
470, 2349851060, -5.6193647384643555, 1.8959640264511108, 7.9355316162109375, -2.9562435150146484, -2.58807373046875, -2.1699209213256836, 0.330810546875, -0.166015625, -0.906982421875
471, 2349867727, -5.589889049530029, 1.8611952066421509, 7.96218729019165, -2.819586753845215, -2.396055221557617, -2.101393699645996, 0.328857421875, -0.1669921875, -0.904296875
472, 2349884394, -5.583460807800293, 1.8619626760482788, 7.943514823913574, -2.6042227745056152, -1.9381518363952637, -2.04819655418396, 0.328857421875, -0.166015625, -0.9033203125
473, 2349901061, -5.582616329193115, 1.8549569845199585, 7.949976444244385, -2.3692898750305176, -1.7623971700668335, -2.019792079925537, 0.328369140625, -0.1689453125, -0.906494140625
474, 2349917728, -5.587590217590332, 1.8544347286224365, 7.9335408210754395, -2.318704843521118, -1.5469303131103516, -2.165374755859375, 0.328369140625, -0.164306640625, -0.905517578125
475, 2349934395, -5.606743812561035, 1.8738572597503662, 7.922060012817383, -2.2245523929595947, -1.4763672351837158, -2.2011425495147705, 0.327880859375, -0.16552734375, -0.904296875
476, 2349951062, -5.616582870483398, 1.8680988550186157, 7.915297985076904, -2.312429666519165, -1.5974383354187012, -2.1435651779174805, 0.326904296875, -0.165283203125, -0.906494140625
477, 2349967729, -5.609976291656494, 1.8585957288742065, 7.922183990478516, -2.3435235023498535, -1.642324686050415, -2.069185733795166, 0.327880859375, -0.164794921875, -0.90380859375
478, 2349984396, -5.61300802230835, 1.8807485103607178, 7.9232401847839355, -2.4612014293670654, -1.8156588077545166, -2.101919174194336, 0.328369140625, -0.166015625, -0.904541015625
479, 2350001063, -5.591370105743408, 1.8629539012908936, 7.925060272216797, -2.539691686630249, -2.028795003890991, -2.0299220085144043, 0.328857421875, -0.16552734375, -0.90380859375
480, 2350017730, -5.618852138519287, 1.8675180673599243, 7.933353900909424, -2.532571315765381, -1.9226175546646118, -2.090841770172119, 0.327880859375, -0.16650390625, -0.906982421875
481, 2350034397, -5.599625110626221, 1.8559409379959106, 7.933627605438232, -2.570350170135498, -2.075986623764038, -2.182189702987671, 0.329345703125, -0.16552734375, -0.905029296875
482, 2350051064, -5.598455429077148, 1.8713809251785278, 7.938828468322754, -2.6393251419067383, -2.0539724826812744, -2.155872344970703, 0.326416015625, -0.166015625, -0.904541015625
483, 2350067731, -5.61570405960083, 1.8627713918685913, 7.961750507354736, -2.826373815536499, -2.076613664627075, -2.148444414138794, 0.330322265625, -0.16552734375, -0.905029296875
484, 2350084398, -5.598206996917725, 1.8403120040893555, 7.916117191314697, -2.882337808609009, -2.288174629211426, -2.1746976375579834, 0.329345703125, -0.166015625, -0.904296875
485, 2350101065, -5.584347248077393, 1.8494518995285034, 7.9517130851745605, -2.6745171546936035, -2.015963077545166, -2.2102482318878174, 0.326416015625, -0.1669921875, -0.904541015625
486, 2350117732, -5.576736927032471, 1.846388578414917, 7.952017784118652, -2.410167932510376, -1.8787428140640259, -2.164644479751587, 0.327392578125, -0.1669921875, -0.904541015625
487, 2350134399, -5.590449333190918, 1.8462294340133667, 7.932464122772217, -2.3175010681152344, -1.5836844444274902, -2.1326286792755127, 0.326904296875, -0.1669921875, -0.906005859375
488, 2350151066, -5.6053667068481445, 1.8758342266082764, 7.915226459503174, -2.301313877105713, -1.5232385396957397, -2.1021108627319336, 0.327880859375, -0.164794921875, -0.906982421875
489, 2350167733, -5.606537342071533, 1.862326741218567, 7.9238433837890625, -2.299098491668701, -1.5501190423965454, -2.0271172523498535, 0.327392578125, -0.165771484375, -0.905517578125
490, 2350184400, -5.580722808837891, 1.8412984609603882, 7.92115592956543, -2.2451837062835693, -1.7038593292236328, -2.062821388244629, 0.326904296875, -0.166015625, -0.905029296875
491, 2350201067, -5.6020331382751465, 1.8718022108078003, 7.962745666503906, -2.213078260421753, -1.6069409847259521, -2.0186524391174316, 0.327880859375, -0.166015625, -0.904541015625
492, 2350217734, -5.595334053039551, 1.854359745979309, 7.9326019287109375, -2.367445945739746, -1.9150744676589966, -2.0764472484588623, 0.327392578125, -0.165283203125, -0.904052734375
493, 2350234401, -5.602866172790527, 1.8497024774551392, 7.929952144622803, -2.4309780597686768, -1.9127180576324463, -1.991553783416748, 0.327392578125, -0.166015625, -0.907958984375
494, 2350251068, -5.594982624053955, 1.869478702545166, 7.938053607940674, -2.53446626663208, -1.9876352548599243, -1.9875072240829468, 0.330810546875, -0.164794921875, -0.905517578125
495, 2350267735, -5.598855018615723, 1.8606582880020142, 7.92726993560791, -2.5814528465270996, -2.0941202640533447, -1.8319997787475586, 0.327392578125, -0.1669921875, -0.906982421875
496, 2350284402, -5.585839748382568, 1.8575732707977295, 7.937500476837158, -2.58558988571167, -2.1846485137939453, -1.8539113998413086, 0.325927734375, -0.16650390625, -0.906005859375
497, 2350301069, -5.597215175628662, 1.859684944152832, 7.936172008514404, -2.7333812713623047, -2.237622022628784, -1.9389138221740723, 0.327880859375, -0.16650390625, -0.905517578125
498, 2350317736, -5.599002361297607, 1.8616522550582886, 7.915524959564209, -2.653245687484741, -2.3033249378204346, -1.9232450723648071, 0.328369140625, -0.16552734375, -0.905029296875
499, 2350334403, -5.574671268463135, 1.8551286458969116, 7.950507164001465, -2.63065505027771, -2.332535982131958, -1.888463020324707, 0.326904296875, -0.164794921875, -0.907470703125
500, 2350351070, -5.588387966156006, 1.8502260446548462, 7.928765773773193, -2.6297836303710938, -2.385809898376465, -2.0102765560150146, 0.326904296875, -0.164794921875, -0.905517578125
501, 2350367737, -5.578728199005127, 1.855893850326538, 7.961526393890381, -2.6432056427001953, -2.27180814743042, -1.964238166809082, 0.327392578125, -0.164794921875, -0.907958984375
502, 2350384404, -5.558992862701416, 1.8527592420578003, 7.931135654449463, -2.685760736465454, -2.303196668624878, -1.9544798135757446, 0.329833984375, -0.166015625, -0.905517578125
503, 2350401071, -5.568029403686523, 1.8568366765975952, 7.978740692138672, -2.5979607105255127, -2.2534055709838867, -1.9619330167770386, 0.325927734375, -0.165283203125, -0.906494140625
504, 2350417738, -5.582183837890625, 1.843656301498413, 7.956961631774902, -2.6319615840911865, -2.2106194496154785, -1.984753966331482, 0.326904296875, -0.16650390625, -0.905517578125
505, 2350434405, -5.590219497680664, 1.8448576927185059, 7.950715065002441, -2.692125082015991, -2.3769609928131104, -1.9604344367980957, 0.326416015625, -0.164794921875, -0.905517578125
506, 2350451072, -5.592154026031494, 1.854068636894226, 7.939280033111572, -2.7495744228363037, -2.5311620235443115, -1.9594995975494385, 0.327392578125, -0.166015625, -0.907470703125
507, 2350467739, -5.590177536010742, 1.8577736616134644, 7.943774700164795, -2.755042552947998, -2.7567074298858643, -1.8829946517944336, 0.3232421875, -0.165771484375, -0.906494140625
508, 2350484406, -5.572547912597656, 1.859549880027771, 7.949462413787842, -2.794896125793457, -2.8115060329437256, -1.830885648727417, 0.3251953125, -0.163818359375, -0.907470703125
509, 2350501073, -5.555653095245361, 1.8338016271591187, 7.946725845336914, -2.7758402824401855, -2.815117597579956, -1.8697013854980469, 0.32568359375, -0.165283203125, -0.906982421875
510, 2350517740, -5.565293788909912, 1.8817259073257446, 7.911050319671631, -3.006418466567993, -2.742133855819702, -1.9447081089019775, 0.32373046875, -0.165283203125, -0.906005859375
511, 2350534407, -5.552950382232666, 1.8066762685775757, 7.971530437469482, -2.958062171936035, -2.814771890640259, -1.9855605363845825, 0.32421875, -0.163330078125, -0.905517578125
512, 2350551074, -5.595880031585693, 1.8502198457717896, 7.954172611236572, -2.742210626602173, -2.6028518676757812, -1.7157946825027466, 0.325927734375, -0.164306640625, -0.908447265625
513, 2350567741, -5.5120649337768555, 1.8324755430221558, 7.970214366912842, -2.8399105072021484, -2.765979528427124, -2.085437297821045, 0.32275390625, -0.162841796875, -0.907470703125
514, 2350584408, -5.543523788452148, 1.8605505228042603, 7.957691192626953, -2.69037127494812, -2.4233460426330566, -1.7792761325836182, 0.32470703125, -0.163818359375, -0.906982421875
515, 2350601075, -5.525545597076416, 1.8928271532058716, 7.967648983001709, -2.81233811378479, -2.3910605907440186, -2.1188361644744873, 0.322265625, -0.162841796875, -0.906005859375
516, 2350617742, -5.53619384765625, 1.8200780153274536, 7.984423637390137, -2.8238768577575684, -1.9965354204177856, -2.2605769634246826, 0.3212890625, -0.165283203125, -0.9091796875
517, 2350634409, -5.535533428192139, 1.8795568943023682, 7.981508255004883, -2.67368483543396, -1.9190576076507568, -2.028820753097534, 0.32421875, -0.164794921875, -0.90869140625
518, 2350651076, -5.5510334968566895, 1.841082215309143, 7.978140354156494, -2.6390559673309326, -1.7878819704055786, -2.0895864963531494, 0.32421875, -0.163818359375, -0.908203125
519, 2350667743, -5.55371618270874, 1.8334190845489502, 7.950244903564453, -2.4977245330810547, -1.8716989755630493, -1.9672857522964478, 0.32373046875, -0.163330078125, -0.907958984375
520, 2350684410, -5.541301250457764, 1.8268784284591675, 7.956134796142578, -2.4208741188049316, -1.9525330066680908, -1.924564003944397, 0.32177734375, -0.163330078125, -0.907470703125
521, 2350701077, -5.550592422485352, 1.8453856706619263, 7.9662981033325195, -2.335711717605591, -1.9398036003112793, -1.9727027416229248, 0.32373046875, -0.163330078125, -0.907470703125
522, 2350717744, -5.535313606262207, 1.8404325246810913, 7.989016056060791, -2.282386064529419, -2.0166802406311035, -2.0497076511383057, 0.32275390625, -0.165283203125, -0.9091796875
523, 2350734411, -5.552538871765137, 1.8633038997650146, 7.979310035705566, -2.370506525039673, -1.9052135944366455, -1.8545259237289429, 0.32177734375, -0.165771484375, -0.907958984375
524, 2350751078, -5.543694496154785, 1.8108751773834229, 7.967095851898193, -2.220505952835083, -2.065190553665161, -1.9929755926132202, 0.32080078125, -0.165283203125, -0.9091796875
525, 2350767745, -5.550320625305176, 1.888425588607788, 7.955699920654297, -2.1981842517852783, -2.126174211502075, -1.8697397708892822, 0.32373046875, -0.162841796875, -0.9091796875
526, 2350784412, -5.549607753753662, 1.8361995220184326, 7.9514241218566895, -2.250946283340454, -2.13598370552063, -1.802762508392334, 0.322265625, -0.163330078125, -0.91259765625
527, 2350801079, -5.523784637451172, 1.8706741333007812, 7.961598873138428, -2.2712957859039307, -2.244197368621826, -2.0331616401672363, 0.32275390625, -0.163330078125, -0.907470703125
528, 2350817746, -5.521060943603516, 1.864506483078003, 8.00118350982666, -2.2289323806762695, -1.9789783954620361, -1.9845746755599976, 0.3212890625, -0.162353515625, -0.9072265625
529, 2350834413, -5.519796371459961, 1.8518388271331787, 8.010676383972168, -2.1997082233428955, -1.7760357856750488, -2.013119697570801, 0.32177734375, -0.163818359375, -0.906005859375
530, 2350851080, -5.525203227996826, 1.857485294342041, 7.985594272613525, -2.133537769317627, -1.6191964149475098, -2.0593504905700684, 0.32080078125, -0.164306640625, -0.907470703125
531, 2350867747, -5.5446062088012695, 1.8160580396652222, 7.959131240844727, -1.9969582557678223, -1.6849827766418457, -1.8376857042312622, 0.32080078125, -0.163330078125, -0.90869140625
532, 2350884414, -5.526861190795898, 1.8397891521453857, 7.992338180541992, -1.9266771078109741, -1.5334450006484985, -1.838735580444336, 0.3212890625, -0.165771484375, -0.905517578125
533, 2350901081, -5.518181800842285, 1.869214653968811, 7.969032287597656, -1.8050932884216309, -1.4604233503341675, -1.9134734869003296, 0.32080078125, -0.164794921875, -0.90771484375
534, 2350917748, -5.5631184577941895, 1.8631521463394165, 7.977144718170166, -1.703808069229126, -1.3358815908432007, -1.7781617641448975, 0.32080078125, -0.166748046875, -0.90869140625
535, 2350934415, -5.544471740722656, 1.834834098815918, 7.961916923522949, -1.5845297574996948, -1.2847586870193481, -1.67861807346344, 0.322265625, -0.163330078125, -0.907470703125
536, 2350951082, -5.5484089851379395, 1.872854471206665, 7.965839862823486, -1.4349130392074585, -1.455428957939148, -1.5420125722885132, 0.322265625, -0.165283203125, -0.906494140625
537, 2350967749, -5.504469871520996, 1.8833246231079102, 7.952686309814453, -1.2200225591659546, -1.3419774770736694, -1.6683217287063599, 0.32275390625, -0.165283203125, -0.907958984375
538, 2350984416, -5.518459796905518, 1.8576451539993286, 7.9702653884887695, -1.2078821659088135, -1.2613614797592163, -1.5590450763702393, 0.32421875, -0.1689453125, -0.908447265625
539, 2351001083, -5.49659538269043, 1.8915306329727173, 7.964452266693115, -1.1405720710754395, -1.1045221090316772, -1.7561476230621338, 0.32275390625, -0.16845703125, -0.906005859375
540, 2351017750, -5.524332523345947, 1.882129192352295, 7.983654975891113, -1.073184847831726, -0.809988796710968, -1.6176213026046753, 0.3232421875, -0.16943359375, -0.908447265625
541, 2351034417, -5.528179168701172, 1.8736406564712524, 7.962240219116211, -1.0363539457321167, -0.7129039168357849, -1.6890935897827148, 0.32470703125, -0.16796875, -0.906494140625
542, 2351051084, -5.5562663078308105, 1.8731974363327026, 7.967435836791992, -0.9859095215797424, -0.4658565819263458, -1.7392301559448242, 0.32275390625, -0.166748046875, -0.906005859375
543, 2351067751, -5.565307140350342, 1.861622929573059, 7.9663896560668945, -0.7665496468544006, -0.7065007090568542, -1.711363673210144, 0.32275390625, -0.169921875, -0.904052734375
544, 2351084418, -5.521589279174805, 1.8803179264068604, 7.962917804718018, -0.48945873975753784, -0.7144791483879089, -1.312330722808838, 0.32373046875, -0.1669921875, -0.906494140625
545, 2351101085, -5.53231143951416, 1.8864108324050903, 7.936916351318359, -0.31316646933555603, -0.23538069427013397, -1.427895188331604, 0.3232421875, -0.169921875, -0.906494140625
546, 2351117752, -5.526266098022461, 1.9168381690979004, 7.982196807861328, 0.4470953047275543, 0.20985767245292664, -1.1087738275527954, 0.325439453125, -0.17236328125, -0.906494140625
547, 2351134419, -5.571308612823486, 1.912845492362976, 7.921588897705078, 1.0147302150726318, 0.6689589023590088, -0.7184233665466309, 0.3232421875, -0.17138671875, -0.905517578125
548, 2351151086, -5.595497131347656, 1.9017177820205688, 7.887415409088135, 1.01229727268219, 0.5330195426940918, -0.2670123875141144, 0.325439453125, -0.17236328125, -0.905029296875
549, 2351167753, -5.5867109298706055, 1.8815194368362427, 7.887118816375732, 1.6967965364456177, 0.3664345145225525, 0.4272134602069855, 0.325927734375, -0.175537109375, -0.905517578125
550, 2351184420, -5.545223712921143, 1.9752432107925415, 7.911659240722656, 1.6727205514907837, -0.019568102434277534, 0.5909169912338257, 0.325927734375, -0.176513671875, -0.904296875
551, 2351201087, -5.561361312866211, 1.9281996488571167, 7.907721519470215, 1.9184231758117676, -0.0693591833114624, 0.2555314898490906, 0.326904296875, -0.177490234375, -0.904296875
552, 2351217754, -5.559298992156982, 1.9490503072738647, 7.949801445007324, 2.3485050201416016, 0.10908449441194534, 0.44933637976646423, 0.326904296875, -0.176513671875, -0.904296875
553, 2351234421, -5.541452884674072, 1.966476559638977, 7.9358415603637695, 3.1058156490325928, 0.27376776933670044, 0.1595991551876068, 0.328857421875, -0.177734375, -0.90380859375
554, 2351251088, -5.511129856109619, 2.019850254058838, 7.9348464012146, 3.487738847732544, 0.4367925524711609, -0.4175894558429718, 0.33056640625, -0.1806640625, -0.90380859375
555, 2351267755, -5.5207014083862305, 1.917924165725708, 7.875880241394043, 3.614624500274658, 0.37906157970428467, -0.15455985069274902, 0.326904296875, -0.181640625, -0.90234375
556, 2351284422, -5.765758037567139, 2.089937686920166, 7.733991622924805, 3.93694806098938, 0.3794842064380646, 0.6854279041290283, 0.328857421875, -0.184326171875, -0.90478515625
557, 2351301089, -5.698364734649658, 2.1133275032043457, 7.787262916564941, 1.1919320821762085, -0.906792163848877, 3.520421266555786, 0.327392578125, -0.187255859375, -0.90283203125
558, 2351317756, -5.620505332946777, 2.152287006378174, 7.829077243804932, 0.6521058082580566, -3.456984758377075, 2.840019702911377, 0.329345703125, -0.188232421875, -0.900146484375
559, 2351334423, -5.77758264541626, 2.3392715454101562, 7.760533809661865, -0.9439945816993713, -6.748895645141602, 2.1508841514587402, 0.327392578125, -0.188720703125, -0.901611328125
560, 2351351090, -5.572812080383301, 2.381631851196289, 7.886471748352051, -2.7315444946289062, -9.689428329467773, 0.2662121057510376, 0.324951171875, -0.187744140625, -0.90380859375
561, 2351367757, -5.402058124542236, 1.9116899967193604, 8.028830528259277, -3.144343852996826, -7.619357109069824, -0.7951464056968689, 0.324951171875, -0.187744140625, -0.90185546875
562, 2351384424, -5.374444007873535, 2.2764739990234375, 8.06439208984375, -3.6330857276916504, -6.44773006439209, -0.8775681853294373, 0.322265625, -0.189208984375, -0.9033203125
563, 2351401091, -5.388599395751953, 1.9948517084121704, 8.013078689575195, -3.4505691528320312, -4.317379951477051, -2.257964849472046, 0.3232421875, -0.189697265625, -0.904296875
564, 2351417758, -5.368882656097412, 2.058898448944092, 8.07287883758545, -2.225795269012451, -1.8106259107589722, -2.3084213733673096, 0.3212890625, -0.189208984375, -0.90576171875
565, 2351434425, -5.458023548126221, 2.002098560333252, 8.044246673583984, -1.0758744478225708, 0.4623028635978699, -2.817000150680542, 0.3212890625, -0.189208984375, -0.90283203125
566, 2351451092, -5.5563530921936035, 1.9911788702011108, 7.989823818206787, -0.13050952553749084, 1.8240340948104858, -2.435985803604126, 0.322265625, -0.191650390625, -0.90380859375
567, 2351467759, -5.50433874130249, 2.151447057723999, 7.943353652954102, 0.32841241359710693, 2.2322299480438232, -2.347057819366455, 0.32421875, -0.1923828125, -0.90576171875
568, 2351484426, -5.548564910888672, 2.2071332931518555, 7.904429912567139, 0.11913109570741653, 2.5708303451538086, -3.078442096710205, 0.32373046875, -0.190673828125, -0.904296875
569, 2351501093, -5.590882301330566, 2.2162652015686035, 7.901212692260742, -0.027597684413194656, 2.518157482147217, -3.7222812175750732, 0.326416015625, -0.19287109375, -0.902587890625
570, 2351517760, -5.640678882598877, 2.1142866611480713, 7.859285354614258, -0.29667189717292786, 2.2443065643310547, -3.7823424339294434, 0.3251953125, -0.19140625, -0.90478515625
571, 2351534427, -5.60719108581543, 2.0393528938293457, 7.883945465087891, -0.4287182092666626, 1.7927289009094238, -3.0794150829315186, 0.327880859375, -0.19189453125, -0.902099609375
572, 2351551094, -5.502959728240967, 2.132622718811035, 7.9359588623046875, -0.6082503199577332, 2.1804795265197754, -2.807919979095459, 0.326904296875, -0.19091796875, -0.90234375
573, 2351567761, -5.516921043395996, 2.255396604537964, 7.8675127029418945, -1.4598472118377686, 2.4467239379882812, -3.6517951488494873, 0.329833984375, -0.19189453125, -0.902587890625
574, 2351584428, -5.534470081329346, 2.2327892780303955, 7.82414436340332, -2.1457552909851074, 2.4331746101379395, -4.584558486938477, 0.3310546875, -0.19287109375, -0.902587890625
575, 2351601095, -5.561953544616699, 2.181699752807617, 7.8209991455078125, -2.8924806118011475, 1.7779502868652344, -5.1664910316467285, 0.33056640625, -0.193359375, -0.899658203125
576, 2351617762, -5.594128608703613, 2.1744303703308105, 7.824193477630615, -3.6909570693969727, 1.0272935628890991, -5.81039571762085, 0.33154296875, -0.19140625, -0.900634765625
577, 2351634429, -5.666457653045654, 2.147188901901245, 7.811733722686768, -4.784183979034424, 0.33049991726875305, -6.293245792388916, 0.333984375, -0.18896484375, -0.900634765625
578, 2351651096, -5.651169776916504, 2.116334915161133, 7.803035736083984, -5.207369804382324, -0.5236645340919495, -6.179628372192383, 0.3349609375, -0.187744140625, -0.900146484375
579, 2351667763, -5.533955097198486, 2.1513164043426514, 7.87812614440918, -5.371701717376709, 0.02474827691912651, -6.199132919311523, 0.33447265625, -0.187255859375, -0.89794921875
580, 2351684430, -5.489793300628662, 2.194045066833496, 7.919952869415283, -5.844550132751465, 1.5300965309143066, -7.146354675292969, 0.338134765625, -0.185302734375, -0.901123046875
581, 2351701097, -5.567176342010498, 1.9861397743225098, 7.925716400146484, -5.200288772583008, 3.6080431938171387, -8.09227180480957, 0.337158203125, -0.184326171875, -0.89892578125
582, 2351717764, -5.687568187713623, 1.8029862642288208, 7.898168087005615, -3.780909776687622, 5.749125003814697, -7.88829231262207, 0.340087890625, -0.182861328125, -0.900146484375
583, 2351734431, -5.704416751861572, 1.9753682613372803, 7.847224712371826, -2.7858431339263916, 8.203655242919922, -7.4290056228637695, 0.341796875, -0.182373046875, -0.901123046875
584, 2351751098, -5.671135425567627, 2.0939955711364746, 7.848971366882324, -2.103623867034912, 9.937881469726562, -8.518341064453125, 0.3447265625, -0.182861328125, -0.8984375
585, 2351767765, -5.650200843811035, 2.155616044998169, 7.795343399047852, -1.6333231925964355, 11.908198356628418, -10.94970703125, 0.348876953125, -0.180908203125, -0.89697265625
586, 2351784432, -5.484222412109375, 2.1389107704162598, 7.966623306274414, 0.44346535205841064, 15.241125106811523, -14.191367149353027, 0.35302734375, -0.179931640625, -0.89208984375
587, 2351801099, -5.475032806396484, 1.8255003690719604, 8.062846183776855, -0.7674990892410278, 21.479005813598633, -13.389222145080566, 0.361572265625, -0.177978515625, -0.8935546875
588, 2351817766, -5.451498985290527, 1.9803493022918701, 8.105698585510254, 2.274116039276123, 31.242387771606445, -13.968158721923828, 0.369384765625, -0.1787109375, -0.888916015625
589, 2351834433, -5.599267959594727, 1.942859411239624, 8.069267272949219, 4.419241428375244, 42.88744354248047, -15.490777015686035, 0.381591796875, -0.1787109375, -0.88623046875
590, 2351851100, -5.718193531036377, 2.0866403579711914, 7.906015872955322, 6.932421684265137, 55.00254821777344, -17.724441528320312, 0.39404296875, -0.178466796875, -0.8798828125
591, 2351867767, -5.866282939910889, 1.9913599491119385, 7.73639440536499, 9.583170890808105, 67.73773193359375, -21.406570434570312, 0.4150390625, -0.18115234375, -0.870849609375
592, 2351884434, -5.916914939880371, 1.968445062637329, 7.83759069442749, 13.417203903198242, 84.11505889892578, -23.806196212768555, 0.434326171875, -0.1826171875, -0.861328125
593, 2351901101, -6.082163333892822, 2.0464322566986084, 7.7678399085998535, 16.417272567749023, 104.56583404541016, -27.28756332397461, 0.461181640625, -0.181884765625, -0.84716796875
594, 2351917768, -6.249137878417969, 1.9993352890014648, 7.52381706237793, 20.168827056884766, 128.14205932617188, -34.064334869384766, 0.492919921875, -0.182861328125, -0.829833984375
595, 2351934435, -6.374893665313721, 2.1303319931030273, 7.7161173820495605, 21.179323196411133, 152.71188354492188, -41.59016799926758, 0.529296875, -0.184326171875, -0.806396484375
596, 2351951102, -6.44148588180542, 2.523752212524414, 8.075974464416504, 12.801733016967773, 181.17733764648438, -49.93585968017578, 0.571533203125, -0.17919921875, -0.778564453125
597, 2351967769, -6.468482494354248, 2.0901377201080322, 7.281855583190918, 2.8669166564941406, 220.6908721923828, -60.40548324584961, 0.624267578125, -0.1708984375, -0.74560546875
598, 2351984436, -6.962102890014648, 2.5516357421875, 6.919948577880859, 1.8723053932189941, 264.3672790527344, -86.02488708496094, 0.681884765625, -0.155029296875, -0.6953125
599, 2352001103, -7.900415420532227, 2.1913907527923584, 7.317108631134033, -7.550110816955566, 303.66217041015625, -107.75975036621094, 0.7431640625, -0.133544921875, -0.6328125
600, 2352017770, -10.512928009033203, 2.3202245235443115, 8.170572280883789, -13.689427375793457, 336.8309326171875, -116.30908203125, 0.807373046875, -0.102294921875, -0.557861328125
601, 2352034437, -13.220525741577148, 3.614454984664917, 7.155154705047607, -5.214975833892822, 360.8287658691406, -115.13927459716797, 0.867919921875, -0.074462890625, -0.47119140625
602, 2352051104, -19.698713302612305, 4.483254432678223, 10.410107612609863, -7.112680912017822, 348.01165771484375, -118.39201354980469, 0.921142578125, -0.041748046875, -0.380615234375
603, 2352067771, -18.494569778442383, 5.117304801940918, 9.873198509216309, 0.9164262413978577, 323.3437194824219, -116.75664520263672, 0.956787109375, -0.010986328125, -0.291748046875
604, 2352084438, -16.302711486816406, 2.805295705795288, 11.449712753295898, 7.418916702270508, 285.4659423828125, -111.54077911376953, 0.98046875, 0.02099609375, -0.211181640625
605, 2352101105, -12.197568893432617, 3.8271028995513916, 12.556227684020996, 21.985301971435547, 260.01300048828125, -108.71426391601562, 0.99560546875, 0.051513671875, -0.134033203125
606, 2352117772, -4.855434417724609, 4.579707145690918, 11.325997352600098, 16.942211151123047, 212.81072998046875, -103.3987808227539, 1.003662109375, 0.080810546875, -0.070068359375
607, 2352134439, -10.199724197387695, 3.422233819961548, 5.9674835205078125, 27.55109405517578, 264.2295837402344, -98.30823516845703, 1.005859375, 0.107421875, 2.44140625E-4
608, 2352151106, -21.900238037109375, 8.194550514221191, 18.847793579101562, 58.02873611450195, 145.71694946289062, -51.631629943847656, 1.00439453125, 0.128662109375, 0.052490234375
609, 2352167773, -15.453960418701172, 9.152559280395508, 17.358261108398438, 29.183311462402344, -26.359386444091797, -16.383407592773438, 1.00390625, 0.13427734375, 0.054443359375
610, 2352184440, -8.660629272460938, 5.704716205596924, 12.392369270324707, -2.160376787185669, -133.86834716796875, 11.937397956848145, 1.006103515625, 0.13134765625, 0.021728515625
611, 2352201107, -4.30338191986084, 3.3143410682678223, 8.251419067382812, -1.9163978099822998, -172.7864990234375, 33.653682708740234, 1.001220703125, 0.120361328125, -0.02783203125
612, 2352217774, -2.603062868118286, 2.4184603691101074, 6.4667067527771, 7.527606964111328, -177.7318878173828, 47.325252532958984, 1.000244140625, 0.10791015625, -0.076416015625
613, 2352234441, -2.1817872524261475, 2.1032350063323975, 5.860663890838623, 7.665870666503906, -174.7873077392578, 54.01218795776367, 0.99609375, 0.09228515625, -0.128173828125
614, 2352251108, -3.0214004516601562, 1.6255804300308228, 6.192070960998535, 4.532137393951416, -173.9663848876953, 59.52484130859375, 0.988525390625, 0.0751953125, -0.1748046875
615, 2352267775, -4.6819610595703125, 1.2743338346481323, 7.454967975616455, 4.095729351043701, -184.6182861328125, 68.23432922363281, 0.978759765625, 0.05322265625, -0.225830078125
616, 2352284442, -6.491114139556885, 1.2050530910491943, 8.604454040527344, 4.78391170501709, -211.43133544921875, 79.82218933105469, 0.96142578125, 0.029541015625, -0.2822265625
617, 2352301109, -7.6765666007995605, 1.019370198249817, 9.225687980651855, 2.8387949466705322, -245.0497589111328, 91.02397155761719, 0.93896484375, 0.005615234375, -0.345947265625
618, 2352317776, -8.648547172546387, 0.41195011138916016, 9.421050071716309, 2.486807107925415, -277.9596252441406, 101.52208709716797, 0.905517578125, -0.023193359375, -0.416259765625
619, 2352334443, -9.271111488342285, -0.4883703589439392, 9.184867858886719, 8.217730522155762, -308.1072082519531, 110.24431610107422, 0.865966796875, -0.05615234375, -0.49169921875
620, 2352351110, -9.136893272399902, -1.063941478729248, 8.641913414001465, 15.816805839538574, -326.19970703125, 112.88249206542969, 0.80908203125, -0.087646484375, -0.568115234375
621, 2352367777, -9.128801345825195, -1.1031713485717773, 8.445084571838379, 18.947965621948242, -328.4117431640625, 107.33277130126953, 0.746826171875, -0.1171875, -0.637939453125
622, 2352384444, -9.784151077270508, -1.139574408531189, 8.8125, 18.241304397583008, -324.33380126953125, 96.7114486694336, 0.6787109375, -0.145751953125, -0.703125
623, 2352401111, -10.678088188171387, -1.8056484460830688, 9.394721984863281, 25.22916030883789, -318.0111083984375, 84.42279052734375, 0.604248046875, -0.16845703125, -0.7607421875
624, 2352417778, -12.230753898620605, -2.205899238586426, 10.585217475891113, 39.46025466918945, -309.0267639160156, 63.63389587402344, 0.52587890625, -0.1904296875, -0.806884765625
625, 2352434445, -13.73447036743164, -1.811216115951538, 12.349235534667969, 59.87661361694336, -303.22943115234375, 37.79853057861328, 0.44873046875, -0.2138671875, -0.84619140625
626, 2352451112, -17.49320411682129, 0.41578418016433716, 14.507285118103027, 75.6331787109375, -307.2829895019531, 16.518041610717773, 0.37158203125, -0.237060546875, -0.874755859375
627, 2352467779, -21.71237564086914, 2.778639078140259, 14.643255233764648, 79.44439697265625, -328.063720703125, 9.559024810791016, 0.2861328125, -0.261474609375, -0.900146484375
628, 2352484446, -23.847557067871094, 5.078830718994141, 12.372509956359863, 79.93340301513672, -345.4126892089844, 27.260892868041992, 0.193115234375, -0.288330078125, -0.91259765625
629, 2352501113, -24.746774673461914, 6.529739856719971, 7.882529258728027, 78.5699234008789, -342.5570373535156, 68.28374481201172, 0.093994140625, -0.316162109375, -0.9169921875
630, 2352517780, -25.20224952697754, 3.6806418895721436, 1.6483875513076782, 77.77455139160156, -303.18121337890625, 115.30131530761719, 7.32421875E-4, -0.341064453125, -0.9150390625
631, 2352534447, -27.122346878051758, -4.6248087882995605, -5.689651966094971, 89.72712707519531, -234.9211883544922, 149.1433868408203, -0.082763671875, -0.363525390625, -0.901123046875
632, 2352551114, -33.270408630371094, -17.32056999206543, -16.148725509643555, 117.62149810791016, -150.09307861328125, 149.8502960205078, -0.1455078125, -0.38818359375, -0.8818359375
633, 2352567781, -26.937326431274414, -15.625677108764648, -19.662527084350586, 45.4766731262207, -19.744203567504883, 60.0737419128418, -0.1708984375, -0.40380859375, -0.871826171875
634, 2352584448, -22.16337013244629, -9.931258201599121, -8.221749305725098, -77.49401092529297, 92.05934143066406, -93.86912536621094, -0.146484375, -0.391845703125, -0.8798828125
635, 2352601115, -24.845773696899414, -3.094010353088379, 2.507620334625244, -66.11589813232422, 83.97284698486328, -133.8966522216797, -0.1103515625, -0.376953125, -0.893798828125
636, 2352617782, -6.63228178024292, 8.497629165649414, 12.864294052124023, -27.924739837646484, 72.85881042480469, -105.25199890136719, -0.078857421875, -0.374755859375, -0.89990234375
637, 2352634449, 15.338489532470703, 18.896780014038086, 13.182130813598633, -66.87159729003906, 79.43138122558594, -93.35897827148438, -0.048095703125, -0.359375, -0.907958984375
638, 2352651116, -1.3159751892089844, 5.362053871154785, 1.354712963104248, -73.34264373779297, 194.96913146972656, -48.72587585449219, -9.765625E-4, -0.33984375, -0.91650390625
639, 2352667783, -15.69872760772705, -4.3722968101501465, 15.89001750946045, -37.65440368652344, 234.45870971679688, 37.07243347167969, 0.06494140625, -0.328125, -0.915771484375
640, 2352684450, -14.037675857543945, -11.652752876281738, 17.316720962524414, -23.692283630371094, 153.3351593017578, -41.66374969482422, 0.116943359375, -0.3193359375, -0.91552734375
641, 2352701117, -10.345996856689453, 0.6421266794204712, 12.484435081481934, 12.322386741638184, 98.06719207763672, -69.65270233154297, 0.15234375, -0.318359375, -0.910888671875
642, 2352717784, -5.869667053222656, 10.829771995544434, 6.897610187530518, 7.492804527282715, 104.72323608398438, -20.60371208190918, 0.18359375, -0.317626953125, -0.905517578125
643, 2352734451, -5.249279499053955, 4.669794082641602, 6.854794502258301, -22.786659240722656, 114.35735321044922, -10.505532264709473, 0.211669921875, -0.3154296875, -0.89892578125
644, 2352751118, -5.756226062774658, 2.7528438568115234, 9.55152416229248, -41.05635452270508, 120.41496276855469, -38.344337463378906, 0.245849609375, -0.3037109375, -0.89697265625
645, 2352767785, -16.97437286376953, 4.969131946563721, 11.66136360168457, -87.42010498046875, 46.14316940307617, -51.12154006958008, 0.272705078125, -0.276611328125, -0.897705078125
646, 2352784452, -7.175214767456055, -2.1312456130981445, 10.662001609802246, -29.912410736083984, 10.804515838623047, -16.657958984375, 0.279052734375, -0.263916015625, -0.897216796875
647, 2352801119, -5.991889476776123, 2.103801965713501, 9.092315673828125, -9.363945007324219, 8.485154151916504, -6.810523986816406, 0.281982421875, -0.260009765625, -0.89990234375
648, 2352817786, -5.765618324279785, 0.5793730020523071, 8.979917526245117, 6.483173847198486, 11.468304634094238, 0.3534746766090393, 0.28369140625, -0.259521484375, -0.896728515625
649, 2352834453, -5.450128078460693, 1.3037643432617188, 8.523749351501465, 16.0511417388916, 13.700414657592773, 5.1284708976745605, 0.2861328125, -0.263427734375, -0.89453125
650, 2352851120, -5.3320512771606445, 1.810882329940796, 8.233063697814941, 20.04947853088379, 13.99421501159668, 6.7219462394714355, 0.291259765625, -0.273193359375, -0.892822265625
651, 2352867787, -5.0155839920043945, 2.8348684310913086, 7.915209770202637, 17.970678329467773, 13.092052459716797, 3.5980472564697266, 0.29541015625, -0.27783203125, -0.890869140625
652, 2352884454, -5.2853569984436035, 3.39520263671875, 7.480566501617432, 10.662657737731934, 11.172236442565918, -1.2172956466674805, 0.298583984375, -0.281005859375, -0.885009765625
653, 2352901121, -5.2386298179626465, 3.509221076965332, 7.218984127044678, -1.7793147563934326, 6.681951999664307, -7.103479385375977, 0.301513671875, -0.282470703125, -0.88916015625
654, 2352917788, -5.23160457611084, 3.2697651386260986, 7.339257717132568, -11.955263137817383, 3.091730833053589, -11.189045906066895, 0.302490234375, -0.278076171875, -0.885498046875
