sep=,
DeviceTag:,B,,,,,,,,,,,,,,,,,
FirmwareVersion:,2.2.1,,,,,,,,,,,,,,,,,
AppVersion:,2022.0.1,,,,,,,,,,,,,,,,,
SyncStatus:,Synced,,,,,,,,,,,,,,,,,
OutputRate:,60Hz,,,,,,,,,,,,,,,,,
FilterProfile:,General,,,,,,,,,,,,,,,,,
Measurement Mode:,Inertial Mode - Rate quantities (with mag),,,,,,,,,,,,,,,,,
StartTime:,2022-08-16 15:48:38.989 +0300,,,,,,,,,,,,,,,,,
© Xsens Technologies B. V. 2005-2022,,,,,,,,,,,,,,,,,,,

PacketCounter,SampleTimeFine,Acc_X,Acc_Y,Acc_Z,Gyr_X,Gyr_Y,Gyr_Z,Mag_X,Mag_Y,Mag_Z
1, 2342050904, -5.590391159057617, -2.255601406097412, 7.576993942260742, -0.007633041590452194, -0.8929250240325928, -1.3919031620025635, 0.302490234375, 0.3271484375, -0.850830078125
2, 2342067571, -5.624323844909668, -2.268509864807129, 7.577287673950195, 0.06312890350818634, -0.8650049567222595, -1.4193406105041504, 0.3017578125, 0.326171875, -0.84814453125
3, 2342084238, -5.610755920410156, -2.2461533546447754, 7.591476917266846, -0.10310392081737518, -0.8426834940910339, -1.4961659908294678, 0.305419921875, 0.325439453125, -0.85009765625
4, 2342100905, -5.618674278259277, -2.2461161613464355, 7.592197418212891, -0.24688079953193665, -0.7913172245025635, -1.6126652956008911, 0.302001953125, 0.324951171875, -0.851318359375
5, 2342117572, -5.587615966796875, -2.2739577293395996, 7.5743536949157715, -0.2206149846315384, -0.9078804850578308, -1.6607913970947266, 0.30078125, 0.324462890625, -0.84814453125
6, 2342134239, -5.5981550216674805, -2.2550806999206543, 7.564542293548584, -0.19894661009311676, -0.8315674066543579, -1.6751599311828613, 0.301025390625, 0.32666015625, -0.852783203125
7, 2342150906, -5.619433403015137, -2.2569682598114014, 7.576415061950684, -0.22701817750930786, -0.7585585713386536, -1.6411594152450562, 0.302490234375, 0.326171875, -0.849609375
8, 2342167573, -5.620174407958984, -2.2517707347869873, 7.5846757888793945, -0.21855315566062927, -0.9444810152053833, -1.658076524734497, 0.301513671875, 0.325439453125, -0.853271484375
9, 2342184240, -5.599133014678955, -2.2615017890930176, 7.549361228942871, -0.12050774693489075, -0.9308935403823853, -1.7286651134490967, 0.302001953125, 0.326171875, -0.850830078125
10, 2342200907, -5.584993362426758, -2.24920654296875, 7.591508388519287, -0.11370757967233658, -0.7994491457939148, -1.6361775398254395, 0.301025390625, 0.322998046875, -0.850830078125
11, 2342217574, -5.600440502166748, -2.250093460083008, 7.595713138580322, -0.340674489736557, -0.7558820247650146, -1.7265007495880127, 0.30078125, 0.325927734375, -0.849853515625
12, 2342234241, -5.594505310058594, -2.248945713043213, 7.585637092590332, -0.29322701692581177, -0.5789110660552979, -1.5890759229660034, 0.302978515625, 0.324951171875, -0.851806640625
13, 2342250908, -5.601659774780273, -2.241274833679199, 7.5844221115112305, -0.3744449019432068, -0.532961905002594, -1.6108723878860474, 0.29931640625, 0.324951171875, -0.849365234375
14, 2342267575, -5.603790760040283, -2.267709732055664, 7.556116580963135, -0.3723830282688141, -0.4853990972042084, -1.6352812051773071, 0.302490234375, 0.324462890625, -0.85009765625
15, 2342284242, -5.5927414894104, -2.271655559539795, 7.5880560874938965, -0.3219132423400879, -0.5848660469055176, -1.5827240943908691, 0.301025390625, 0.326416015625, -0.852294921875
16, 2342300909, -5.611385822296143, -2.254993200302124, 7.578866481781006, -0.2555250823497772, -0.43709349632263184, -1.6059929132461548, 0.303466796875, 0.325439453125, -0.85009765625
17, 2342317576, -5.616624355316162, -2.24074649810791, 7.5626020431518555, -0.4348139762878418, -0.5712911486625671, -1.6259453296661377, 0.302490234375, 0.32666015625, -0.852783203125
18, 2342334243, -5.5947394371032715, -2.2748677730560303, 7.568875789642334, -0.46394845843315125, -0.4983718991279602, -1.6520447731018066, 0.302001953125, 0.323974609375, -0.85009765625
19, 2342350910, -5.590457916259766, -2.2643723487854004, 7.6161909103393555, -0.347410649061203, -0.3608573377132416, -1.5395665168762207, 0.30078125, 0.325439453125, -0.850341796875
20, 2342367577, -5.599870681762695, -2.2424306869506836, 7.571398735046387, -0.483606219291687, -0.3653651773929596, -1.595389485359192, 0.302490234375, 0.32666015625, -0.850341796875
21, 2342384244, -5.5987629890441895, -2.28519868850708, 7.55445671081543, -0.35641351342201233, -0.2653988003730774, -1.5316393375396729, 0.302490234375, 0.3212890625, -0.8486328125
22, 2342400911, -5.619356632232666, -2.2542285919189453, 7.581114768981934, -0.30521371960639954, -0.1786101758480072, -1.5936990976333618, 0.302978515625, 0.323974609375, -0.849609375
23, 2342417578, -5.6132330894470215, -2.218416929244995, 7.587885856628418, -0.4823767840862274, -0.24566419422626495, -1.4991369247436523, 0.302490234375, 0.3271484375, -0.849609375
24, 2342434245, -5.602410793304443, -2.2770493030548096, 7.562410831451416, -0.4137219488620758, -0.3310825526714325, -1.537466287612915, 0.303955078125, 0.326171875, -0.84912109375
25, 2342450912, -5.581453323364258, -2.2785956859588623, 7.590157508850098, -0.32523009181022644, -0.2588675618171692, -1.414755940437317, 0.302490234375, 0.325439453125, -0.849609375
26, 2342467579, -5.589111328125, -2.2564003467559814, 7.61911678314209, -0.41611674427986145, 0.2743184268474579, -1.2521024942398071, 0.302001953125, 0.324462890625, -0.84912109375
27, 2342484246, -5.650236129760742, -2.225404739379883, 7.585659980773926, -0.6595911383628845, 0.3591732978820801, -1.486638069152832, 0.301513671875, 0.325439453125, -0.8486328125
28, 2342500913, -5.643517017364502, -2.2564876079559326, 7.592600345611572, -0.15124297142028809, 0.29497504234313965, -1.4800680875778198, 0.304443359375, 0.323486328125, -0.849609375
29, 2342517580, -5.620957851409912, -2.243999719619751, 7.548501491546631, -0.32606247067451477, -0.3347835838794708, -1.4897884130477905, 0.303955078125, 0.322509765625, -0.852783203125
30, 2342534247, -5.598519325256348, -2.278153896331787, 7.559042930603027, -0.186550110578537, -0.354825496673584, -1.3891688585281372, 0.304931640625, 0.32568359375, -0.849609375
31, 2342550914, -5.61885929107666, -2.2457659244537354, 7.565931797027588, -0.13568326830863953, -0.30208897590637207, -1.3894246816635132, 0.304443359375, 0.326171875, -0.85009765625
32, 2342567581, -5.651971817016602, -2.217768907546997, 7.588903427124023, -0.23304997384548187, -0.3712048828601837, -1.4559284448623657, 0.303466796875, 0.325439453125, -0.8505859375
33, 2342584248, -5.612843036651611, -2.2791800498962402, 7.552381992340088, -0.2749651372432709, -0.4611566662788391, -1.6533511877059937, 0.302978515625, 0.323974609375, -0.84814453125
34, 2342600915, -5.639051914215088, -2.2154531478881836, 7.564493656158447, -0.12148100882768631, -0.6228623986244202, -1.4826679229736328, 0.304443359375, 0.324462890625, -0.85009765625
35, 2342617582, -5.609191417694092, -2.2361459732055664, 7.593203544616699, -0.1940034180879593, -0.6013094186782837, -1.6158028841018677, 0.304931640625, 0.323974609375, -0.84814453125
36, 2342634249, -5.6196112632751465, -2.24750018119812, 7.572597026824951, -0.2697529196739197, -0.41691070795059204, -1.553346037864685, 0.305419921875, 0.324951171875, -0.8486328125
37, 2342650916, -5.622307300567627, -2.254591226577759, 7.576246738433838, -0.3165729343891144, -0.39061927795410156, -1.494231939315796, 0.306884765625, 0.324951171875, -0.84912109375
38, 2342667583, -5.617469787597656, -2.250399351119995, 7.574873924255371, -0.1161792129278183, -0.4405768811702728, -1.4673643112182617, 0.305908203125, 0.324951171875, -0.847900390625
39, 2342684250, -5.629390239715576, -2.230656862258911, 7.576866626739502, -0.09077140688896179, -0.6642141342163086, -1.5021721124649048, 0.304443359375, 0.322509765625, -0.85107421875
40, 2342700917, -5.636842727661133, -2.2352147102355957, 7.581226348876953, -0.07594165951013565, -0.7275415658950806, -1.394496202468872, 0.302490234375, 0.323974609375, -0.84765625
41, 2342717584, -5.6316351890563965, -2.2569894790649414, 7.560895919799805, -0.18270820379257202, -0.7232514023780823, -1.5039010047912598, 0.303466796875, 0.324951171875, -0.8486328125
42, 2342734251, -5.6293864250183105, -2.2765374183654785, 7.573937892913818, -0.14517280459403992, -0.8502136468887329, -1.510278582572937, 0.304443359375, 0.323486328125, -0.8515625
43, 2342750918, -5.639284610748291, -2.241250991821289, 7.568549156188965, 0.030920933932065964, -0.9106595516204834, -1.5143508911132812, 0.302978515625, 0.324462890625, -0.851806640625
44, 2342767585, -5.607446193695068, -2.241873264312744, 7.575983047485352, 0.0877683162689209, -0.8354606628417969, -1.4144484996795654, 0.303466796875, 0.325927734375, -0.851318359375
45, 2342784252, -5.623461723327637, -2.2359020709991455, 7.567962646484375, 0.06539562344551086, -0.7124428749084473, -1.3052616119384766, 0.306640625, 0.324951171875, -0.849609375
46, 2342800919, -5.639303207397461, -2.2283999919891357, 7.56545877456665, -0.012998445890843868, -0.7059373259544373, -1.2806862592697144, 0.303955078125, 0.323974609375, -0.8486328125
47, 2342817586, -5.638969898223877, -2.2384090423583984, 7.562081336975098, 0.27804508805274963, -0.9696968793869019, -1.2543691396713257, 0.305908203125, 0.324462890625, -0.85009765625
48, 2342834253, -5.63060188293457, -2.23848032951355, 7.5820722579956055, 0.28845664858818054, -1.0151593685150146, -1.3366883993148804, 0.30615234375, 0.323486328125, -0.84912109375
49, 2342850920, -5.621140003204346, -2.234341859817505, 7.5937886238098145, 0.13597141206264496, -0.9142966270446777, -1.3272374868392944, 0.303466796875, 0.322998046875, -0.8505859375
50, 2342867587, -5.631662368774414, -2.2312402725219727, 7.5864152908325195, -0.10115736722946167, -0.8387647867202759, -1.5061421394348145, 0.302978515625, 0.324462890625, -0.85107421875
51, 2342884254, -5.639516830444336, -2.234374523162842, 7.602963447570801, -0.11109508574008942, -0.6283948421478271, -1.564449429512024, 0.302978515625, 0.323974609375, -0.85009765625
52, 2342900921, -5.618785858154297, -2.215054750442505, 7.56980562210083, -0.24535682797431946, -0.7015318274497986, -1.491478681564331, 0.304443359375, 0.322509765625, -0.8515625
53, 2342917588, -5.622405052185059, -2.2017319202423096, 7.590837478637695, -0.3849460780620575, -0.6305462718009949, -1.4680942296981812, 0.302001953125, 0.322998046875, -0.8505859375
54, 2342934255, -5.601515293121338, -2.221315383911133, 7.598093509674072, -0.5569225549697876, -0.4684818685054779, -1.4347211122512817, 0.304931640625, 0.322998046875, -0.85009765625
55, 2342950922, -5.617545127868652, -2.240344524383545, 7.567986011505127, -0.6045109033584595, -0.33756256103515625, -1.3070929050445557, 0.303466796875, 0.324951171875, -0.8505859375
56, 2342967589, -5.601991653442383, -2.205519437789917, 7.540303707122803, -0.5394418835639954, -0.20791108906269073, -1.345114827156067, 0.303466796875, 0.32080078125, -0.85107421875
57, 2342984256, -5.640318870544434, -2.2355775833129883, 7.566340446472168, -0.18904735147953033, 0.12276807427406311, -1.5122122764587402, 0.3056640625, 0.324462890625, -0.853271484375
58, 2343000923, -5.616743087768555, -2.24686598777771, 7.557557582855225, -0.3580015301704407, 0.0457506887614727, -1.6905920505523682, 0.30615234375, 0.323486328125, -0.85107421875
59, 2343017590, -5.647878170013428, -2.2335712909698486, 7.563654899597168, -0.41927987337112427, -0.15760773420333862, -1.747157335281372, 0.302001953125, 0.322509765625, -0.851318359375
60, 2343034257, -5.628164291381836, -2.246156930923462, 7.571664810180664, -0.530144453048706, -0.27912718057632446, -1.7952708005905151, 0.304931640625, 0.322998046875, -0.849609375
61, 2343050924, -5.65327787399292, -2.1952590942382812, 7.551856517791748, -0.20537543296813965, -0.4815315902233124, -1.5779087543487549, 0.304931640625, 0.323486328125, -0.8505859375
62, 2343067591, -5.649722576141357, -2.2092854976654053, 7.522693157196045, -0.09585553407669067, -0.5864284038543701, -1.554357886314392, 0.30615234375, 0.322998046875, -0.8486328125
63, 2343084258, -5.653299808502197, -2.2284834384918213, 7.553144454956055, 0.12033484876155853, -0.810193657875061, -1.597630500793457, 0.30517578125, 0.322021484375, -0.85107421875
64, 2343100925, -5.61175012588501, -2.2057230472564697, 7.561931133270264, 0.11614718288183212, -0.8762744069099426, -1.7295230627059937, 0.306640625, 0.322998046875, -0.85009765625
65, 2343117592, -5.635903835296631, -2.2228620052337646, 7.565087795257568, -0.035243067890405655, -0.8612909317016602, -1.695432424545288, 0.304931640625, 0.322998046875, -0.85107421875
66, 2343134259, -5.628035545349121, -2.2226614952087402, 7.575743675231934, 0.01525876298546791, -0.8537993431091309, -1.7144371271133423, 0.304443359375, 0.322998046875, -0.85009765625
67, 2343150926, -5.629056453704834, -2.2241766452789307, 7.584989070892334, -0.020579805597662926, -0.7450990080833435, -1.663788080215454, 0.304443359375, 0.321533203125, -0.85009765625
68, 2343167593, -5.628753185272217, -2.220287799835205, 7.572410583496094, -0.1631145030260086, -0.747980535030365, -1.6534664630889893, 0.306640625, 0.322509765625, -0.85205078125
69, 2343184260, -5.616663455963135, -2.233980417251587, 7.567502975463867, -0.18035182356834412, -0.6238356828689575, -1.5050790309906006, 0.303466796875, 0.3212890625, -0.8505859375
70, 2343200927, -5.639390468597412, -2.204773187637329, 7.582167148590088, -0.11822822690010071, -0.7730041742324829, -1.5429091453552246, 0.302490234375, 0.32080078125, -0.849609375
71, 2343217594, -5.614139080047607, -2.2243311405181885, 7.586156368255615, -0.2556915879249573, -0.6491538286209106, -1.6016772985458374, 0.304443359375, 0.322021484375, -0.85107421875
72, 2343234261, -5.639730453491211, -2.1941893100738525, 7.587401390075684, -0.2416575402021408, -0.6211196184158325, -1.590477705001831, 0.3056640625, 0.321533203125, -0.84912109375
73, 2343250928, -5.612443447113037, -2.222733497619629, 7.5753374099731445, -0.22838842868804932, -0.6484751105308533, -1.476905107498169, 0.304931640625, 0.322998046875, -0.85205078125
74, 2343267595, -5.625934600830078, -2.235361099243164, 7.553990840911865, -0.2457154393196106, -0.5901422500610352, -1.4470919370651245, 0.30615234375, 0.322021484375, -0.8515625
75, 2343284262, -5.647667407989502, -2.221797227859497, 7.572303295135498, -0.14612045884132385, -0.503379225730896, -1.4762904644012451, 0.304931640625, 0.322509765625, -0.8515625
76, 2343300929, -5.624138355255127, -2.229515552520752, 7.552600860595703, -0.18273380398750305, -0.5063630938529968, -1.5213431119918823, 0.30517578125, 0.321044921875, -0.8505859375
77, 2343317596, -5.628135681152344, -2.1876111030578613, 7.609049320220947, -0.21496737003326416, -0.48363181948661804, -1.5351356267929077, 0.3076171875, 0.322998046875, -0.8525390625
78, 2343334263, -5.621601104736328, -2.2205073833465576, 7.562773704528809, -0.17424319684505463, -0.5072210431098938, -1.5425631999969482, 0.303955078125, 0.3212890625, -0.84912109375
79, 2343350930, -5.622504234313965, -2.2279467582702637, 7.566038608551025, -0.2213577777147293, -0.4865260720252991, -1.4112213850021362, 0.30615234375, 0.322509765625, -0.849609375
80, 2343367597, -5.635775566101074, -2.2143394947052, 7.592106819152832, -0.17050373554229736, -0.45340877771377563, -1.469298005104065, 0.30615234375, 0.3203125, -0.8525390625
81, 2343384264, -5.629922389984131, -2.2094826698303223, 7.58599853515625, -0.2368406504392624, -0.31358909606933594, -1.4874576330184937, 0.30615234375, 0.322509765625, -0.849609375
82, 2343400931, -5.654831886291504, -2.21106219291687, 7.5536723136901855, -0.2984775900840759, -0.36071646213531494, -1.4525601863861084, 0.303955078125, 0.322021484375, -0.8505859375
83, 2343417598, -5.635650157928467, -2.2346994876861572, 7.5756354331970215, -0.14679917693138123, -0.5551424026489258, -1.440944790840149, 0.30615234375, 0.322998046875, -0.85205078125
84, 2343434265, -5.630634784698486, -2.2204556465148926, 7.5596842765808105, -0.11391248553991318, -0.5573451519012451, -1.2998830080032349, 0.30517578125, 0.3193359375, -0.848388671875
85, 2343450932, -5.617380619049072, -2.2564339637756348, 7.58433723449707, -0.15170402824878693, -0.5505322217941284, -1.4135137796401978, 0.306640625, 0.321044921875, -0.8505859375
86, 2343467599, -5.6438069343566895, -2.199218511581421, 7.583353519439697, -0.03497414290904999, -0.40990564227104187, -1.20042884349823, 0.306640625, 0.32080078125, -0.85107421875
87, 2343484266, -5.669081687927246, -2.172086238861084, 7.5582804679870605, -0.016878770664334297, -0.43979570269584656, -1.2829017639160156, 0.30615234375, 0.322998046875, -0.8505859375
88, 2343500933, -5.643031120300293, -2.1927778720855713, 7.575385570526123, -0.17730394005775452, -0.5792696475982666, -1.3732378482818604, 0.30810546875, 0.321533203125, -0.85107421875
89, 2343517600, -5.641444206237793, -2.1765284538269043, 7.604926109313965, -0.1873568892478943, -0.6650465130805969, -1.4903773069381714, 0.304443359375, 0.3212890625, -0.8505859375
90, 2343534267, -5.624936103820801, -2.2265498638153076, 7.568668842315674, -0.16999149322509766, -0.7203059196472168, -1.4818354845046997, 0.3056640625, 0.321044921875, -0.853515625
91, 2343550934, -5.621914863586426, -2.2296218872070312, 7.560481548309326, -0.10397474467754364, -0.6607692241668701, -1.4148966073989868, 0.30615234375, 0.322021484375, -0.85107421875
92, 2343567601, -5.649527549743652, -2.190711498260498, 7.574545383453369, 0.019753795117139816, -0.5992218852043152, -1.398850440979004, 0.306640625, 0.321044921875, -0.84912109375
93, 2343584268, -5.641709327697754, -2.2061941623687744, 7.588015079498291, -0.054503828287124634, -0.5515183210372925, -1.440227746963501, 0.304443359375, 0.322021484375, -0.8486328125
94, 2343600935, -5.64830207824707, -2.179718017578125, 7.598821640014648, -0.2502744793891907, -0.4060893654823303, -1.4888789653778076, 0.30615234375, 0.3203125, -0.848876953125
95, 2343617602, -5.673128604888916, -2.2030186653137207, 7.573062896728516, -0.26852354407310486, -0.5019960999488831, -1.521880865097046, 0.30517578125, 0.32080078125, -0.8505859375
96, 2343634269, -5.626913547515869, -2.2236783504486084, 7.549169540405273, -0.15242117643356323, -0.7755269408226013, -1.4854214191436768, 0.304443359375, 0.3212890625, -0.85107421875
97, 2343650936, -5.612339019775391, -2.203709363937378, 7.580020904541016, -0.0583457313477993, -0.7097151279449463, -1.5438696146011353, 0.3056640625, 0.3203125, -0.8525390625
98, 2343667603, -5.634039402008057, -2.187626838684082, 7.589014053344727, 0.09560579806566238, -0.5602649450302124, -1.5081526041030884, 0.30859375, 0.321533203125, -0.853515625
99, 2343684270, -5.66535758972168, -2.1661434173583984, 7.587741374969482, 0.14032557606697083, -0.4400389790534973, -1.3893992900848389, 0.30615234375, 0.31982421875, -0.848876953125
100, 2343700937, -5.6427202224731445, -2.192579746246338, 7.580140590667725, 0.046852026134729385, -0.7288476824760437, -1.430443525314331, 0.30517578125, 0.31982421875, -0.8525390625
101, 2343717604, -5.634603023529053, -2.210645914077759, 7.541409015655518, 0.14464130997657776, -0.9966670870780945, -1.3717395067214966, 0.30712890625, 0.3193359375, -0.8505859375
102, 2343734271, -5.623897075653076, -2.2116973400115967, 7.5655670166015625, 0.40147262811660767, -1.2079459428787231, -1.4064955711364746, 0.30615234375, 0.31884765625, -0.849609375
103, 2343750938, -5.6304097175598145, -2.178814172744751, 7.585136413574219, 0.36932873725891113, -0.9978579878807068, -1.24226713180542, 0.30517578125, 0.3203125, -0.8515625
104, 2343767605, -5.65333366394043, -2.1715354919433594, 7.605033874511719, 0.23930583894252777, -0.817877471446991, -1.2998828887939453, 0.306640625, 0.3173828125, -0.85107421875
105, 2343784272, -5.637863636016846, -2.195983409881592, 7.569175720214844, -0.007914324291050434, -0.7412571907043457, -1.4577980041503906, 0.3076171875, 0.31982421875, -0.85302734375
106, 2343800939, -5.619492530822754, -2.187011480331421, 7.580271244049072, 0.03987257555127144, -0.6647136211395264, -1.5751042366027832, 0.302978515625, 0.32080078125, -0.852294921875
107, 2343817606, -5.653966426849365, -2.1757829189300537, 7.573121547698975, -0.05326160416007042, -0.6464517712593079, -1.4680174589157104, 0.30517578125, 0.3203125, -0.853515625
108, 2343834273, -5.6502532958984375, -2.174558162689209, 7.573405742645264, 0.008215272799134254, -0.7503496408462524, -1.406252384185791, 0.30615234375, 0.318359375, -0.85107421875
109, 2343850940, -5.6432785987854, -2.170926809310913, 7.576154708862305, 0.06852037459611893, -0.8394945859909058, -1.4724868535995483, 0.306640625, 0.3193359375, -0.85107421875
110, 2343867607, -5.639675617218018, -2.190258741378784, 7.566831588745117, -0.08808207511901855, -0.806620717048645, -1.4249368906021118, 0.3056640625, 0.31982421875, -0.85205078125
111, 2343884274, -5.653116226196289, -2.20782470703125, 7.631607532501221, -0.32247665524482727, -1.0200127363204956, -1.671804666519165, 0.30615234375, 0.31884765625, -0.8515625
112, 2343900941, -5.634149551391602, -2.154022693634033, 7.565742015838623, -0.046627920120954514, -1.1005008220672607, -1.6024329662322998, 0.30517578125, 0.32080078125, -0.85205078125
113, 2343917608, -5.633400917053223, -2.1624693870544434, 7.603504657745361, 0.0516672246158123, -0.9170626997947693, -1.5385677814483643, 0.30615234375, 0.3173828125, -0.85205078125
114, 2343934275, -5.650902271270752, -2.1755518913269043, 7.590467929840088, 0.03436584398150444, -0.8985191583633423, -1.5384012460708618, 0.3056640625, 0.3193359375, -0.85009765625
115, 2343950942, -5.62369966506958, -2.1898131370544434, 7.578199863433838, 0.10028012841939926, -0.9369767904281616, -1.49993097782135, 0.308349609375, 0.3173828125, -0.85400390625
116, 2343967609, -5.628044605255127, -2.1719605922698975, 7.6116132736206055, 0.04412427917122841, -0.7939937114715576, -1.4371798038482666, 0.3046875, 0.31884765625, -0.85107421875
117, 2343984276, -5.645102500915527, -2.144146680831909, 7.588237285614014, -0.2394019216299057, -0.5215002298355103, -1.589882731437683, 0.30712890625, 0.318359375, -0.85302734375
118, 2344000943, -5.673006057739258, -2.1547722816467285, 7.5541863441467285, -0.27231425046920776, -0.5956874489784241, -1.6863914728164673, 0.306640625, 0.31640625, -0.85205078125
119, 2344017610, -5.622945785522461, -2.1985950469970703, 7.573957443237305, -0.2664105296134949, -0.7342265248298645, -1.6461668014526367, 0.303466796875, 0.3173828125, -0.85009765625
120, 2344034277, -5.628611087799072, -2.186615467071533, 7.572562217712402, -0.2556019723415375, -0.6355023384094238, -1.6346793174743652, 0.30712890625, 0.3173828125, -0.8525390625
121, 2344050944, -5.625936985015869, -2.1761271953582764, 7.585874557495117, -0.2587010860443115, -0.6359761357307434, -1.586501955986023, 0.30419921875, 0.316650390625, -0.853759765625
122, 2344067611, -5.6391215324401855, -2.1510722637176514, 7.611286163330078, -0.3346554636955261, -0.71514493227005, -1.7105053663253784, 0.30517578125, 0.31884765625, -0.85205078125
123, 2344084278, -5.623262882232666, -2.178806781768799, 7.593419551849365, -0.24949325621128082, -0.769956111907959, -1.7140785455703735, 0.30419921875, 0.31787109375, -0.85107421875
124, 2344100945, -5.623779296875, -2.188507080078125, 7.5807600021362305, -0.3116297423839569, -0.6004897356033325, -1.677580714225769, 0.30615234375, 0.31884765625, -0.849609375
125, 2344117612, -5.626516819000244, -2.173740863800049, 7.607807636260986, -0.38625234365463257, -0.3621123433113098, -1.6273285150527954, 0.306640625, 0.3173828125, -0.8505859375
126, 2344134279, -5.639605522155762, -2.1492226123809814, 7.5853753089904785, -0.567705512046814, -0.3552481532096863, -1.5596469640731812, 0.30419921875, 0.31982421875, -0.85107421875
127, 2344150946, -5.64251184463501, -2.1835126876831055, 7.557417869567871, -0.4698009490966797, -0.3547487258911133, -1.5979636907577515, 0.306640625, 0.31640625, -0.85107421875
128, 2344167613, -5.611062526702881, -2.2092771530151367, 7.582294464111328, -0.4208422303199768, -0.380540668964386, -1.6896568536758423, 0.30712890625, 0.31982421875, -0.8505859375
129, 2344184280, -5.6462016105651855, -2.163341999053955, 7.614999294281006, -0.43020379543304443, -0.22773534059524536, -1.6473193168640137, 0.3056640625, 0.31884765625, -0.853515625
130, 2344200947, -5.673115253448486, -2.147270917892456, 7.589466571807861, -0.5890024304389954, -0.26329854130744934, -1.7094298601150513, 0.30712890625, 0.31884765625, -0.85302734375
131, 2344217614, -5.662595748901367, -2.171342611312866, 7.585240364074707, -0.6207621693611145, -0.375559002161026, -1.7515499591827393, 0.3056640625, 0.318359375, -0.85400390625
132, 2344234281, -5.646764755249023, -2.1826181411743164, 7.590412616729736, -0.5216154456138611, -0.46820008754730225, -1.7549434900283813, 0.30615234375, 0.31884765625, -0.853515625
133, 2344250948, -5.652334213256836, -2.1706788539886475, 7.586786270141602, -0.5057227611541748, -0.5138291716575623, -1.7037054300308228, 0.30615234375, 0.3173828125, -0.8525390625
134, 2344267615, -5.641809940338135, -2.161066770553589, 7.5707106590271, -0.4566616117954254, -0.5492770671844482, -1.6985572576522827, 0.30517578125, 0.31787109375, -0.85205078125
135, 2344284282, -5.635987758636475, -2.1705875396728516, 7.5880584716796875, -0.443637490272522, -0.6987912058830261, -1.66581130027771, 0.3076171875, 0.3193359375, -0.85107421875
136, 2344300949, -5.634629249572754, -2.1786651611328125, 7.572473526000977, -0.45762208104133606, -0.6344906091690063, -1.6774011850357056, 0.3046875, 0.31884765625, -0.85302734375
137, 2344317616, -5.640549182891846, -2.1801791191101074, 7.547891139984131, -0.34072571992874146, -0.8982117176055908, -1.6570006608963013, 0.306640625, 0.31884765625, -0.8515625
138, 2344334283, -5.639272212982178, -2.1642873287200928, 7.596815586090088, -0.32482025027275085, -0.7974641919136047, -1.801584243774414, 0.306640625, 0.31640625, -0.8515625
139, 2344350950, -5.632012367248535, -2.1677958965301514, 7.615713119506836, -0.42499151825904846, -0.636885404586792, -1.8698550462722778, 0.30517578125, 0.3203125, -0.85107421875
140, 2344367617, -5.641891956329346, -2.182223081588745, 7.587133884429932, -0.5691654086112976, -0.4254782199859619, -1.9853941202163696, 0.30810546875, 0.31787109375, -0.85302734375
141, 2344384284, -5.642663478851318, -2.189117431640625, 7.593426704406738, -0.6227598786354065, -0.6040754318237305, -1.8368016481399536, 0.30810546875, 0.3203125, -0.85498046875
142, 2344400951, -5.637973308563232, -2.2011327743530273, 7.566819667816162, -0.47000575065612793, -0.6167281270027161, -1.7238882780075073, 0.30712890625, 0.31884765625, -0.849365234375
143, 2344417618, -5.638718605041504, -2.1783275604248047, 7.55578088760376, -0.4086762070655823, -0.6974593997001648, -1.782285213470459, 0.30615234375, 0.31689453125, -0.85009765625
144, 2344434285, -5.649562835693359, -2.160935163497925, 7.5812153816223145, -0.28333187103271484, -0.750548243522644, -1.9065570831298828, 0.30615234375, 0.3173828125, -0.8544921875
145, 2344450952, -5.664576053619385, -2.1570162773132324, 7.6000895500183105, -0.3037666082382202, -0.9236066937446594, -1.7913264036178589, 0.306640625, 0.3173828125, -0.8515625
146, 2344467619, -5.641226768493652, -2.189188003540039, 7.5787482261657715, -0.3024475574493408, -1.0339206457138062, -1.7652655839920044, 0.30517578125, 0.31884765625, -0.849609375
147, 2344484286, -5.6188273429870605, -2.172194242477417, 7.568778038024902, -0.2848901152610779, -1.1601145267486572, -1.7598230838775635, 0.30712890625, 0.316162109375, -0.853515625
148, 2344500953, -5.605839729309082, -2.189650058746338, 7.613256931304932, -0.2587907016277313, -1.0792421102523804, -1.643464207649231, 0.306640625, 0.31787109375, -0.85107421875
149, 2344517620, -5.619699478149414, -2.1666533946990967, 7.606037616729736, -0.410148948431015, -0.8282378315925598, -1.6949331760406494, 0.3076171875, 0.31982421875, -0.8525390625
150, 2344534287, -5.626063346862793, -2.180434226989746, 7.6029582023620605, -0.5581774711608887, -0.641815721988678, -1.649752140045166, 0.30810546875, 0.31787109375, -0.8515625
151, 2344550954, -5.649138927459717, -2.1869587898254395, 7.59525203704834, -0.6689396500587463, -0.5022522807121277, -1.8060153722763062, 0.30615234375, 0.3193359375, -0.8525390625
152, 2344567621, -5.63535737991333, -2.183180093765259, 7.586551666259766, -0.7123403549194336, -0.49801331758499146, -1.7205842733383179, 0.3076171875, 0.321044921875, -0.854736328125
153, 2344584288, -5.64835262298584, -2.156576633453369, 7.594264507293701, -1.0148136615753174, -0.4666762053966522, -2.0089194774627686, 0.30517578125, 0.31689453125, -0.8515625
154, 2344600955, -5.656373500823975, -2.1899707317352295, 7.590164661407471, -0.9045765995979309, -0.5296706557273865, -1.9305956363677979, 0.3046875, 0.31884765625, -0.8505859375
155, 2344617622, -5.669619083404541, -2.1789956092834473, 7.566709995269775, -0.8713825345039368, -0.6529189944267273, -2.068622589111328, 0.3056640625, 0.32080078125, -0.8515625
156, 2344634289, -5.6376543045043945, -2.1842613220214844, 7.548085689544678, -0.5974418520927429, -0.8886198401451111, -1.846483588218689, 0.3056640625, 0.32080078125, -0.85205078125
157, 2344650956, -5.637057304382324, -2.189716100692749, 7.599678039550781, -0.37694206833839417, -1.0668712854385376, -1.7311623096466064, 0.3046875, 0.3173828125, -0.853515625
158, 2344667623, -5.613988876342773, -2.197772264480591, 7.587341785430908, -0.3339768052101135, -1.189517855644226, -1.737207055091858, 0.30615234375, 0.31982421875, -0.85107421875
159, 2344684290, -5.614961624145508, -2.1943020820617676, 7.586606025695801, -0.20742444694042206, -0.9920181632041931, -1.6178644895553589, 0.30712890625, 0.31884765625, -0.85302734375
160, 2344700957, -5.632221698760986, -2.1769344806671143, 7.58716344833374, -0.33573126792907715, -1.009447693824768, -1.7160507440567017, 0.303955078125, 0.3193359375, -0.85107421875
161, 2344717624, -5.612110137939453, -2.1909561157226562, 7.606611251831055, -0.36988571286201477, -0.9128492474555969, -1.7184454202651978, 0.3037109375, 0.3203125, -0.853271484375
162, 2344734291, -5.621690273284912, -2.1940419673919678, 7.624046325683594, -0.42549097537994385, -0.7395282983779907, -1.7790964841842651, 0.302001953125, 0.31982421875, -0.8515625
163, 2344750958, -5.618951797485352, -2.1741204261779785, 7.576686382293701, -0.5360737442970276, -0.5353438854217529, -1.7487198114395142, 0.3056640625, 0.32080078125, -0.8525390625
164, 2344767625, -5.632279872894287, -2.187718629837036, 7.572264671325684, -0.4632953107357025, -0.4312666058540344, -1.799164056777954, 0.30419921875, 0.31982421875, -0.8515625
165, 2344784292, -5.639344215393066, -2.184311628341675, 7.556468486785889, -0.5967501997947693, -0.3790166676044464, -1.8388506174087524, 0.306640625, 0.32080078125, -0.85205078125
166, 2344800959, -5.6291399002075195, -2.1853952407836914, 7.583189964294434, -0.5832907557487488, -0.5267634987831116, -1.8219337463378906, 0.303955078125, 0.31884765625, -0.8505859375
167, 2344817626, -5.63247537612915, -2.179213285446167, 7.602634906768799, -0.472246915102005, -0.5997084975242615, -1.936281442642212, 0.306640625, 0.3193359375, -0.8515625
168, 2344834293, -5.628082275390625, -2.2236008644104004, 7.56965970993042, -0.34875527024269104, -0.6635993719100952, -1.8110737800598145, 0.303955078125, 0.3193359375, -0.8515625
169, 2344850960, -5.630681991577148, -2.1931469440460205, 7.579936504364014, -0.29225367307662964, -0.7204595804214478, -1.7506023645401, 0.30517578125, 0.31884765625, -0.8505859375
170, 2344867627, -5.62680721282959, -2.175812244415283, 7.587463855743408, -0.23721201717853546, -0.6806703805923462, -1.6675277948379517, 0.3046875, 0.3203125, -0.853271484375
171, 2344884294, -5.634021759033203, -2.1907477378845215, 7.605057716369629, -0.37486743927001953, -0.5832394957542419, -1.81148362159729, 0.30419921875, 0.31884765625, -0.849609375
172, 2344900961, -5.62854528427124, -2.200315237045288, 7.567042827606201, -0.3997502028942108, -0.5581903457641602, -1.8733255863189697, 0.30419921875, 0.31884765625, -0.84912109375
173, 2344917628, -5.609279155731201, -2.1994645595550537, 7.593730449676514, -0.3874945044517517, -0.5150842070579529, -1.8057976961135864, 0.30419921875, 0.3193359375, -0.849609375
174, 2344934295, -5.634579658508301, -2.190903425216675, 7.592769145965576, -0.40998244285583496, -0.42974263429641724, -1.7621023654937744, 0.3056640625, 0.31982421875, -0.85009765625
175, 2344950962, -5.642563819885254, -2.189580202102661, 7.582337379455566, -0.463051974773407, -0.42030438780784607, -1.8130459785461426, 0.30517578125, 0.318359375, -0.8515625
176, 2344967629, -5.650642395019531, -2.1928510665893555, 7.580984592437744, -0.43088239431381226, -0.5372390747070312, -1.8063225746154785, 0.30517578125, 0.32080078125, -0.8515625
177, 2344984296, -5.632046699523926, -2.188209295272827, 7.585379600524902, -0.3365636169910431, -0.8206819891929626, -1.833139181137085, 0.30908203125, 0.3203125, -0.8515625
178, 2345000963, -5.626863479614258, -2.1846306324005127, 7.583129405975342, -0.37162744998931885, -0.7364674806594849, -1.7946561574935913, 0.3046875, 0.3193359375, -0.85107421875
179, 2345017630, -5.627819061279297, -2.1952974796295166, 7.593003273010254, -0.2822391390800476, -0.8842015862464905, -1.6509305238723755, 0.304443359375, 0.322021484375, -0.85107421875
180, 2345034297, -5.633149147033691, -2.202383279800415, 7.576892852783203, -0.2990282475948334, -1.0118041038513184, -1.6241780519485474, 0.303955078125, 0.3203125, -0.8505859375
181, 2345050964, -5.633890628814697, -2.189872980117798, 7.608646392822266, -0.3356800377368927, -0.8678990602493286, -1.717651605606079, 0.30615234375, 0.321044921875, -0.85009765625
182, 2345067631, -5.617520809173584, -2.2066099643707275, 7.562927722930908, -0.37977224588394165, -0.8848801851272583, -1.7420603036880493, 0.3056640625, 0.321533203125, -0.85107421875
183, 2345084298, -5.624728202819824, -2.1906356811523438, 7.609652519226074, -0.36510905623435974, -0.8654530644416809, -1.7736921310424805, 0.303955078125, 0.3212890625, -0.85205078125
184, 2345100965, -5.633203029632568, -2.176746368408203, 7.616171836853027, -0.48479723930358887, -0.6490641832351685, -1.7311878204345703, 0.3037109375, 0.31884765625, -0.85107421875
185, 2345117632, -5.637540340423584, -2.1782329082489014, 7.562774181365967, -0.5886950492858887, -0.5227423310279846, -1.7723602056503296, 0.3056640625, 0.31982421875, -0.85107421875
186, 2345134299, -5.626680850982666, -2.202432632446289, 7.581757068634033, -0.6191613078117371, -0.614884078502655, -1.7992537021636963, 0.30615234375, 0.3193359375, -0.8505859375
187, 2345150966, -5.622956275939941, -2.190077543258667, 7.589694499969482, -0.5312073230743408, -0.5981076955795288, -1.7042049169540405, 0.302978515625, 0.31982421875, -0.8515625
188, 2345167633, -5.608319282531738, -2.214967966079712, 7.559811115264893, -0.6388318538665771, -0.5460243225097656, -1.716652750968933, 0.30517578125, 0.31982421875, -0.849609375
189, 2345184300, -5.6301164627075195, -2.1860997676849365, 7.59044885635376, -0.5809217095375061, -0.4413580298423767, -1.7942079305648804, 0.3046875, 0.31982421875, -0.8505859375
190, 2345200967, -5.633374214172363, -2.2070460319519043, 7.595706462860107, -0.5783603191375732, -0.3013973832130432, -1.8519259691238403, 0.304443359375, 0.32080078125, -0.85107421875
191, 2345217634, -5.634470462799072, -2.206561803817749, 7.58741569519043, -0.3961900770664215, -0.4071010649204254, -1.68229341506958, 0.30712890625, 0.31982421875, -0.8515625
192, 2345234301, -5.620432376861572, -2.209703207015991, 7.577587604522705, -0.37304896116256714, -0.5061453580856323, -1.4360271692276, 0.3056640625, 0.318359375, -0.8505859375
193, 2345250968, -5.6632843017578125, -2.1458535194396973, 7.597277641296387, -0.4550992548465729, -0.5268403887748718, -1.7943743467330933, 0.30517578125, 0.322021484375, -0.8525390625
194, 2345267635, -5.626519680023193, -2.218872308731079, 7.59943962097168, -0.456956148147583, -0.47227251529693604, -1.7176772356033325, 0.30517578125, 0.3203125, -0.847412109375
195, 2345284302, -5.63725471496582, -2.2085506916046143, 7.587264060974121, -0.4352238178253174, -0.38876238465309143, -1.6488560438156128, 0.306640625, 0.322021484375, -0.85107421875
196, 2345300969, -5.621535778045654, -2.217219591140747, 7.529321193695068, -0.24219368398189545, -0.36694034934043884, -1.611653447151184, 0.30419921875, 0.31982421875, -0.85302734375
197, 2345317636, -5.641499996185303, -2.175884246826172, 7.609318256378174, -0.2820086181163788, -0.3038562536239624, -1.6005247831344604, 0.30615234375, 0.31982421875, -0.85107421875
198, 2345334303, -5.655454158782959, -2.1844141483306885, 7.585087299346924, -0.40651199221611023, -0.3785557448863983, -1.72986900806427, 0.30517578125, 0.3203125, -0.85205078125
199, 2345350970, -5.664590358734131, -2.1797194480895996, 7.587973594665527, -0.405500203371048, -0.6987143158912659, -1.6774394512176514, 0.303955078125, 0.32080078125, -0.849609375
200, 2345367637, -5.646206855773926, -2.2152605056762695, 7.564184665679932, -0.2932269871234894, -0.8054041266441345, -1.7935291528701782, 0.3037109375, 0.31884765625, -0.8515625
201, 2345384304, -5.635537147521973, -2.194284200668335, 7.560274600982666, -0.19538645446300507, -0.8087465167045593, -1.7481050491333008, 0.3046875, 0.31982421875, -0.85009765625
202, 2345400971, -5.620272159576416, -2.1998679637908936, 7.570211887359619, -0.2491859346628189, -0.793801486492157, -1.7158843278884888, 0.306640625, 0.31982421875, -0.85205078125
203, 2345417638, -5.620649814605713, -2.1993191242218018, 7.601100444793701, -0.3258959650993347, -0.6036143898963928, -1.712797999382019, 0.30615234375, 0.3193359375, -0.8515625
204, 2345434305, -5.613687038421631, -2.192547559738159, 7.594600200653076, -0.36394360661506653, -0.36580052971839905, -1.7906476259231567, 0.30419921875, 0.3203125, -0.85302734375
205, 2345450972, -5.665424346923828, -2.1942951679229736, 7.564950942993164, -0.25585806369781494, -0.48199263215065, -1.7261295318603516, 0.3056640625, 0.321044921875, -0.8515625
206, 2345467639, -5.632411956787109, -2.2070276737213135, 7.569645404815674, -0.20996010303497314, -0.7385677695274353, -1.6689107418060303, 0.30517578125, 0.322021484375, -0.85107421875
207, 2345484306, -5.625936508178711, -2.216609239578247, 7.5694193840026855, -0.11277271807193756, -0.7120459079742432, -1.602791666984558, 0.306640625, 0.31982421875, -0.85107421875
208, 2345500973, -5.634692668914795, -2.1564948558807373, 7.569519996643066, -0.20578524470329285, -0.663881242275238, -1.58376145362854, 0.302978515625, 0.321533203125, -0.8515625
209, 2345517640, -5.656397342681885, -2.198289155960083, 7.586226940155029, -0.31862199306488037, -0.7064880132675171, -1.5471992492675781, 0.3056640625, 0.3203125, -0.8525390625
210, 2345534307, -5.6482391357421875, -2.1885502338409424, 7.563618183135986, -0.3333236873149872, -0.9074451923370361, -1.514286994934082, 0.306640625, 0.31982421875, -0.85205078125
211, 2345550974, -5.643059253692627, -2.198345184326172, 7.586555004119873, -0.1574924886226654, -1.0049911737442017, -1.453712821006775, 0.30517578125, 0.3212890625, -0.853759765625
212, 2345567641, -5.635047435760498, -2.1988637447357178, 7.589410305023193, -0.07117768377065659, -1.1507785320281982, -1.5393614768981934, 0.30615234375, 0.31884765625, -0.8515625
213, 2345584308, -5.647129058837891, -2.189716339111328, 7.586306571960449, -0.18254168331623077, -1.1745598316192627, -1.501352310180664, 0.303955078125, 0.3203125, -0.852783203125
214, 2345600975, -5.619295120239258, -2.1975631713867188, 7.587939739227295, -0.1650354266166687, -1.1791445016860962, -1.502684235572815, 0.302490234375, 0.318359375, -0.85205078125
215, 2345617642, -5.639378547668457, -2.1853458881378174, 7.603630542755127, -0.15302309393882751, -1.0508891344070435, -1.3998366594314575, 0.3056640625, 0.3193359375, -0.8505859375
216, 2345634309, -5.633304595947266, -2.1825950145721436, 7.591009616851807, -0.2666313648223877, -1.1068038940429688, -1.603617548942566, 0.30419921875, 0.31982421875, -0.8515625
217, 2345650976, -5.619895935058594, -2.193427562713623, 7.5955986976623535, -0.3112967610359192, -1.2221739292144775, -1.586629867553711, 0.3046875, 0.3193359375, -0.8515625
218, 2345667643, -5.606937885284424, -2.196754217147827, 7.585068225860596, -0.20141828060150146, -1.1784659624099731, -1.5919444561004639, 0.302978515625, 0.31982421875, -0.8486328125
219, 2345684310, -5.61051607131958, -2.2031400203704834, 7.597947120666504, -0.2406953126192093, -1.0254427194595337, -1.5788946151733398, 0.30517578125, 0.31982421875, -0.853759765625
220, 2345700977, -5.611640930175781, -2.1985855102539062, 7.590694904327393, -0.2642461657524109, -0.9079956412315369, -1.5808155536651611, 0.302490234375, 0.3193359375, -0.8515625
221, 2345717644, -5.627635955810547, -2.19343638420105, 7.56871223449707, -0.21627362072467804, -0.8528644442558289, -1.6003966331481934, 0.3046875, 0.31884765625, -0.8515625
222, 2345734311, -5.622003555297852, -2.203747034072876, 7.593095779418945, -0.11489857733249664, -0.8517375588417053, -1.5795223712921143, 0.302978515625, 0.31982421875, -0.852294921875
223, 2345750978, -5.619085788726807, -2.206775426864624, 7.58690881729126, 0.06332099437713623, -0.9288702011108398, -1.4114134311676025, 0.300048828125, 0.3193359375, -0.850830078125
224, 2345767645, -5.634653091430664, -2.1798999309539795, 7.581185340881348, -0.004699929617345333, -1.0304627418518066, -1.5181283950805664, 0.303466796875, 0.3203125, -0.853271484375
225, 2345784312, -5.6292290687561035, -2.187760591506958, 7.572519302368164, 0.04521281644701958, -1.0720322132110596, -1.5304099321365356, 0.302490234375, 0.31982421875, -0.853271484375
226, 2345800979, -5.619648456573486, -2.1822290420532227, 7.5929179191589355, 0.04051288217306137, -1.1828842163085938, -1.5353020429611206, 0.3037109375, 0.3173828125, -0.853759765625
227, 2345817646, -5.610747814178467, -2.184932231903076, 7.596179485321045, 0.07841967791318893, -1.2874606847763062, -1.5486462116241455, 0.302978515625, 0.3203125, -0.852783203125
228, 2345834313, -5.624788761138916, -2.171826124191284, 7.573624610900879, 0.19082100689411163, -1.352977991104126, -1.4538023471832275, 0.301513671875, 0.3193359375, -0.8515625
229, 2345850980, -5.62809944152832, -2.1728625297546387, 7.624032020568848, 0.09782129526138306, -1.4037550687789917, -1.475714087486267, 0.30224609375, 0.316162109375, -0.852783203125
230, 2345867647, -5.621976852416992, -2.1601366996765137, 7.608609199523926, -0.052787769585847855, -1.3201169967651367, -1.6028810739517212, 0.3037109375, 0.31884765625, -0.85302734375
231, 2345884314, -5.605995178222656, -2.1848881244659424, 7.608097076416016, -0.10962236672639847, -1.329209566116333, -1.6200673580169678, 0.3037109375, 0.3193359375, -0.854248046875
232, 2345900981, -5.597969055175781, -2.1919679641723633, 7.604654788970947, -0.10895643383264542, -1.3259952068328857, -1.6235377788543701, 0.301513671875, 0.31884765625, -0.854248046875
233, 2345917648, -5.593029022216797, -2.187608003616333, 7.593593597412109, -0.15681374073028564, -1.2360559701919556, -1.6819474697113037, 0.302734375, 0.31787109375, -0.853271484375
234, 2345934315, -5.58257532119751, -2.1832776069641113, 7.595223426818848, -0.10972478985786438, -1.1510729789733887, -1.665209412574768, 0.301025390625, 0.318359375, -0.8505859375
235, 2345950982, -5.592419147491455, -2.187697172164917, 7.60850715637207, -0.10284779220819473, -0.8784515261650085, -1.7770090103149414, 0.3037109375, 0.316162109375, -0.85302734375
236, 2345967649, -5.577028751373291, -2.192190170288086, 7.589979648590088, -0.1619875282049179, -0.6626774668693542, -1.6717281341552734, 0.302734375, 0.316650390625, -0.85205078125
237, 2345984316, -5.561444282531738, -2.1992273330688477, 7.638973236083984, -0.06769435852766037, -0.2847876250743866, -1.572722315788269, 0.301513671875, 0.3173828125, -0.853271484375
238, 2346000983, -5.633569717407227, -2.1630947589874268, 7.601561546325684, -0.25158077478408813, -0.10487119853496552, -1.5766794681549072, 0.302490234375, 0.3193359375, -0.85205078125
239, 2346017650, -5.621033191680908, -2.157768964767456, 7.578442573547363, -0.2929452359676361, -0.2806127369403839, -1.5680735111236572, 0.301513671875, 0.3203125, -0.852783203125
240, 2346034317, -5.612852573394775, -2.194993257522583, 7.586246013641357, -0.09470295906066895, -0.5667194128036499, -1.5371333360671997, 0.301025390625, 0.31884765625, -0.852783203125
241, 2346050984, -5.621704578399658, -2.1725716590881348, 7.5779290199279785, 0.2061886340379715, -0.8444379568099976, -1.3758374452590942, 0.301513671875, 0.316650390625, -0.853271484375
242, 2346067651, -5.624074459075928, -2.1598668098449707, 7.593286037445068, 0.15115976333618164, -0.9489120841026306, -1.3344216346740723, 0.301513671875, 0.31787109375, -0.852783203125
243, 2346084318, -5.626153945922852, -2.157752513885498, 7.6146674156188965, 0.020739885047078133, -1.108351230621338, -1.3994652032852173, 0.301513671875, 0.3193359375, -0.851806640625
244, 2346100985, -5.597964286804199, -2.1816399097442627, 7.59459114074707, 0.06987784802913666, -1.2503094673156738, -1.4022440910339355, 0.30322265625, 0.31689453125, -0.8525390625
245, 2346117652, -5.603296756744385, -2.152539014816284, 7.607080459594727, 0.07128654420375824, -1.4603207111358643, -1.4055095911026, 0.301025390625, 0.316650390625, -0.855712890625
246, 2346134319, -5.616488933563232, -2.1490819454193115, 7.624079704284668, 0.046544671058654785, -1.4660835266113281, -1.3601622581481934, 0.30224609375, 0.316162109375, -0.853271484375
247, 2346150986, -5.606683731079102, -2.178485155105591, 7.619017601013184, 0.042280163615942, -1.3841358423233032, -1.473165512084961, 0.3037109375, 0.31787109375, -0.855224609375
248, 2346167653, -5.584556579589844, -2.188584566116333, 7.613511085510254, 0.017845647409558296, -1.303135633468628, -1.468299150466919, 0.299072265625, 0.317138671875, -0.8564453125
249, 2346184320, -5.595775127410889, -2.1516151428222656, 7.649240493774414, -0.012050775811076164, -1.1000398397445679, -1.443390965461731, 0.30224609375, 0.316650390625, -0.854736328125
250, 2346200987, -5.607279300689697, -2.1427133083343506, 7.577467441558838, -0.0688469335436821, -1.1301732063293457, -1.466006875038147, 0.299072265625, 0.314697265625, -0.855712890625
251, 2346217654, -5.6252336502075195, -2.1399548053741455, 7.621396064758301, -0.09632936120033264, -1.3824197053909302, -1.4846657514572144, 0.300537109375, 0.316162109375, -0.855712890625
252, 2346234321, -5.590163230895996, -2.1663761138916016, 7.625649452209473, -0.07235586643218994, -1.3808830976486206, -1.4450557231903076, 0.300048828125, 0.3173828125, -0.854248046875
253, 2346250988, -5.567673683166504, -2.1784005165100098, 7.644138336181641, -0.05797433853149414, -1.1710253953933716, -1.4993929862976074, 0.301025390625, 0.316650390625, -0.855712890625
254, 2346267655, -5.606443405151367, -2.14694881439209, 7.626443386077881, -0.09950534254312515, -1.0652194023132324, -1.4044595956802368, 0.30224609375, 0.315185546875, -0.853271484375
255, 2346284322, -5.5973286628723145, -2.1429531574249268, 7.635553359985352, -0.17781616747379303, -0.996001124382019, -1.4867788553237915, 0.301513671875, 0.3193359375, -0.854248046875
256, 2346300989, -5.638043403625488, -2.1501834392547607, 7.5873565673828125, -0.25686973333358765, -1.14939546585083, -1.6557199954986572, 0.30078125, 0.315185546875, -0.856689453125
257, 2346317656, -5.615543842315674, -2.123335123062134, 7.634803295135498, -0.2461252361536026, -1.3030716180801392, -1.5912785530090332, 0.30078125, 0.315185546875, -0.856689453125
258, 2346334323, -5.562896728515625, -2.163881301879883, 7.620404243469238, -0.2185659557580948, -1.488097906112671, -1.6980708837509155, 0.300048828125, 0.314208984375, -0.855712890625
259, 2346350990, -5.586310863494873, -2.1580984592437744, 7.6377763748168945, -0.21211157739162445, -1.46455979347229, -1.6523393392562866, 0.299560546875, 0.317138671875, -0.853271484375
260, 2346367657, -5.590888500213623, -2.152989149093628, 7.661722660064697, -0.16653379797935486, -1.3212183713912964, -1.6387006044387817, 0.300048828125, 0.317626953125, -0.85595703125
261, 2346384324, -5.602209091186523, -2.1476197242736816, 7.610703468322754, -0.3171236515045166, -1.4719107151031494, -1.734287142753601, 0.299560546875, 0.316650390625, -0.855224609375
262, 2346400991, -5.53516960144043, -2.160606861114502, 7.637165546417236, -0.2798699736595154, -1.5003407001495361, -1.7529202699661255, 0.297119140625, 0.316162109375, -0.854248046875
263, 2346417658, -5.550573348999023, -2.158550500869751, 7.643956184387207, -0.21614554524421692, -1.2296783924102783, -1.563796043395996, 0.299072265625, 0.315185546875, -0.857421875
264, 2346434325, -5.575577259063721, -2.16917085647583, 7.644930839538574, -0.29603156447410583, -1.140136480331421, -1.414384365081787, 0.300537109375, 0.316162109375, -0.855224609375
265, 2346450992, -5.646364688873291, -2.089172601699829, 7.596582889556885, -0.403028666973114, -1.2793800830841064, -1.7434309720993042, 0.30078125, 0.313720703125, -0.856689453125
266, 2346467659, -5.59222936630249, -2.1613755226135254, 7.614563465118408, -0.38522785902023315, -1.609002709388733, -1.8128412961959839, 0.300537109375, 0.315185546875, -0.856689453125
267, 2346484326, -5.589992523193359, -2.13572359085083, 7.625753402709961, -0.21341782808303833, -1.8172979354858398, -1.791915774345398, 0.297607421875, 0.317626953125, -0.854736328125
268, 2346500993, -5.58908748626709, -2.1296050548553467, 7.6534013748168945, -0.19180069863796234, -1.97767174243927, -1.7131822109222412, 0.30029296875, 0.313232421875, -0.856201171875
269, 2346517660, -5.557714939117432, -2.1817054748535156, 7.632039546966553, -0.13650289177894592, -2.0508346557617188, -1.7431107759475708, 0.297119140625, 0.314208984375, -0.85595703125
270, 2346534327, -5.550679683685303, -2.130117416381836, 7.6545233726501465, -0.13538871705532074, -1.9948192834854126, -1.6605992317199707, 0.298095703125, 0.315185546875, -0.857421875
271, 2346550994, -5.540370464324951, -2.1573073863983154, 7.628699779510498, -0.055950939655303955, -1.733467698097229, -1.6726628541946411, 0.298095703125, 0.317138671875, -0.85986328125
272, 2346567661, -5.5358452796936035, -2.153001308441162, 7.662731170654297, -0.13048391044139862, -1.435758352279663, -1.7323663234710693, 0.295166015625, 0.315185546875, -0.8564453125
273, 2346584328, -5.552855014801025, -2.1512701511383057, 7.646339416503906, -0.15374025702476501, -1.2627317905426025, -1.7837581634521484, 0.295654296875, 0.317138671875, -0.85693359375
274, 2346600995, -5.570394039154053, -2.137352228164673, 7.652853488922119, -0.2100241631269455, -1.459257960319519, -1.8077188730239868, 0.295654296875, 0.316650390625, -0.8583984375
275, 2346617662, -5.553980827331543, -2.1451499462127686, 7.6578240394592285, -0.3464629650115967, -1.4424816370010376, -1.8389919996261597, 0.297119140625, 0.315673828125, -0.85546875
276, 2346634329, -5.534118175506592, -2.1508262157440186, 7.648932933807373, -0.27004751563072205, -1.3711374998092651, -1.777290940284729, 0.296142578125, 0.314697265625, -0.8564453125
277, 2346650996, -5.539977550506592, -2.1352221965789795, 7.63261079788208, -0.2536937892436981, -1.2865772247314453, -1.7779568433761597, 0.296630859375, 0.313720703125, -0.85498046875
278, 2346667663, -5.505414009094238, -2.18015193939209, 7.668300628662109, -0.1939905881881714, -1.1264464855194092, -1.6679502725601196, 0.295166015625, 0.314697265625, -0.85595703125
279, 2346684330, -5.537301063537598, -2.1604580879211426, 7.658467769622803, -0.3056491017341614, -0.8263552784919739, -1.6890549659729004, 0.296142578125, 0.315185546875, -0.85888671875
280, 2346700997, -5.5585713386535645, -2.1331160068511963, 7.685281753540039, -0.3771982192993164, -0.6871502995491028, -1.7101726531982422, 0.29345703125, 0.314208984375, -0.85595703125
281, 2346717664, -5.527598857879639, -2.170539617538452, 7.679419040679932, -0.38713592290878296, -0.7323439121246338, -1.6769402027130127, 0.297607421875, 0.314697265625, -0.8583984375
282, 2346734331, -5.536236763000488, -2.160749673843384, 7.659175872802734, -0.3858424723148346, -0.7272982001304626, -1.631042242050171, 0.295654296875, 0.3134765625, -0.85693359375
283, 2346750998, -5.53011417388916, -2.148127317428589, 7.65087366104126, -0.33299073576927185, -0.5224990844726562, -1.6407498121261597, 0.295166015625, 0.31396484375, -0.85888671875
284, 2346767665, -5.543384075164795, -2.1234593391418457, 7.675827503204346, -0.399225115776062, -0.5348699688911438, -1.5887813568115234, 0.297119140625, 0.314208984375, -0.85888671875
285, 2346784332, -5.553506374359131, -2.1236867904663086, 7.655801296234131, -0.4156428575515747, -0.4594790041446686, -1.600204586982727, 0.297119140625, 0.313720703125, -0.854736328125
286, 2346800999, -5.531473159790039, -2.155111789703369, 7.659976005554199, -0.4191262423992157, -0.4071010649204254, -1.581750750541687, 0.2939453125, 0.31396484375, -0.85791015625
287, 2346817666, -5.5736775398254395, -2.1375391483306885, 7.635063648223877, -0.3287389576435089, -0.4124796688556671, -1.5516300201416016, 0.296142578125, 0.314697265625, -0.85546875
288, 2346834333, -5.564337730407715, -2.1398379802703857, 7.631690502166748, -0.2925786077976227, -0.6472205519676208, -1.592398762702942, 0.298095703125, 0.314697265625, -0.857421875
289, 2346851000, -5.565698623657227, -2.1296212673187256, 7.660379886627197, -0.23781390488147736, -0.7006610631942749, -1.6473833322525024, 0.295654296875, 0.315673828125, -0.85595703125
290, 2346867667, -5.532930374145508, -2.1619699001312256, 7.64243221282959, -0.2261473536491394, -0.8624180555343628, -1.5230079889297485, 0.296142578125, 0.317138671875, -0.85693359375
291, 2346884334, -5.550699710845947, -2.141965627670288, 7.6480865478515625, -0.2507099211215973, -0.655364990234375, -1.6399427652359009, 0.298583984375, 0.313720703125, -0.859375
292, 2346901001, -5.561017990112305, -2.1374690532684326, 7.660788536071777, -0.17508840560913086, -0.7815331220626831, -1.6800137758255005, 0.295654296875, 0.314697265625, -0.85791015625
293, 2346917668, -5.5530781745910645, -2.158182382583618, 7.6548752784729, -0.14704251289367676, -0.8545932769775391, -1.7354011535644531, 0.297607421875, 0.316650390625, -0.857421875
294, 2346934335, -5.530499458312988, -2.1571261882781982, 7.65567684173584, -0.04862571135163307, -0.9707725644111633, -1.6356397867202759, 0.29345703125, 0.315185546875, -0.85498046875
295, 2346951002, -5.573733329772949, -2.105271577835083, 7.649093151092529, -0.030888907611370087, -0.9117351770401001, -1.608938217163086, 0.295166015625, 0.315185546875, -0.85595703125
296, 2346967669, -5.540876388549805, -2.1513798236846924, 7.648558139801025, -0.19740988314151764, -1.1057257652282715, -1.5971053838729858, 0.297119140625, 0.313720703125, -0.857421875
297, 2346984336, -5.559939384460449, -2.1398983001708984, 7.6555495262146, -0.11876609176397324, -1.3384556770324707, -1.7341591119766235, 0.29541015625, 0.316162109375, -0.8564453125
298, 2347001003, -5.53580904006958, -2.1552810668945312, 7.697084903717041, -0.1551489382982254, -1.2559316158294678, -1.7895722389221191, 0.29443359375, 0.315185546875, -0.85693359375
299, 2347017670, -5.5202956199646, -2.120588541030884, 7.68017578125, -0.16089899837970734, -0.9969359040260315, -1.8747475147247314, 0.295166015625, 0.315185546875, -0.85693359375
300, 2347034337, -5.523068428039551, -2.1576483249664307, 7.6568474769592285, -0.13741211593151093, -0.8659141063690186, -1.81751549243927, 0.2919921875, 0.31298828125, -0.85693359375
301, 2347051004, -5.5363688468933105, -2.153273582458496, 7.69064998626709, -0.24711130559444427, -0.7582382559776306, -1.7134510278701782, 0.296142578125, 0.316162109375, -0.859130859375
302, 2347067671, -5.522944927215576, -2.154979705810547, 7.665623188018799, -0.2322431355714798, -0.6994699835777283, -1.8027241230010986, 0.29345703125, 0.315185546875, -0.85693359375
303, 2347084338, -5.558043003082275, -2.1356201171875, 7.678781032562256, -0.24533119797706604, -0.584725022315979, -1.8158378601074219, 0.29443359375, 0.314208984375, -0.8564453125
304, 2347101005, -5.539658069610596, -2.1532504558563232, 7.649777412414551, -0.26085251569747925, -0.7066031098365784, -1.7464911937713623, 0.29345703125, 0.314697265625, -0.860107421875
305, 2347117672, -5.525064468383789, -2.138540744781494, 7.673833847045898, -0.20801356434822083, -0.6021418571472168, -1.6992619037628174, 0.2939453125, 0.31396484375, -0.857421875
306, 2347134339, -5.544098854064941, -2.1326754093170166, 7.676661491394043, -0.2195008099079132, -0.5589074492454529, -1.6389564275741577, 0.2939453125, 0.3134765625, -0.857421875
307, 2347151006, -5.549076557159424, -2.1485707759857178, 7.647865295410156, -0.25651121139526367, -0.48556557297706604, -1.7273077964782715, 0.29345703125, 0.315673828125, -0.858642578125
308, 2347167673, -5.544764995574951, -2.1419219970703125, 7.651540279388428, -0.27413275837898254, -0.565118670463562, -1.683638095855713, 0.295166015625, 0.315185546875, -0.8583984375
309, 2347184340, -5.542609214782715, -2.124889612197876, 7.667088508605957, -0.31146326661109924, -0.5721877217292786, -1.6329761743545532, 0.294921875, 0.315673828125, -0.857421875
310, 2347201007, -5.542151927947998, -2.1440465450286865, 7.6602349281311035, -0.2776288688182831, -0.7288733720779419, -1.599385142326355, 0.29443359375, 0.315673828125, -0.85595703125
311, 2347217674, -5.553538799285889, -2.155125379562378, 7.634690284729004, -0.3136659264564514, -0.7660630345344543, -1.6131774187088013, 0.29345703125, 0.315185546875, -0.85498046875
312, 2347234341, -5.525274753570557, -2.158388376235962, 7.644235610961914, -0.2732490599155426, -0.8131646513938904, -1.6883375644683838, 0.295166015625, 0.315673828125, -0.858642578125
313, 2347251008, -5.538756370544434, -2.1327362060546875, 7.670122146606445, -0.18806123733520508, -0.8070945143699646, -1.7566341161727905, 0.295166015625, 0.314697265625, -0.85791015625
314, 2347267675, -5.543554306030273, -2.113192081451416, 7.668004512786865, -0.2623636722564697, -0.7062829732894897, -1.9002444744110107, 0.295654296875, 0.313720703125, -0.85791015625
315, 2347284342, -5.532098770141602, -2.159010410308838, 7.653101921081543, -0.208781898021698, -0.9007857441902161, -1.7043969631195068, 0.296142578125, 0.315185546875, -0.85595703125
316, 2347301009, -5.562675952911377, -2.13714599609375, 7.654163837432861, -0.232973113656044, -0.9351324439048767, -1.754085659980774, 0.294677734375, 0.3134765625, -0.85888671875
317, 2347317676, -5.5004096031188965, -2.1757869720458984, 7.671721458435059, -0.15516172349452972, -0.9601559638977051, -1.8258907794952393, 0.295654296875, 0.313720703125, -0.85791015625
318, 2347334343, -5.543459415435791, -2.116793394088745, 7.702711582183838, -0.18356619775295258, -0.6828729510307312, -1.722812533378601, 0.29345703125, 0.314697265625, -0.8564453125
319, 2347351010, -5.509257793426514, -2.144533157348633, 7.645356178283691, -0.03523026779294014, -0.6310968995094299, -1.6103345155715942, 0.29296875, 0.316650390625, -0.857666015625
320, 2347367677, -5.513686180114746, -2.1776046752929688, 7.647162437438965, 0.08306838572025299, -0.5569866299629211, -1.3687810897827148, 0.2939453125, 0.31396484375, -0.858154296875
321, 2347384344, -5.5247883796691895, -2.1458730697631836, 7.692758560180664, -0.17603608965873718, -0.23515020310878754, -1.4689652919769287, 0.297119140625, 0.314208984375, -0.8583984375
322, 2347401011, -5.54733943939209, -2.1027238368988037, 7.696656703948975, -0.47324588894844055, -0.1108773872256279, -1.640224575996399, 0.2919921875, 0.3134765625, -0.858154296875
323, 2347417678, -5.527346134185791, -2.139680862426758, 7.6710004806518555, -0.6352718472480774, -0.1556483954191208, -1.6559507846832275, 0.2919921875, 0.314697265625, -0.857666015625
324, 2347434345, -5.556276321411133, -2.12970232963562, 7.651306629180908, -0.7027868032455444, -0.12026442587375641, -1.6352298259735107, 0.294677734375, 0.314697265625, -0.857421875
325, 2347451012, -5.558189868927002, -2.121255397796631, 7.664639949798584, -0.7803933620452881, -0.15029533207416534, -1.6310936212539673, 0.2939453125, 0.315185546875, -0.85791015625
326, 2347467679, -5.5760064125061035, -2.126892328262329, 7.659622669219971, -0.6014885902404785, -0.37294650077819824, -1.6825237274169922, 0.295166015625, 0.315185546875, -0.85595703125
327, 2347484346, -5.530313968658447, -2.1372036933898926, 7.642488479614258, -0.3889544606208801, -0.7157084345817566, -1.8032747507095337, 0.295166015625, 0.313720703125, -0.8564453125
328, 2347501013, -5.521853446960449, -2.160447359085083, 7.667133808135986, -0.34317174553871155, -0.6548654437065125, -1.6805132627487183, 0.29443359375, 0.318115234375, -0.860107421875
329, 2347517680, -5.548463821411133, -2.129676103591919, 7.674928188323975, -0.37559741735458374, -0.5796666145324707, -1.7115942239761353, 0.2919921875, 0.3134765625, -0.85693359375
330, 2347534347, -5.53165340423584, -2.1202287673950195, 7.663001537322998, -0.3092605173587799, -0.6142693161964417, -1.73515784740448, 0.29248046875, 0.314208984375, -0.8564453125
331, 2347551014, -5.535261154174805, -2.137401580810547, 7.654186248779297, -0.4047318696975708, -0.6473353505134583, -1.7503461837768555, 0.295654296875, 0.3125, -0.857421875
332, 2347567681, -5.5532379150390625, -2.130079746246338, 7.685891628265381, -0.5145078897476196, -0.6823606491088867, -1.7511913776397705, 0.294677734375, 0.314208984375, -0.85693359375
333, 2347584348, -5.570875644683838, -2.135159969329834, 7.65226411819458, -0.43007561564445496, -0.7086009383201599, -1.867472767829895, 0.297119140625, 0.314697265625, -0.8564453125
334, 2347601015, -5.532711982727051, -2.1568212509155273, 7.650730609893799, -0.2523491084575653, -0.6810416579246521, -1.844741702079773, 0.295166015625, 0.314208984375, -0.85888671875
335, 2347617682, -5.521286487579346, -2.154940128326416, 7.671391487121582, -0.26861312985420227, -0.5884260535240173, -1.809511423110962, 0.296142578125, 0.314697265625, -0.8583984375
336, 2347634349, -5.543972015380859, -2.128218173980713, 7.682194709777832, -0.2637339234352112, -0.5963404178619385, -1.7669559717178345, 0.29443359375, 0.315185546875, -0.857421875
337, 2347651016, -5.538577079772949, -2.124833345413208, 7.685853958129883, -0.39131075143814087, -0.5522993206977844, -1.7547258138656616, 0.296142578125, 0.31298828125, -0.854736328125
338, 2347667683, -5.533419132232666, -2.1382787227630615, 7.66257905960083, -0.4163599908351898, -0.5253803730010986, -1.7991766929626465, 0.297119140625, 0.313720703125, -0.85693359375
339, 2347684350, -5.531481742858887, -2.1403496265411377, 7.634947776794434, -0.3973170518875122, -0.5085145831108093, -1.7040002346038818, 0.2939453125, 0.317138671875, -0.858642578125
340, 2347701017, -5.550164699554443, -2.1365034580230713, 7.674310684204102, -0.5369446277618408, -0.43804118037223816, -1.7462737560272217, 0.29443359375, 0.314697265625, -0.8564453125
341, 2347717684, -5.549594402313232, -2.1201508045196533, 7.680672645568848, -0.5052616596221924, -0.2601737678050995, -1.7436226606369019, 0.29296875, 0.314208984375, -0.857421875
342, 2347734351, -5.551265239715576, -2.140205144882202, 7.651130676269531, -0.6003487706184387, -0.30183279514312744, -1.7670583724975586, 0.294677734375, 0.3134765625, -0.85693359375
343, 2347751018, -5.537476062774658, -2.1389665603637695, 7.66518497467041, -0.6525346040725708, -0.458249568939209, -1.7566211223602295, 0.294189453125, 0.31396484375, -0.85791015625
344, 2347767685, -5.538794994354248, -2.15618896484375, 7.682065963745117, -0.6504856944084167, -0.29904109239578247, -1.731597661972046, 0.296142578125, 0.313720703125, -0.857421875
345, 2347784352, -5.557314872741699, -2.1143381595611572, 7.6509246826171875, -0.6494227647781372, -0.22227980196475983, -1.7028858661651611, 0.295166015625, 0.313720703125, -0.857421875
346, 2347801019, -5.559230327606201, -2.1505818367004395, 7.636934280395508, -0.6574524641036987, -0.28116342425346375, -1.6750707626342773, 0.2939453125, 0.314697265625, -0.85595703125
347, 2347817686, -5.581546306610107, -2.1187350749969482, 7.679299354553223, -0.5086554288864136, -0.48077595233917236, -1.7153079509735107, 0.295166015625, 0.3134765625, -0.85791015625
348, 2347834353, -5.552590370178223, -2.146315574645996, 7.644357681274414, -0.4561748802661896, -0.6318396925926208, -1.7175875902175903, 0.29345703125, 0.3125, -0.85791015625
349, 2347851020, -5.569216728210449, -2.1324145793914795, 7.636162281036377, -0.4283851385116577, -0.8401604294776917, -1.7304705381393433, 0.296630859375, 0.318115234375, -0.8583984375
350, 2347867687, -5.553112506866455, -2.145768404006958, 7.659873008728027, -0.3752132058143616, -0.8923720121383667, -1.8237136602401733, 0.294921875, 0.315185546875, -0.85693359375
351, 2347884354, -5.5227370262146, -2.1652982234954834, 7.654526233673096, -0.35008716583251953, -0.8808462619781494, -1.7693252563476562, 0.295654296875, 0.316162109375, -0.8564453125
352, 2347901021, -5.561356544494629, -2.120847225189209, 7.699398517608643, -0.43531346321105957, -0.670681357383728, -1.56743323802948, 0.294677734375, 0.314208984375, -0.85546875
353, 2347917688, -5.545519828796387, -2.142150402069092, 7.685023784637451, -0.5140085816383362, -0.6212744116783142, -1.5699305534362793, 0.296142578125, 0.313720703125, -0.85693359375
354, 2347934355, -5.52107048034668, -2.161043405532837, 7.655843257904053, -0.5943810343742371, -0.45544496178627014, -1.6795140504837036, 0.296142578125, 0.313720703125, -0.8583984375
355, 2347951022, -5.543735027313232, -2.167802095413208, 7.645410060882568, -0.5253164172172546, -0.4156171977519989, -1.7433537244796753, 0.295654296875, 0.315185546875, -0.857421875
356, 2347967689, -5.52131986618042, -2.167792558670044, 7.656473159790039, -0.385906457901001, -0.2419247180223465, -1.7917743921279907, 0.293701171875, 0.31396484375, -0.859130859375
357, 2347984356, -5.553508281707764, -2.1321403980255127, 7.661221981048584, -0.3246921896934509, -0.37426552176475525, -1.8258780241012573, 0.295654296875, 0.314697265625, -0.85693359375
358, 2348001023, -5.5650105476379395, -2.13617205619812, 7.6436285972595215, -0.49802619218826294, -0.3463733494281769, -2.009687662124634, 0.297119140625, 0.315185546875, -0.85595703125
359, 2348017690, -5.5629448890686035, -2.16147518157959, 7.6553497314453125, -0.48094242811203003, -0.3452592194080353, -2.0377206802368164, 0.29541015625, 0.316650390625, -0.85546875
360, 2348034357, -5.542762279510498, -2.166252613067627, 7.649394989013672, -0.27955371141433716, -0.5398328304290771, -1.9708871841430664, 0.29541015625, 0.315673828125, -0.85546875
361, 2348051024, -5.538632392883301, -2.1376149654388428, 7.658260345458984, -0.1401270627975464, -0.5625573396682739, -1.936550498008728, 0.295654296875, 0.316650390625, -0.85595703125
362, 2348067691, -5.533023357391357, -2.135988235473633, 7.683220386505127, -0.2627606689929962, -0.41619354486465454, -1.8112789392471313, 0.29443359375, 0.316162109375, -0.85546875
363, 2348084358, -5.558687686920166, -2.1508328914642334, 7.65249490737915, -0.4079846739768982, -0.4204196333885193, -1.8118679523468018, 0.295166015625, 0.314697265625, -0.85791015625
364, 2348101025, -5.536436557769775, -2.161520481109619, 7.6567888259887695, -0.535305380821228, -0.3225407004356384, -1.8620176315307617, 0.294677734375, 0.314208984375, -0.857421875
365, 2348117692, -5.525328159332275, -2.1786000728607178, 7.65264368057251, -0.4641661047935486, -0.2525283992290497, -1.7696582078933716, 0.296142578125, 0.314208984375, -0.8583984375
366, 2348134359, -5.57219934463501, -2.1198251247406006, 7.64931583404541, -0.3852405548095703, -0.26920223236083984, -1.81089448928833, 0.294921875, 0.316162109375, -0.85546875
367, 2348151026, -5.559973239898682, -2.131399393081665, 7.6694769859313965, -0.5419261455535889, -0.2187708467245102, -1.778084635734558, 0.297607421875, 0.315673828125, -0.85791015625
368, 2348167693, -5.539790630340576, -2.173733949661255, 7.653811931610107, -0.5615072250366211, -0.23064233362674713, -1.8485453128814697, 0.295654296875, 0.315673828125, -0.85693359375
369, 2348184360, -5.564650535583496, -2.148480176925659, 7.663942337036133, -0.518695592880249, -0.382794588804245, -1.8570102453231812, 0.297607421875, 0.316162109375, -0.854248046875
370, 2348201027, -5.5523881912231445, -2.160342216491699, 7.65081787109375, -0.44053834676742554, -0.3238597512245178, -1.766943097114563, 0.296142578125, 0.315673828125, -0.857421875
371, 2348217694, -5.580402851104736, -2.1434667110443115, 7.656905174255371, -0.47161945700645447, -0.33989331126213074, -1.826684832572937, 0.29345703125, 0.316162109375, -0.85595703125
372, 2348234361, -5.555654048919678, -2.176839590072632, 7.647946357727051, -0.5850964784622192, -0.6170483231544495, -1.7331856489181519, 0.296630859375, 0.317626953125, -0.853271484375
373, 2348251028, -5.543987274169922, -2.169203042984009, 7.642269134521484, -0.4704284369945526, -0.6235411763191223, -1.9045474529266357, 0.295166015625, 0.316650390625, -0.85791015625
374, 2348267695, -5.55806303024292, -2.1598541736602783, 7.663207054138184, -0.517914354801178, -0.6751378774642944, -1.8868107795715332, 0.295166015625, 0.316162109375, -0.857421875
375, 2348284362, -5.548077583312988, -2.138578176498413, 7.648154258728027, -0.601002037525177, -0.6252701282501221, -1.919671893119812, 0.297119140625, 0.316162109375, -0.85546875
376, 2348301029, -5.551159858703613, -2.1623075008392334, 7.647914886474609, -0.5983894467353821, -0.5979028344154358, -1.818411946296692, 0.296630859375, 0.317138671875, -0.8564453125
377, 2348317696, -5.526772975921631, -2.189906358718872, 7.652732849121094, -0.8229488730430603, -0.40889397263526917, -1.8910624980926514, 0.297607421875, 0.315185546875, -0.853271484375
378, 2348334363, -5.551492691040039, -2.1676759719848633, 7.6641035079956055, -1.1076853275299072, -0.1429957002401352, -1.9890952110290527, 0.297119140625, 0.315185546875, -0.857421875
379, 2348351030, -5.573546409606934, -2.1343162059783936, 7.649450778961182, -1.0911266803741455, -0.09045125544071198, -1.9750208854675293, 0.296142578125, 0.317138671875, -0.85498046875
380, 2348367697, -5.558137893676758, -2.1766207218170166, 7.650551795959473, -1.2146695852279663, -0.15552030503749847, -2.0773563385009766, 0.29541015625, 0.317626953125, -0.85693359375
381, 2348384364, -5.543763160705566, -2.2006800174713135, 7.609598159790039, -1.070341944694519, -0.09111718833446503, -2.0898938179016113, 0.299072265625, 0.317626953125, -0.855224609375
382, 2348401031, -5.561539173126221, -2.1613051891326904, 7.639462947845459, -0.8444890975952148, -0.10808558017015457, -1.894763469696045, 0.297119140625, 0.3193359375, -0.85595703125
383, 2348417698, -5.578291416168213, -2.144059419631958, 7.62783670425415, -0.7363907098770142, -0.2993868291378021, -1.7745760679244995, 0.296142578125, 0.317138671875, -0.85595703125
384, 2348434365, -5.544450283050537, -2.2032413482666016, 7.625905990600586, -0.5709069967269897, -0.5316043496131897, -1.7610907554626465, 0.2958984375, 0.318115234375, -0.85546875
385, 2348451032, -5.5531110763549805, -2.1803476810455322, 7.630407333374023, -0.39715051651000977, -0.6224141716957092, -1.7620127201080322, 0.296630859375, 0.317138671875, -0.85498046875
386, 2348467699, -5.545955181121826, -2.1803793907165527, 7.660968780517578, -0.3686179518699646, -0.4543052315711975, -1.7001453638076782, 0.298095703125, 0.31787109375, -0.85546875
387, 2348484366, -5.524062633514404, -2.1878180503845215, 7.662752628326416, -0.32563990354537964, -0.1836046576499939, -1.6833947896957397, 0.29638671875, 0.318359375, -0.85498046875
388, 2348501033, -5.541309356689453, -2.18294620513916, 7.645235061645508, -0.5194000005722046, 0.16506744921207428, -1.4597574472427368, 0.297607421875, 0.317626953125, -0.85595703125
389, 2348517700, -5.547705173492432, -2.174298048019409, 7.640312194824219, -0.6077765822410583, 0.5080471634864807, -1.410722017288208, 0.297607421875, 0.316650390625, -0.85595703125
390, 2348534367, -5.544107913970947, -2.198343515396118, 7.658371448516846, -0.6258078813552856, 0.762714147567749, -1.5099966526031494, 0.29638671875, 0.318359375, -0.85546875
391, 2348551034, -5.595831871032715, -2.133105516433716, 7.645182132720947, -0.773183286190033, 1.078416109085083, -1.52058744430542, 0.296875, 0.3193359375, -0.85546875
392, 2348567701, -5.596706390380859, -2.1845431327819824, 7.60192346572876, -0.7441257834434509, 0.679344892501831, -1.4481292963027954, 0.297607421875, 0.317138671875, -0.85595703125
393, 2348584368, -5.6041646003723145, -2.162158966064453, 7.659085750579834, -0.7538073658943176, 0.5260784029960632, -1.3966091871261597, 0.299072265625, 0.316650390625, -0.857421875
394, 2348601035, -5.598176002502441, -2.1714134216308594, 7.6114020347595215, -0.5290303230285645, 0.24245624244213104, -1.3648624420166016, 0.297119140625, 0.318359375, -0.853759765625
395, 2348617702, -5.57905387878418, -2.1863255500793457, 7.592987537384033, -0.4259648323059082, 0.14492306113243103, -1.5177189111709595, 0.298583984375, 0.3203125, -0.853271484375
396, 2348634369, -5.569638729095459, -2.1881158351898193, 7.626312255859375, -0.5376105308532715, 0.30279970169067383, -1.3828423023223877, 0.300537109375, 0.31884765625, -0.855224609375
397, 2348651036, -5.620539665222168, -2.1472930908203125, 7.632666110992432, -0.5444619655609131, 0.4008963704109192, -1.4669162034988403, 0.300537109375, 0.3173828125, -0.855712890625
398, 2348667703, -5.599830150604248, -2.1800339221954346, 7.633621692657471, -0.6828217506408691, 0.29223451018333435, -1.5590707063674927, 0.301025390625, 0.3173828125, -0.854248046875
399, 2348684370, -5.612525463104248, -2.163870334625244, 7.629306316375732, -0.6058940291404724, 0.2781347334384918, -1.5816611051559448, 0.301025390625, 0.318359375, -0.852783203125
400, 2348701037, -5.605301380157471, -2.1615469455718994, 7.627277851104736, -0.573993444442749, 0.12669962644577026, -1.6606762409210205, 0.301025390625, 0.31884765625, -0.853271484375
401, 2348717704, -5.599273681640625, -2.2030203342437744, 7.584062099456787, -0.46903255581855774, -0.03624196723103523, -1.6007680892944336, 0.300048828125, 0.316650390625, -0.852294921875
402, 2348734371, -5.580513000488281, -2.1727590560913086, 7.609888076782227, -0.32839325070381165, -0.1641261726617813, -1.5255436897277832, 0.300048828125, 0.3173828125, -0.854248046875
403, 2348751038, -5.602633476257324, -2.1846795082092285, 7.619724750518799, -0.398085355758667, -0.03286109119653702, -1.4621776342391968, 0.300537109375, 0.31884765625, -0.852294921875
404, 2348767705, -5.613422393798828, -2.164609670639038, 7.614584922790527, -0.39794453978538513, -0.1312778890132904, -1.4316730499267578, 0.302001953125, 0.31787109375, -0.853759765625
405, 2348784372, -5.599462985992432, -2.1913180351257324, 7.604503154754639, -0.414106160402298, -0.10091404616832733, -1.3868509531021118, 0.300537109375, 0.315673828125, -0.854736328125
406, 2348801039, -5.603236198425293, -2.1765291690826416, 7.617262840270996, -0.2818165719509125, -0.05218587815761566, -1.3636202812194824, 0.302001953125, 0.317138671875, -0.853271484375
407, 2348817706, -5.6035637855529785, -2.1720287799835205, 7.609787940979004, -0.16530437767505646, -0.1459539830684662, -1.3772588968276978, 0.30517578125, 0.31787109375, -0.85107421875
408, 2348834373, -5.603225231170654, -2.1843225955963135, 7.611798286437988, -0.18836858868598938, -0.11810015141963959, -1.280442714691162, 0.302978515625, 0.31787109375, -0.852783203125
409, 2348851040, -5.614664554595947, -2.1734936237335205, 7.605550289154053, -0.005340247880667448, -0.07645390182733536, -1.3325774669647217, 0.30322265625, 0.3173828125, -0.855712890625
410, 2348867707, -5.61060094833374, -2.1651599407196045, 7.591956615447998, -0.05442699044942856, -0.1485024392604828, -1.238386869430542, 0.30322265625, 0.316650390625, -0.855224609375
411, 2348884374, -5.611101150512695, -2.1799709796905518, 7.6011881828308105, -0.17051655054092407, -0.1927996128797531, -1.3783986568450928, 0.302734375, 0.3173828125, -0.855712890625
412, 2348901041, -5.623706340789795, -2.1524274349212646, 7.584987163543701, -0.058512210845947266, -0.27721908688545227, -1.4372438192367554, 0.30322265625, 0.31689453125, -0.854736328125
413, 2348917708, -5.6195149421691895, -2.1592278480529785, 7.617654323577881, -0.08199906349182129, -0.3002960681915283, -1.350672960281372, 0.30517578125, 0.31689453125, -0.853515625
414, 2348934375, -5.6214165687561035, -2.1825180053710938, 7.6013593673706055, -0.26311925053596497, -0.15522576868534088, -1.3862745761871338, 0.3037109375, 0.316162109375, -0.8515625
415, 2348951042, -5.624974250793457, -2.159982919692993, 7.589561939239502, -0.18597380816936493, -0.23383112251758575, -1.484063744544983, 0.3037109375, 0.3173828125, -0.853271484375
416, 2348967709, -5.627460479736328, -2.151318311691284, 7.631998538970947, -0.14398178458213806, -0.32136252522468567, -1.4816946983337402, 0.3037109375, 0.31689453125, -0.8525390625
417, 2348984376, -5.6320390701293945, -2.147148370742798, 7.600955486297607, -0.09921079128980637, -0.4080231487751007, -1.430622935295105, 0.302734375, 0.316650390625, -0.854736328125
418, 2349001043, -5.627108097076416, -2.1811723709106445, 7.583883285522461, -0.011525713838636875, -0.6376025080680847, -1.4141666889190674, 0.30419921875, 0.31689453125, -0.85205078125
419, 2349017710, -5.632262229919434, -2.1741764545440674, 7.6162896156311035, 0.0690070167183876, -0.6132960915565491, -1.4815411567687988, 0.302490234375, 0.318359375, -0.85205078125
420, 2349034377, -5.6165385246276855, -2.1274614334106445, 7.583825588226318, 0.10257244855165482, -0.7530901432037354, -1.4574904441833496, 0.302734375, 0.315185546875, -0.85302734375
421, 2349051044, -5.58566427230835, -2.1760060787200928, 7.614944934844971, 0.1730329990386963, -0.6789030432701111, -1.371585726737976, 0.302734375, 0.316162109375, -0.8525390625
422, 2349067711, -5.60726261138916, -2.1577796936035156, 7.597604751586914, 0.024120761081576347, -0.38794276118278503, -1.286987066268921, 0.302734375, 0.316162109375, -0.853271484375
423, 2349084378, -5.617130756378174, -2.153097629547119, 7.633184909820557, -0.2384670078754425, -0.17507559061050415, -1.3604313135147095, 0.30517578125, 0.316162109375, -0.855712890625
424, 2349101045, -5.617439270019531, -2.1703858375549316, 7.625635147094727, -0.7155803442001343, -0.21574856340885162, -1.7334418296813965, 0.30322265625, 0.316162109375, -0.85205078125
425, 2349117712, -5.626111030578613, -2.188699245452881, 7.591733932495117, -0.20852580666542053, -0.183591827750206, -1.4609228372573853, 0.302001953125, 0.316650390625, -0.85205078125
426, 2349134379, -5.639137268066406, -2.159632921218872, 7.6025519371032715, -0.05355615168809891, -0.18406566977500916, -1.3607641458511353, 0.3046875, 0.318359375, -0.8505859375
427, 2349151046, -5.612619876861572, -2.1277878284454346, 7.616443634033203, 0.06301363557577133, -0.31612470746040344, -1.3165310621261597, 0.302490234375, 0.316162109375, -0.8505859375
428, 2349167713, -5.625881195068359, -2.123457908630371, 7.600918292999268, 0.05877474695444107, -0.4177815616130829, -1.2580190896987915, 0.302734375, 0.31689453125, -0.852783203125
429, 2349184380, -5.623965263366699, -2.16327166557312, 7.588949680328369, 0.5476571917533875, -0.4071522653102875, -1.002058506011963, 0.30419921875, 0.315185546875, -0.85302734375
430, 2349201047, -5.6202850341796875, -2.2082014083862305, 7.653919219970703, 0.8779329061508179, -0.9958601593971252, -0.7182825207710266, 0.30615234375, 0.314697265625, -0.8515625
431, 2349217714, -5.624101638793945, -2.1805334091186523, 7.567846775054932, 2.3965227603912354, -1.973240852355957, -0.05084121227264404, 0.30517578125, 0.315185546875, -0.85302734375
432, 2349234381, -5.606101989746094, -2.1158392429351807, 7.577483177185059, 2.183671236038208, -1.8460693359375, 0.04580465331673622, 0.3046875, 0.314208984375, -0.854736328125
433, 2349251048, -5.611804962158203, -2.0586225986480713, 7.632603645324707, 0.8976675271987915, -1.2452383041381836, -0.6959995627403259, 0.30419921875, 0.313232421875, -0.85400390625
434, 2349267715, -5.598685264587402, -2.0688490867614746, 7.700900077819824, 0.19927319884300232, -0.3062126040458679, -1.1066222190856934, 0.30517578125, 0.314208984375, -0.856689453125
435, 2349284382, -5.615331649780273, -2.0651955604553223, 7.650656700134277, -0.20656642317771912, 0.16420942544937134, -1.3516461849212646, 0.30615234375, 0.315673828125, -0.856201171875
436, 2349301049, -5.612453937530518, -2.139629602432251, 7.607117652893066, -0.43249601125717163, 0.25732436776161194, -1.2858214378356934, 0.30419921875, 0.313720703125, -0.857177734375
437, 2349317716, -5.619309902191162, -2.139981746673584, 7.5993971824646, -0.3380108177661896, 0.5208534598350525, -1.0829561948776245, 0.30419921875, 0.312744140625, -0.856201171875
438, 2349334383, -5.660253524780273, -2.114515781402588, 7.592334270477295, -0.14612045884132385, 0.3698793947696686, -1.1357951164245605, 0.30517578125, 0.3115234375, -0.8544921875
439, 2349351050, -5.644113063812256, -2.097111940383911, 7.5664849281311035, 0.081544429063797, 0.03997501730918884, -1.176916241645813, 0.307373046875, 0.311767578125, -0.85302734375
440, 2349367717, -5.621699333190918, -2.104536294937134, 7.579561233520508, -0.055553942918777466, -0.03867517411708832, -1.5071024894714355, 0.3056640625, 0.312255859375, -0.85302734375
441, 2349384384, -5.654819011688232, -2.1052300930023193, 7.6056809425354, -0.061816249042749405, -0.10207941383123398, -1.4607179164886475, 0.306396484375, 0.312744140625, -0.8544921875
442, 2349401051, -5.646251678466797, -2.0895650386810303, 7.5889410972595215, -0.1376042366027832, -0.19648781418800354, -1.5960296392440796, 0.30419921875, 0.313720703125, -0.854736328125
443, 2349417718, -5.6488471031188965, -2.08925199508667, 7.608297824859619, -0.3256526589393616, -0.2747986614704132, -1.5924440622329712, 0.307373046875, 0.313232421875, -0.85302734375
444, 2349434385, -5.622195243835449, -2.1069889068603516, 7.5980634689331055, -0.35307109355926514, -0.2611599266529083, -1.6945363283157349, 0.30615234375, 0.313720703125, -0.85546875
445, 2349451052, -5.623478889465332, -2.1339190006256104, 7.578949451446533, -0.43099769949913025, -0.17640745639801025, -1.5863865613937378, 0.30517578125, 0.313232421875, -0.85498046875
446, 2349467719, -5.601660251617432, -2.147611141204834, 7.618128776550293, -0.45424124598503113, 0.20899324119091034, -1.3383020162582397, 0.307861328125, 0.313720703125, -0.85498046875
447, 2349484386, -5.609724998474121, -2.0793025493621826, 7.623929023742676, -0.5470744371414185, 0.6640284657478333, -1.447680950164795, 0.30615234375, 0.314697265625, -0.8525390625
448, 2349501053, -5.605467319488525, -2.1245405673980713, 7.627962589263916, -0.6963323354721069, 1.088059425354004, -1.4732422828674316, 0.307373046875, 0.313720703125, -0.8544921875
449, 2349517720, -5.53216552734375, -2.194157361984253, 7.5352325439453125, -1.016055703163147, 1.5669914484024048, -1.465545892715454, 0.309326171875, 0.314697265625, -0.852294921875
450, 2349534387, -5.678256034851074, -2.130922794342041, 7.655588626861572, -0.6145895719528198, 2.2782561779022217, -1.0501078367233276, 0.306884765625, 0.313232421875, -0.853515625
451, 2349551054, -5.647696495056152, -2.1112256050109863, 7.605307102203369, -0.8523138761520386, 2.517914056777954, -1.2466086149215698, 0.310302734375, 0.312255859375, -0.852783203125
452, 2349567721, -5.649125576019287, -2.149728775024414, 7.60123872756958, -0.6505113840103149, 2.6118106842041016, -1.0324991941452026, 0.309814453125, 0.315673828125, -0.851318359375
453, 2349584388, -5.613041400909424, -2.112945556640625, 7.615212440490723, -0.16495859622955322, 2.737786293029785, -1.0012516975402832, 0.312744140625, 0.315185546875, -0.853271484375
454, 2349601055, -5.733585357666016, -2.0708346366882324, 7.530666828155518, -0.18234962224960327, 2.7557408809661865, -0.8429907560348511, 0.314453125, 0.310791015625, -0.8505859375
455, 2349617722, -5.740243434906006, -2.059548854827881, 7.555427551269531, -0.366594523191452, 2.339252471923828, -1.0777055025100708, 0.311767578125, 0.315185546875, -0.850341796875
456, 2349634389, -5.730344772338867, -2.0623602867126465, 7.5295562744140625, -0.8750835061073303, 1.8864073753356934, -1.1855350732803345, 0.31494140625, 0.314208984375, -0.8505859375
457, 2349651056, -5.709489345550537, -2.1172831058502197, 7.568580150604248, -0.8037905693054199, 1.71064031124115, -1.2158477306365967, 0.31396484375, 0.313232421875, -0.8505859375
458, 2349667723, -5.7554497718811035, -2.1326589584350586, 7.548566818237305, -0.6936815977096558, 1.2618672847747803, -1.1167393922805786, 0.31396484375, 0.313720703125, -0.8505859375
459, 2349684390, -5.718861103057861, -2.0872151851654053, 7.57786226272583, -1.0057979822158813, 1.2516990900039673, -1.3765162229537964, 0.31494140625, 0.314208984375, -0.84716796875
460, 2349701057, -5.666312217712402, -2.06423282623291, 7.565857410430908, -1.5645004510879517, 1.8989830017089844, -1.4865483045578003, 0.31640625, 0.312255859375, -0.84814453125
461, 2349717724, -5.736495494842529, -2.0933127403259277, 7.54011344909668, -1.8342533111572266, 2.4871270656585693, -1.6215912103652954, 0.31591796875, 0.313232421875, -0.85107421875
462, 2349734391, -5.7308268547058105, -2.0900912284851074, 7.526703834533691, -2.071965456008911, 2.817378282546997, -1.5125967264175415, 0.318359375, 0.3154296875, -0.85009765625
463, 2349751058, -5.776443004608154, -2.097043514251709, 7.507384777069092, -1.8612622022628784, 2.6962170600891113, -1.4772766828536987, 0.31982421875, 0.3154296875, -0.846923828125
464, 2349767725, -5.831695079803467, -2.1335864067077637, 7.471445083618164, -2.0655744075775146, 2.2794597148895264, -1.6842013597488403, 0.321533203125, 0.313720703125, -0.849853515625
465, 2349784392, -5.826793193817139, -2.095768451690674, 7.463798999786377, -1.7786227464675903, 1.2458208799362183, -1.7615644931793213, 0.3193359375, 0.3154296875, -0.846923828125
466, 2349801059, -5.810851573944092, -2.1432135105133057, 7.434116363525391, -1.0739021301269531, 0.1482527107000351, -1.8746577501296997, 0.322021484375, 0.31591796875, -0.845947265625
467, 2349817726, -5.794652938842773, -2.1532793045043945, 7.465752601623535, -0.5003952383995056, -0.5794872641563416, -1.7616924047470093, 0.3212890625, 0.31591796875, -0.847412109375
468, 2349834393, -5.7932000160217285, -2.117216110229492, 7.499570369720459, -0.27054691314697266, -1.113486409187317, -1.600345253944397, 0.3193359375, 0.31591796875, -0.847900390625
469, 2349851060, -5.777885437011719, -2.1199302673339844, 7.520825386047363, -0.36991143226623535, -1.3311560153961182, -1.874747395515442, 0.32080078125, 0.31591796875, -0.845947265625
470, 2349867727, -5.756165981292725, -2.143537759780884, 7.527695655822754, -0.2770525813102722, -1.4065470695495605, -1.951892614364624, 0.32080078125, 0.3173828125, -0.846923828125
471, 2349884394, -5.751492977142334, -2.1358280181884766, 7.534235954284668, -0.5892201662063599, -1.197099208831787, -1.7939519882202148, 0.32080078125, 0.3154296875, -0.847412109375
472, 2349901061, -5.7151031494140625, -2.1662344932556152, 7.530365943908691, -0.5681664943695068, -0.88783860206604, -1.692640781402588, 0.3203125, 0.31396484375, -0.848388671875
473, 2349917728, -5.7420148849487305, -2.1519393920898438, 7.548583507537842, -0.5338966250419617, -0.5448076725006104, -1.7208786010742188, 0.32080078125, 0.31640625, -0.848388671875
474, 2349934395, -5.760993480682373, -2.1126205921173096, 7.52872371673584, -0.46376916766166687, -0.3047783374786377, -1.6631864309310913, 0.322021484375, 0.3154296875, -0.848388671875
475, 2349951062, -5.7676310539245605, -2.1171324253082275, 7.496129989624023, -0.5140597224235535, -0.5473178029060364, -1.6545292139053345, 0.31787109375, 0.31591796875, -0.845458984375
476, 2349967729, -5.77644157409668, -2.1218483448028564, 7.4877166748046875, -0.6272550225257874, -0.7265170812606812, -1.875144362449646, 0.31884765625, 0.31689453125, -0.84765625
477, 2349984396, -5.767827033996582, -2.123802423477173, 7.515998840332031, -0.8281866908073425, -0.9576205015182495, -2.005563974380493, 0.3203125, 0.31494140625, -0.846435546875
478, 2350001063, -5.73557710647583, -2.169649839401245, 7.513505935668945, -0.45476633310317993, -1.078064203262329, -1.8778847455978394, 0.318359375, 0.31591796875, -0.846435546875
479, 2350017730, -5.77576208114624, -2.099499225616455, 7.506313800811768, -0.2156076580286026, -1.1591026782989502, -1.6485228538513184, 0.31982421875, 0.31689453125, -0.846923828125
480, 2350034397, -5.768618106842041, -2.122952461242676, 7.505578994750977, -0.31207793951034546, -1.3286588191986084, -1.7287548780441284, 0.31787109375, 0.3154296875, -0.846923828125
481, 2350051064, -5.762655258178711, -2.11906361579895, 7.519217491149902, -0.48753780126571655, -1.2591971158981323, -1.936153769493103, 0.318359375, 0.3154296875, -0.847412109375
482, 2350067731, -5.738304615020752, -2.1122360229492188, 7.487415313720703, -0.5895915031433105, -1.2954776287078857, -1.9502408504486084, 0.3193359375, 0.31494140625, -0.847412109375
483, 2350084398, -5.741453170776367, -2.1645450592041016, 7.536375522613525, -0.4322015047073364, -1.3178502321243286, -1.925562858581543, 0.31787109375, 0.31640625, -0.84814453125
484, 2350101065, -5.7017741203308105, -2.1936991214752197, 7.50593376159668, -0.2868238389492035, -1.2427154779434204, -1.6834204196929932, 0.31884765625, 0.31689453125, -0.84814453125
485, 2350117732, -5.724161624908447, -2.171265125274658, 7.510100364685059, 0.014631254598498344, -0.7787925004959106, -1.4007967710494995, 0.3173828125, 0.318359375, -0.84912109375
486, 2350134399, -5.7550883293151855, -2.1259679794311523, 7.52179479598999, -0.0635451078414917, -0.6889560222625732, -1.4291629791259766, 0.3193359375, 0.31591796875, -0.84912109375
487, 2350151066, -5.775993347167969, -2.1125590801239014, 7.518403053283691, -0.352392315864563, -0.5644910931587219, -1.7067022323608398, 0.31787109375, 0.31689453125, -0.84814453125
488, 2350167733, -5.739304065704346, -2.1336286067962646, 7.503421783447266, -0.4400261640548706, -0.6744463443756104, -1.800214171409607, 0.31884765625, 0.31591796875, -0.84912109375
489, 2350184400, -5.734121799468994, -2.146354913711548, 7.483524322509766, -0.18325889110565186, -0.7341240644454956, -1.544074535369873, 0.31689453125, 0.31591796875, -0.84912109375
490, 2350201067, -5.761220455169678, -2.1043965816497803, 7.487744331359863, -0.2562934458255768, -0.7792150974273682, -1.6008448600769043, 0.318359375, 0.31396484375, -0.846923828125
491, 2350217734, -5.769939422607422, -2.123037338256836, 7.499344348907471, 0.12470182031393051, -1.0128285884857178, -1.4221835136413574, 0.31884765625, 0.31396484375, -0.847900390625
492, 2350234401, -5.747041702270508, -2.1208927631378174, 7.50292444229126, -0.10601097345352173, -1.3142645359039307, -1.7544957399368286, 0.320556640625, 0.31591796875, -0.8505859375
493, 2350251068, -5.7579874992370605, -2.1219100952148438, 7.527885437011719, -0.25330960750579834, -1.469874382019043, -1.83832585811615, 0.31640625, 0.31494140625, -0.8505859375
494, 2350267735, -5.774752140045166, -2.108092784881592, 7.5604166984558105, -0.2951991558074951, -1.653351068496704, -1.7724500894546509, 0.31884765625, 0.31396484375, -0.847900390625
495, 2350284402, -5.7421555519104, -2.093585968017578, 7.515468120574951, -0.2711872458457947, -1.8801385164260864, -1.8249430656433105, 0.318359375, 0.3154296875, -0.849609375
496, 2350301069, -5.728920936584473, -2.125337839126587, 7.524932861328125, -0.33131304383277893, -2.1900906562805176, -1.8839932680130005, 0.3154296875, 0.314697265625, -0.84765625
497, 2350317736, -5.7476067543029785, -2.143747091293335, 7.511813163757324, -0.30718591809272766, -2.3497090339660645, -1.885542869567871, 0.312744140625, 0.315185546875, -0.84814453125
498, 2350334403, -5.698831081390381, -2.156273126602173, 7.535405158996582, -0.3367941677570343, -2.258028268814087, -1.9292253255844116, 0.31591796875, 0.31689453125, -0.84912109375
499, 2350351070, -5.743741989135742, -2.1045329570770264, 7.552008628845215, -0.5465878248214722, -2.047492265701294, -1.9961001873016357, 0.3154296875, 0.31640625, -0.849609375
500, 2350367737, -5.7298455238342285, -2.148110866546631, 7.545383930206299, -0.5768876075744629, -1.9275606870651245, -2.1379306316375732, 0.3154296875, 0.314697265625, -0.8486328125
501, 2350384404, -5.685179710388184, -2.1479086875915527, 7.531179428100586, -0.5911539196968079, -1.7504358291625977, -2.154271364212036, 0.31494140625, 0.31494140625, -0.849609375
502, 2350401071, -5.7318220138549805, -2.1528217792510986, 7.562588214874268, -0.5488417744636536, -1.644501805305481, -2.1580235958099365, 0.313720703125, 0.314697265625, -0.84912109375
503, 2350417738, -5.717348098754883, -2.126600980758667, 7.533956527709961, -0.5234723091125488, -1.7349529266357422, -2.0756404399871826, 0.3154296875, 0.31591796875, -0.8486328125
504, 2350434405, -5.7335052490234375, -2.1282589435577393, 7.5460591316223145, -0.5409214496612549, -1.8838884830474854, -2.1414783000946045, 0.313232421875, 0.3154296875, -0.84716796875
505, 2350451072, -5.7089033126831055, -2.1390316486358643, 7.524796009063721, -0.28545355796813965, -2.214115619659424, -2.170407772064209, 0.312744140625, 0.314697265625, -0.84912109375
506, 2350467739, -5.74768590927124, -2.0905299186706543, 7.50753927230835, -0.2888984680175781, -2.7112834453582764, -2.3525521755218506, 0.313232421875, 0.31640625, -0.84912109375
507, 2350484406, -5.706442356109619, -2.115051031112671, 7.527368545532227, -0.24575388431549072, -2.8919942378997803, -2.6171958446502686, 0.3154296875, 0.3154296875, -0.851318359375
508, 2350501073, -5.681994915008545, -2.1567721366882324, 7.543227195739746, -0.16640572249889374, -2.883324384689331, -2.6411306858062744, 0.312255859375, 0.3173828125, -0.848388671875
509, 2350517740, -5.6664910316467285, -2.1519975662231445, 7.569840908050537, -0.06878291070461273, -2.8608744144439697, -2.498544454574585, 0.312744140625, 0.3173828125, -0.851806640625
510, 2350534407, -5.702678680419922, -2.1690726280212402, 7.558170795440674, -0.2248411327600479, -2.9171717166900635, -2.4445531368255615, 0.309814453125, 0.31640625, -0.850341796875
511, 2350551074, -5.64333438873291, -2.1555733680725098, 7.588212013244629, -0.05533624812960625, -3.0046520233154297, -2.415623903274536, 0.309814453125, 0.31591796875, -0.8525390625
512, 2350567741, -5.622900485992432, -2.177204132080078, 7.572576999664307, -0.030991364270448685, -2.657074213027954, -2.283487558364868, 0.309814453125, 0.315185546875, -0.852294921875
513, 2350584408, -5.6106672286987305, -2.193131685256958, 7.587125778198242, 0.06490898877382278, -2.110166311264038, -2.0475685596466064, 0.30615234375, 0.3173828125, -0.85107421875
514, 2350601075, -5.622851371765137, -2.1404261589050293, 7.593512058258057, 0.009162943810224533, -1.3070544004440308, -1.5811102390289307, 0.308349609375, 0.313720703125, -0.851318359375
515, 2350617742, -5.688415050506592, -2.128347873687744, 7.5976080894470215, -0.20657922327518463, -0.9878817796707153, -1.5969901084899902, 0.30810546875, 0.314697265625, -0.849853515625
516, 2350634409, -5.6637372970581055, -2.1231017112731934, 7.580192565917969, -0.3946148157119751, -1.0689970254898071, -1.6411335468292236, 0.308837890625, 0.31640625, -0.851318359375
517, 2350651076, -5.697845935821533, -2.1133222579956055, 7.580153465270996, -0.7979252338409424, -0.9812097549438477, -1.9097341299057007, 0.308837890625, 0.315185546875, -0.849853515625
518, 2350667743, -5.661112308502197, -2.146820306777954, 7.563891887664795, -0.8335781097412109, -1.2294224500656128, -2.1529908180236816, 0.310302734375, 0.315185546875, -0.850830078125
519, 2350684410, -5.620006084442139, -2.1803953647613525, 7.583184719085693, -0.5131376385688782, -1.181795597076416, -2.0143237113952637, 0.30712890625, 0.315673828125, -0.85205078125
520, 2350701077, -5.649968147277832, -2.136349678039551, 7.570518493652344, -0.3994428813457489, -1.1061484813690186, -1.895621657371521, 0.30810546875, 0.3173828125, -0.8525390625
521, 2350717744, -5.688849449157715, -2.138183355331421, 7.552649974822998, -0.6008227467536926, -1.1165088415145874, -1.916239857673645, 0.309326171875, 0.3173828125, -0.850341796875
522, 2350734411, -5.669834136962891, -2.1282408237457275, 7.588691234588623, -0.7156700491905212, -1.2639484405517578, -1.9900429248809814, 0.3095703125, 0.318359375, -0.850830078125
523, 2350751078, -5.6750640869140625, -2.165494441986084, 7.575785160064697, -0.7595959305763245, -1.5029789209365845, -2.0869739055633545, 0.306640625, 0.316162109375, -0.850341796875
524, 2350767745, -5.642487049102783, -2.162818670272827, 7.59751558303833, -0.22434161603450775, -1.438908576965332, -1.908478856086731, 0.30859375, 0.318359375, -0.85107421875
525, 2350784412, -5.623524188995361, -2.1658921241760254, 7.593109130859375, -0.39091384410858154, -1.3496227264404297, -2.013427257537842, 0.306640625, 0.316162109375, -0.850341796875
526, 2350801079, -5.638847351074219, -2.1445131301879883, 7.589381694793701, -0.3123340606689453, -1.2285643815994263, -1.8233296871185303, 0.30810546875, 0.31689453125, -0.8525390625
527, 2350817746, -5.641876220703125, -2.130138874053955, 7.552677154541016, -0.2851846218109131, -1.206127643585205, -1.8918181657791138, 0.308837890625, 0.31640625, -0.85205078125
528, 2350834413, -5.633795261383057, -2.163902997970581, 7.594612121582031, -0.5241511464118958, -1.226745843887329, -1.9411993026733398, 0.30615234375, 0.31787109375, -0.8525390625
529, 2350851080, -5.663269519805908, -2.1556828022003174, 7.559841632843018, -0.2884630262851715, -1.366847276687622, -1.750218152999878, 0.309814453125, 0.315673828125, -0.85302734375
530, 2350867747, -5.6076459884643555, -2.202765703201294, 7.600187301635742, -0.25689539313316345, -1.5670619010925293, -1.876719355583191, 0.306640625, 0.315673828125, -0.85205078125
531, 2350884414, -5.594587326049805, -2.1761550903320312, 7.601468086242676, -0.10117016732692719, -1.354591727256775, -1.6186201572418213, 0.306396484375, 0.313232421875, -0.8544921875
532, 2350901081, -5.679413795471191, -2.0971992015838623, 7.63040828704834, -0.2985800802707672, -1.229793906211853, -1.7044228315353394, 0.3056640625, 0.3173828125, -0.85302734375
533, 2350917748, -5.645601272583008, -2.1458308696746826, 7.576650142669678, -0.19291485846042633, -1.1684129238128662, -1.7644590139389038, 0.3076171875, 0.318359375, -0.853515625
534, 2350934415, -5.636538028717041, -2.1428446769714355, 7.585170745849609, -0.22956660389900208, -1.2655746936798096, -1.8551918268203735, 0.3037109375, 0.316162109375, -0.856201171875
535, 2350951082, -5.62629508972168, -2.1523213386535645, 7.6034698486328125, -0.6558516621589661, -1.4417133331298828, -1.9159069061279297, 0.3037109375, 0.31787109375, -0.8525390625
536, 2350967749, -5.578242778778076, -2.1882400512695312, 7.579959869384766, -0.31973615288734436, -1.2714016437530518, -1.823393702507019, 0.3046875, 0.316162109375, -0.854248046875
537, 2350984416, -5.626788139343262, -2.1556224822998047, 7.619685649871826, -0.4380156099796295, -1.1085689067840576, -1.7883684635162354, 0.30615234375, 0.31689453125, -0.85400390625
538, 2351001083, -5.623014450073242, -2.1766514778137207, 7.609962463378906, -0.3689124882221222, -0.9014004468917847, -1.5861687660217285, 0.30322265625, 0.315185546875, -0.85205078125
539, 2351017750, -5.638329982757568, -2.164595365524292, 7.616951942443848, -0.449374794960022, -0.7645134329795837, -1.6252665519714355, 0.30322265625, 0.316650390625, -0.8525390625
540, 2351034417, -5.596426010131836, -2.1528358459472656, 7.616277694702148, -0.4261440634727478, -0.647847592830658, -1.6877615451812744, 0.3046875, 0.3173828125, -0.853515625
541, 2351051084, -5.644424915313721, -2.138690233230591, 7.622849941253662, -0.4747954308986664, -0.41201871633529663, -1.6960731744766235, 0.30419921875, 0.31982421875, -0.8515625
542, 2351067751, -5.6558051109313965, -2.140021324157715, 7.567607879638672, -0.6678255200386047, -0.37258797883987427, -1.9888262748718262, 0.30517578125, 0.316162109375, -0.8515625
543, 2351084418, -5.626935958862305, -2.16723370552063, 7.577693462371826, -0.2984519898891449, -0.5553345084190369, -1.8829944133758545, 0.30419921875, 0.31689453125, -0.854736328125
544, 2351101085, -5.655029773712158, -2.1615960597991943, 7.58550500869751, 0.17400626838207245, -0.8628789782524109, -1.667668342590332, 0.3046875, 0.31787109375, -0.8515625
545, 2351117752, -5.676649570465088, -2.1366350650787354, 7.62471342086792, 0.23643721640110016, -1.0842238664627075, -1.6363439559936523, 0.30615234375, 0.313232421875, -0.85302734375
546, 2351134419, -5.713859558105469, -2.1231257915496826, 7.634626865386963, -0.07469943910837173, -1.347817301750183, -2.065638780593872, 0.302734375, 0.31689453125, -0.8525390625
547, 2351151086, -5.774367809295654, -2.0834250450134277, 7.569113254547119, -0.5078613758087158, -1.8363920450210571, -2.753185749053955, 0.302734375, 0.316650390625, -0.855224609375
548, 2351167753, -5.72641658782959, -2.0448269844055176, 7.6535797119140625, -0.9152699112892151, -2.4622642993927, -3.660426378250122, 0.302490234375, 0.318359375, -0.855224609375
549, 2351184420, -5.507121562957764, -2.249109983444214, 7.615758419036865, -1.5010323524475098, -2.324263095855713, -3.8501780033111572, 0.302978515625, 0.318359375, -0.853271484375
550, 2351201087, -5.575954914093018, -2.2468698024749756, 7.533427715301514, -0.6883156299591064, -0.997076690196991, -4.176368236541748, 0.30419921875, 0.31982421875, -0.853271484375
551, 2351217754, -5.448852062225342, -2.290012836456299, 7.636363506317139, -1.0497108697891235, 0.5436103343963623, -4.2962870597839355, 0.302490234375, 0.3203125, -0.855712890625
552, 2351234421, -5.284627914428711, -2.387148141860962, 7.640719890594482, -1.2048983573913574, 3.4893784523010254, -4.116985321044922, 0.302001953125, 0.3212890625, -0.854248046875
553, 2351251088, -5.234345436096191, -2.227940082550049, 7.729198455810547, -1.940367579460144, 7.769750118255615, -4.22289514541626, 0.303466796875, 0.31982421875, -0.853271484375
554, 2351267755, -5.217820644378662, -2.3894577026367188, 7.8533501625061035, -3.4252781867980957, 14.218060493469238, -4.012052536010742, 0.30712890625, 0.3193359375, -0.8505859375
555, 2351284422, -4.896988391876221, -1.6886574029922485, 8.215890884399414, -6.347903728485107, 23.849538803100586, -4.514299392700195, 0.312255859375, 0.321533203125, -0.8466796875
556, 2351301089, -5.138326168060303, -2.0713281631469727, 8.19582462310791, -11.85557746887207, 36.21059799194336, -2.1271073818206787, 0.32177734375, 0.32275390625, -0.843505859375
557, 2351317756, -4.709299087524414, -2.469557285308838, 8.713727951049805, -20.901626586914062, 54.726627349853516, 4.048168659210205, 0.333251953125, 0.328369140625, -0.8369140625
558, 2351334423, -4.294722080230713, -3.222064733505249, 8.931083679199219, -18.630918502807617, 80.73802185058594, 10.172506332397461, 0.3525390625, 0.331787109375, -0.828125
559, 2351351090, -4.800664901733398, -3.0721685886383057, 8.966781616210938, -19.96569061279297, 114.90961456298828, 17.009347915649414, 0.37890625, 0.333984375, -0.815185546875
560, 2351367757, -5.734530925750732, -2.507922649383545, 9.761575698852539, -24.24790382385254, 149.39418029785156, 28.1553897857666, 0.419677734375, 0.338134765625, -0.7958984375
561, 2351384424, -6.165496826171875, -3.625215530395508, 9.619511604309082, -20.666263580322266, 166.31236267089844, 38.96110153198242, 0.458251953125, 0.339111328125, -0.77099609375
562, 2351401091, -8.36794376373291, -4.053996562957764, 10.052267074584961, -1.7838153839111328, 164.17535400390625, 50.80605697631836, 0.501953125, 0.329833984375, -0.74853515625
563, 2351417758, -7.014023780822754, -3.4628963470458984, 7.858150482177734, 24.879674911499023, 156.79556274414062, 56.12583541870117, 0.544189453125, 0.318359375, -0.724609375
564, 2351434425, -6.584506034851074, -4.31183385848999, 11.55059814453125, 50.03734588623047, 147.1963653564453, 56.456886291503906, 0.5830078125, 0.30029296875, -0.7041015625
565, 2351451092, -3.4780595302581787, -4.485969066619873, 16.24748992919922, 73.17005920410156, 103.57157897949219, 37.16721725463867, 0.61083984375, 0.27587890625, -0.689697265625
566, 2351467759, -1.521870493888855, -3.1139543056488037, 17.86750030517578, 64.78672790527344, 40.225746154785156, 6.443077564239502, 0.6298828125, 0.259521484375, -0.685302734375
567, 2351484426, 2.6970834732055664, -1.9121673107147217, 15.310850143432617, 45.782466888427734, -13.632184028625488, -12.313041687011719, 0.629150390625, 0.250732421875, -0.690185546875
568, 2351501093, 4.436293601989746, -0.7767254114151001, 13.470112800598145, 27.316164016723633, -39.4356575012207, -13.27320671081543, 0.615966796875, 0.248046875, -0.700927734375
569, 2351517760, 3.0535058975219727, -0.6269487738609314, 13.653463363647461, 8.092488288879395, -57.6244010925293, -6.597245216369629, 0.60546875, 0.24462890625, -0.708251953125
570, 2351534427, 0.7357486486434937, -1.330269694328308, 14.215152740478516, -3.2871031761169434, -85.46051025390625, -0.059640705585479736, 0.59033203125, 0.244140625, -0.72314453125
571, 2351551094, -0.6967700123786926, -1.9780751466751099, 13.819283485412598, -8.658463478088379, -117.54850006103516, 1.600353479385376, 0.5654296875, 0.244140625, -0.740966796875
572, 2351567761, -1.5679371356964111, -2.2707009315490723, 12.759170532226562, -14.53729248046875, -138.94012451171875, -2.266162157058716, 0.53564453125, 0.24755859375, -0.760986328125
573, 2351584428, -3.071094512939453, -2.6983628273010254, 11.9760160446167, -19.13987159729004, -148.09938049316406, -8.97336196899414, 0.501220703125, 0.2529296875, -0.78564453125
574, 2351601095, -5.429524898529053, -3.0265724658966064, 11.894746780395508, -18.980375289916992, -155.35281372070312, -16.662799835205078, 0.463623046875, 0.258544921875, -0.802734375
575, 2351617762, -7.610673427581787, -2.998544692993164, 11.729835510253906, -17.81015396118164, -166.95523071289062, -25.357086181640625, 0.424560546875, 0.265380859375, -0.822998046875
576, 2351634429, -8.731618881225586, -2.8047924041748047, 10.984292030334473, -17.067527770996094, -178.31202697753906, -32.253292083740234, 0.377197265625, 0.272705078125, -0.841552734375
577, 2351651096, -9.226847648620605, -2.8821375370025635, 10.116816520690918, -14.63687515258789, -182.367919921875, -35.80135726928711, 0.3271484375, 0.281982421875, -0.860595703125
578, 2351667763, -9.808777809143066, -2.8634355068206787, 9.697700500488281, -9.11032772064209, -183.91229248046875, -37.20179748535156, 0.275390625, 0.284912109375, -0.8720703125
579, 2351684430, -10.469917297363281, -2.693760633468628, 9.35486888885498, -7.850035667419434, -185.38380432128906, -41.0899543762207, 0.22509765625, 0.292236328125, -0.890625
580, 2351701097, -10.654840469360352, -2.852094888687134, 8.502930641174316, -6.08786678314209, -186.6398468017578, -44.485679626464844, 0.170654296875, 0.29638671875, -0.899169921875
581, 2351717764, -10.770220756530762, -2.94669508934021, 7.5295281410217285, -2.916363000869751, -184.08033752441406, -45.77942657470703, 0.1162109375, 0.29833984375, -0.90380859375
582, 2351734431, -10.683244705200195, -2.962651014328003, 6.352023124694824, -2.532806873321533, -177.25875854492188, -46.892765045166016, 0.064208984375, 0.29833984375, -0.91162109375
583, 2351751098, -10.874667167663574, -2.849945306777954, 5.146601676940918, -7.185456275939941, -163.2993621826172, -47.852699279785156, 0.015869140625, 0.300048828125, -0.91259765625
584, 2351767765, -11.270264625549316, -2.4216835498809814, 4.088226795196533, -14.38263988494873, -148.47918701171875, -49.130374908447266, -0.030029296875, 0.3046875, -0.908447265625
585, 2351784432, -10.675554275512695, -1.1937133073806763, 2.589874267578125, -21.432910919189453, -129.9342498779297, -49.7570686340332, -0.072509765625, 0.3115234375, -0.90673828125
586, 2351801099, -10.385607719421387, 0.2032029777765274, 0.8605000972747803, -24.05344009399414, -102.80252075195312, -45.60359573364258, -0.104736328125, 0.31494140625, -0.90283203125
587, 2351817766, -10.786555290222168, 1.3831554651260376, 0.029657088220119476, -19.19965362548828, -72.28878021240234, -32.48066329956055, -0.13134765625, 0.3193359375, -0.89599609375
588, 2351834433, -11.378499984741211, 1.9272207021713257, -0.32672715187072754, -13.185126304626465, -47.06502914428711, -13.270111083984375, -0.148193359375, 0.3232421875, -0.893798828125
589, 2351851100, -11.247260093688965, 1.5255928039550781, -0.8630279302597046, -9.585895538330078, -22.488887786865234, 9.22977066040039, -0.15625, 0.3251953125, -0.89208984375
590, 2351867767, -11.176617622375488, 0.31897804141044617, -0.9979799389839172, -8.6279296875, 8.714174270629883, 24.30042266845703, -0.15234375, 0.328857421875, -0.889404296875
591, 2351884434, -11.576447486877441, -1.24204421043396, -0.5718232989311218, -1.7971802949905396, 38.233280181884766, 27.482633590698242, -0.14208984375, 0.33056640625, -0.891845703125
592, 2351901101, -12.381656646728516, -2.0552241802215576, 0.29506903886795044, 13.402727127075195, 59.95758056640625, 20.21240997314453, -0.122314453125, 0.3291015625, -0.894287109375
593, 2351917768, -13.10571002960205, -1.9600237607955933, 1.1426377296447754, 28.579702377319336, 72.65733337402344, 8.595917701721191, -0.102783203125, 0.3232421875, -0.900634765625
594, 2351934435, 17.565093994140625, -5.441279888153076, 32.1513671875, -2.4275763034820557, 87.6183853149414, 18.311798095703125, -0.077392578125, 0.322265625, -0.90185546875
595, 2351951102, 14.695501327514648, 0.589023768901825, 9.43393611907959, -11.634263038635254, 71.87769317626953, 66.20410919189453, -0.056396484375, 0.320068359375, -0.90283203125
596, 2351967769, -9.255683898925781, -1.2902300357818604, -0.7819927930831909, -42.067710876464844, 226.77688598632812, 40.95808029174805, 0.001953125, 0.331787109375, -0.902099609375
597, 2351984436, -17.203319549560547, -7.236852645874023, 16.338903427124023, -62.99334716796875, 171.07492065429688, -43.182884216308594, 0.052978515625, 0.350830078125, -0.890625
598, 2352001103, -4.088784217834473, 1.628002643585205, 10.345155715942383, -31.188690185546875, 132.26730346679688, 9.738232612609863, 0.0869140625, 0.3583984375, -0.883056640625
599, 2352017770, -7.171432018280029, 0.0035787299275398254, 10.279315948486328, -50.631622314453125, 124.2733383178711, 25.07142448425293, 0.1220703125, 0.369140625, -0.873291015625
600, 2352034437, -5.8980865478515625, -6.499741077423096, 7.738404273986816, -43.90019607543945, 115.00752258300781, 26.8875675201416, 0.157958984375, 0.38330078125, -0.86474609375
601, 2352051104, -6.338470458984375, -8.664529800415039, 5.88932466506958, -9.64200210571289, 110.79812622070312, 28.26926040649414, 0.1923828125, 0.38427734375, -0.85498046875
602, 2352067771, -7.370486259460449, -7.274574279785156, 8.236750602722168, 23.0432071685791, 107.06800079345703, 26.013399124145508, 0.221435546875, 0.38134765625, -0.852294921875
603, 2352084438, -14.725957870483398, -3.6659727096557617, 11.040670394897461, 88.60066223144531, 37.00070571899414, 39.397464752197266, 0.241943359375, 0.354736328125, -0.8564453125
604, 2352101105, -8.547528266906738, 0.07581626623868942, 10.23978042602539, 42.249351501464844, 15.883302688598633, 18.013259887695312, 0.251220703125, 0.340576171875, -0.860595703125
605, 2352117772, -6.17041015625, -0.8622987866401672, 9.227416038513184, 17.629098892211914, 9.719347953796387, 4.1509857177734375, 0.25390625, 0.33544921875, -0.863525390625
606, 2352134439, -6.274933338165283, -1.7657487392425537, 8.412958145141602, 2.107893466949463, 7.083225250244141, -4.133045196533203, 0.257080078125, 0.331298828125, -0.863525390625
607, 2352151106, -5.48790979385376, -2.3916032314300537, 7.967975616455078, -2.2155117988586426, 5.149134159088135, -6.040154933929443, 0.259033203125, 0.33447265625, -0.863037109375
608, 2352167773, -5.374638080596924, -2.413512706756592, 7.862868309020996, -2.7155354022979736, 3.9634695053100586, -5.566165447235107, 0.258056640625, 0.33447265625, -0.864013671875
609, 2352184440, -4.947781085968018, -2.4318060874938965, 7.873777389526367, -2.6699445247650146, 3.9341297149658203, -3.860704183578491, 0.25927734375, 0.332763671875, -0.8623046875
610, 2352201107, -5.128771781921387, -2.4900810718536377, 7.788673400878906, -1.339685082435608, 4.167999744415283, -0.9650481343269348, 0.26171875, 0.3349609375, -0.85888671875
611, 2352217774, -5.306690216064453, -2.2904088497161865, 7.830801010131836, -0.13651570677757263, 3.342796802520752, 1.4552175998687744, 0.26171875, 0.333984375, -0.857177734375
612, 2352234441, -5.53312873840332, -2.383875608444214, 7.7876152992248535, -0.1078038439154625, 2.141061782836914, 1.6244919300079346, 0.26318359375, 0.333984375, -0.859130859375
613, 2352251108, -5.427268981933594, -2.3237109184265137, 7.821397304534912, -0.9350043535232544, 1.7406965494155884, 0.19983667135238647, 0.263671875, 0.333984375, -0.86083984375
614, 2352267775, -5.357446193695068, -2.3086469173431396, 7.835563659667969, -1.4503191709518433, 1.4995018243789673, -0.42486342787742615, 0.2646484375, 0.33447265625, -0.86181640625
615, 2352284442, -5.334793567657471, -2.32088041305542, 7.8008713722229, -1.417445182800293, 1.2424015998840332, -0.24444761872291565, 0.26611328125, 0.333984375, -0.858642578125
616, 2352301109, -5.379517078399658, -2.460845470428467, 7.71364688873291, -0.5569994449615479, 0.44432270526885986, 0.28069600462913513, 0.2646484375, 0.3359375, -0.860107421875
617, 2352317776, -5.200322151184082, -2.6920266151428223, 7.5973124504089355, 3.3596630096435547, -2.0537545680999756, 2.5273396968841553, 0.2666015625, 0.33544921875, -0.857177734375
618, 2352334443, -5.076222896575928, -3.06675124168396, 7.425660133361816, 12.693557739257812, -7.6893630027771, 8.435826301574707, 0.26513671875, 0.331298828125, -0.859130859375
619, 2352351110, -5.363532543182373, -2.4770777225494385, 7.6642351150512695, 15.05239486694336, -11.114264488220215, 10.369964599609375, 0.264892578125, 0.3271484375, -0.86376953125
620, 2352367777, -5.186790943145752, -2.128732681274414, 7.901993274688721, 12.336018562316895, -10.017484664916992, 8.411212921142578, 0.263427734375, 0.322998046875, -0.86328125
621, 2352384444, -5.094222068786621, -2.0297651290893555, 8.019098281860352, 7.918765068054199, -5.622681617736816, 6.319238185882568, 0.262451171875, 0.31884765625, -0.86669921875
622, 2352401111, -5.00319766998291, -2.2671618461608887, 7.836742877960205, 8.05595874786377, -3.662271499633789, 7.176162242889404, 0.263671875, 0.3154296875, -0.86669921875
623, 2352417778, -4.954701900482178, -2.3662285804748535, 7.87868595123291, 8.780314445495605, -2.1373684406280518, 9.156500816345215, 0.258544921875, 0.313720703125, -0.871337890625
624, 2352434445, -4.965566635131836, -2.2738730907440186, 7.871115207672119, 9.34643268585205, 0.1349470168352127, 10.551664352416992, 0.26123046875, 0.30859375, -0.869873046875
625, 2352451112, -4.88095760345459, -2.3744091987609863, 7.932157516479492, 10.318923950195312, 3.2041962146759033, 12.562483787536621, 0.265869140625, 0.30615234375, -0.87109375
626, 2352467779, -4.964568614959717, -2.322249174118042, 7.922043800354004, 11.097366333007812, 7.898770809173584, 16.28024673461914, 0.27001953125, 0.301513671875, -0.870361328125
627, 2352484446, -4.8206610679626465, -2.20923113822937, 8.253698348999023, 9.69076156616211, 15.895835876464844, 19.20893669128418, 0.274658203125, 0.294189453125, -0.871337890625
628, 2352501113, -5.241738796234131, -1.7396574020385742, 8.231168746948242, 5.493041038513184, 25.895320892333984, 18.483734130859375, 0.2822265625, 0.29345703125, -0.868896484375
629, 2352517780, -4.961253643035889, -1.9410613775253296, 8.374292373657227, -2.13625431060791, 37.487491607666016, 22.70548439025879, 0.295166015625, 0.289794921875, -0.866455078125
630, 2352534447, -4.93051815032959, -2.276142120361328, 8.467108726501465, -7.192856311798096, 53.44640350341797, 27.23212432861328, 0.308349609375, 0.2890625, -0.85986328125
631, 2352551114, -5.032643795013428, -1.2392903566360474, 8.885162353515625, -6.85679817199707, 74.30082702636719, 24.98423194885254, 0.326171875, 0.28857421875, -0.854248046875
632, 2352567781, -5.235352516174316, -0.6821286082267761, 9.003239631652832, -5.542957782745361, 100.7242431640625, 15.372005462646484, 0.35205078125, 0.286376953125, -0.843505859375
633, 2352584448, -5.128930568695068, -1.397322654724121, 9.191873550415039, -12.86029052734375, 136.7548370361328, 10.139829635620117, 0.385986328125, 0.288330078125, -0.828125
634, 2352601115, -5.384300231933594, -2.6645703315734863, 8.979411125183105, -20.960372924804688, 177.02598571777344, 18.607229232788086, 0.428466796875, 0.292724609375, -0.805908203125
635, 2352617782, -5.437587738037109, -2.593658447265625, 8.73029613494873, -20.692302703857422, 215.21151733398438, 33.29030227661133, 0.48046875, 0.292236328125, -0.775390625
636, 2352634449, -5.885203838348389, -2.2278640270233154, 8.380574226379395, -14.181147575378418, 263.6259460449219, 44.596946716308594, 0.541259765625, 0.286376953125, -0.737060546875
637, 2352651116, -6.078654766082764, -2.3263769149780273, 8.94589900970459, -2.2910778522491455, 327.0497131347656, 59.79558181762695, 0.613525390625, 0.281494140625, -0.681396484375
638, 2352667783, -7.462033748626709, -4.793049335479736, 10.142255783081055, -0.7075144648551941, 387.9783020019531, 97.30043029785156, 0.694091796875, 0.265380859375, -0.61181640625
639, 2352684450, -10.50560474395752, -6.684141159057617, 11.523964881896973, -14.643783569335938, 422.2123718261719, 154.4422149658203, 0.77587890625, 0.23291015625, -0.521240234375
640, 2352701117, -18.812965393066406, -6.376732349395752, 14.053977012634277, -44.02580642700195, 421.82537841796875, 185.7263641357422, 0.85498046875, 0.192626953125, -0.413818359375
641, 2352717784, -21.664783477783203, -5.248021125793457, 16.798870086669922, -71.93708038330078, 396.4881591796875, 169.8500213623047, 0.9111328125, 0.1533203125, -0.30908203125
642, 2352734451, -15.419875144958496, -10.99027156829834, 16.896203994750977, -58.39259338378906, 333.9411315917969, 170.60934448242188, 0.947998046875, 0.112548828125, -0.21337890625
643, 2352751118, -4.473572731018066, -8.46042251586914, 14.577718734741211, 14.272346496582031, 291.8275146484375, 215.44448852539062, 0.97265625, 0.055908203125, -0.129638671875
644, 2352767785, -15.415271759033203, -11.876107215881348, 15.969559669494629, 52.161460876464844, 305.2126770019531, 146.1834259033203, 0.9853515625, 0.002197265625, -0.04345703125
645, 2352784452, -21.169231414794922, -14.112707138061523, 27.90570640563965, 26.996675491333008, 80.05686950683594, 9.01740550994873, 0.98681640625, -0.01171875, -0.002197265625
646, 2352801119, -7.92502498626709, -11.987725257873535, 19.300811767578125, 55.24851608276367, -108.29339599609375, -78.49234008789062, 0.984619140625, 0.00634765625, -0.02392578125
647, 2352817786, -0.578353762626648, -6.119142532348633, 11.513398170471191, 91.26538848876953, -174.5224609375, -100.164306640625, 0.982666015625, 0.032958984375, -0.071533203125
648, 2352834453, 1.2534207105636597, -2.397613048553467, 7.9154558181762695, 87.6805419921875, -182.6592254638672, -100.17604064941406, 0.973388671875, 0.05908203125, -0.123046875
649, 2352851120, 0.5798155069351196, -0.5159726142883301, 6.640740394592285, 60.77149963378906, -174.34237670898438, -99.91213989257812, 0.96240234375, 0.083984375, -0.17724609375
650, 2352867787, -1.5340917110443115, 0.052937835454940796, 6.615615367889404, 27.352279663085938, -168.841552734375, -99.77403259277344, 0.951171875, 0.108642578125, -0.222412109375
651, 2352884454, -4.266952037811279, -0.2195381224155426, 7.253607273101807, 7.590514659881592, -177.21664428710938, -96.9625244140625, 0.930908203125, 0.133056640625, -0.26904296875
