sep=,
DeviceTag:,A,,,,,,,,,,,,,,,,,
FirmwareVersion:,2.2.1,,,,,,,,,,,,,,,,,
AppVersion:,2022.0.1,,,,,,,,,,,,,,,,,
SyncStatus:,Synced,,,,,,,,,,,,,,,,,
OutputRate:,60Hz,,,,,,,,,,,,,,,,,
FilterProfile:,General,,,,,,,,,,,,,,,,,
Measurement Mode:,Inertial Mode - Rate quantities (with mag),,,,,,,,,,,,,,,,,
StartTime:,2022-08-16 15:00:35.266 +0300,,,,,,,,,,,,,,,,,
© Xsens Technologies B. V. 2005-2022,,,,,,,,,,,,,,,,,,,

PacketCounter,SampleTimeFine,Acc_X,Acc_Y,Acc_Z,Gyr_X,Gyr_Y,Gyr_Z,Mag_X,Mag_Y,Mag_Z
1, 3753060522, -5.253488540649414, 1.9224721193313599, 8.118647575378418, -2.245516777038574, -1.4931435585021973, -1.962355375289917, 0.75439453125, -0.167236328125, -0.597412109375
2, 3753077189, -5.2896952629089355, 1.9064990282058716, 8.0975923538208, -2.1300289630889893, -1.5458801984786987, -1.9693219661712646, 0.7568359375, -0.167724609375, -0.597412109375
3, 3753093856, -5.262556552886963, 1.9337525367736816, 8.100183486938477, -2.079110860824585, -1.780005693435669, -2.03391695022583, 0.75634765625, -0.165771484375, -0.597412109375
4, 3753110523, -5.259886264801025, 1.9099855422973633, 8.11514949798584, -2.1559102535247803, -1.7437635660171509, -1.827670693397522, 0.755859375, -0.167724609375, -0.597900390625
5, 3753127190, -5.154728889465332, 1.9901857376098633, 8.080656051635742, -2.284780979156494, -1.494974970817566, -2.2184438705444336, 0.7578125, -0.168701171875, -0.598388671875
6, 3753143857, -5.374683856964111, 1.9089503288269043, 8.157638549804688, -2.5471317768096924, -1.3699977397918701, -2.440186023712158, 0.7587890625, -0.167236328125, -0.60009765625
7, 3753160524, -5.2303147315979, 1.893689513206482, 8.101304054260254, -2.2350282669067383, -1.4048950672149658, -2.448843240737915, 0.755859375, -0.167236328125, -0.597900390625
8, 3753177191, -5.264678001403809, 1.8792240619659424, 8.132772445678711, -2.0768699645996094, -1.3283002376556396, -2.2344775199890137, 0.75634765625, -0.168701171875, -0.596923828125
9, 3753193858, -5.255756378173828, 1.9214317798614502, 8.1143217086792, -2.14686918258667, -1.2623859643936157, -2.062091112136841, 0.75439453125, -0.166259765625, -0.596923828125
10, 3753210525, -5.265913486480713, 1.9242576360702515, 8.106959342956543, -2.0648062229156494, -1.247248649597168, -2.1665778160095215, 0.75537109375, -0.166748046875, -0.596435546875
11, 3753227192, -5.2752485275268555, 1.96804678440094, 8.09157943725586, -2.016807794570923, -1.36514413356781, -2.2308149337768555, 0.75634765625, -0.168701171875, -0.60009765625
12, 3753243859, -5.27386999130249, 1.8868317604064941, 8.111095428466797, -2.153618335723877, -1.5031070709228516, -2.2973310947418213, 0.75732421875, -0.166748046875, -0.596435546875
13, 3753260526, -5.268773078918457, 1.9313218593597412, 8.108779907226562, -2.3242247104644775, -1.6700505018234253, -2.3149654865264893, 0.755859375, -0.168212890625, -0.596923828125
14, 3753277193, -5.28236722946167, 1.9558132886886597, 8.127700805664062, -2.1761443614959717, -1.5302691459655762, -2.029358148574829, 0.759521484375, -0.165771484375, -0.597412109375
15, 3753293860, -5.253536701202393, 1.926891565322876, 8.125130653381348, -2.0963354110717773, -1.3524401187896729, -2.1173505783081055, 0.7568359375, -0.168212890625, -0.597412109375
16, 3753310527, -5.275758266448975, 1.9526289701461792, 8.090535163879395, -2.0505142211914062, -1.4781087636947632, -2.117055892944336, 0.7568359375, -0.167724609375, -0.596923828125
17, 3753327194, -5.285036563873291, 1.9139312505722046, 8.122220993041992, -2.158292531967163, -1.636741280555725, -1.988006591796875, 0.7568359375, -0.167724609375, -0.597900390625
18, 3753343861, -5.258249282836914, 1.9188652038574219, 8.098304748535156, -2.21364164352417, -1.6806029081344604, -2.035825729370117, 0.75634765625, -0.168701171875, -0.597900390625
19, 3753360528, -5.241640090942383, 1.9119021892547607, 8.131103515625, -2.2077505588531494, -1.6811407804489136, -2.0465826988220215, 0.7548828125, -0.168212890625, -0.598388671875
20, 3753377195, -5.264498710632324, 1.929870843887329, 8.140606880187988, -2.1668598651885986, -1.5360832214355469, -2.1377511024475098, 0.7568359375, -0.168701171875, -0.597900390625
21, 3753393862, -5.292495250701904, 1.9359805583953857, 8.079748153686523, -2.1433091163635254, -1.5873725414276123, -1.9380871057510376, 0.75634765625, -0.169677734375, -0.596923828125
22, 3753410529, -5.273736000061035, 1.9681893587112427, 8.125106811523438, -2.0916738510131836, -1.7273077964782715, -1.8736073970794678, 0.755859375, -0.167724609375, -0.597412109375
23, 3753427196, -5.242546558380127, 1.9546663761138916, 8.113186836242676, -2.151761293411255, -1.7690050601959229, -1.9478585720062256, 0.75830078125, -0.166259765625, -0.595947265625
24, 3753443863, -5.231184482574463, 1.9577412605285645, 8.128742218017578, -2.3648972511291504, -1.608695149421692, -2.096220016479492, 0.7568359375, -0.168701171875, -0.596923828125
25, 3753460530, -5.253004550933838, 1.9417970180511475, 8.126188278198242, -2.342895984649658, -1.3360737562179565, -2.2874443531036377, 0.75634765625, -0.170166015625, -0.598876953125
26, 3753477197, -5.281822681427002, 1.9179521799087524, 8.12934684753418, -2.233004570007324, -1.3480476140975952, -2.105978488922119, 0.75634765625, -0.168212890625, -0.598876953125
27, 3753493864, -5.3034868240356445, 1.9369428157806396, 8.112107276916504, -2.3306407928466797, -1.5851829051971436, -2.031906843185425, 0.75732421875, -0.168701171875, -0.597900390625
28, 3753510531, -5.259788990020752, 1.9435911178588867, 8.118438720703125, -2.33380389213562, -1.6594468355178833, -2.0037200450897217, 0.75634765625, -0.168212890625, -0.598388671875
29, 3753527198, -5.270211696624756, 1.943159580230713, 8.114142417907715, -2.2172658443450928, -1.7553919553756714, -2.1221530437469482, 0.75732421875, -0.168212890625, -0.598876953125
30, 3753543865, -5.237764358520508, 1.9318222999572754, 8.126992225646973, -2.177271842956543, -1.6330914497375488, -2.128300189971924, 0.7578125, -0.168701171875, -0.595458984375
31, 3753560532, -5.2275004386901855, 1.9172083139419556, 8.101430892944336, -2.244927406311035, -1.3835467100143433, -2.1193740367889404, 0.75634765625, -0.169189453125, -0.60009765625
32, 3753577199, -5.293914794921875, 1.9520232677459717, 8.12353801727295, -2.2102479934692383, -1.2939536571502686, -2.177182197570801, 0.7568359375, -0.167724609375, -0.597412109375
33, 3753593866, -5.267392635345459, 1.9490445852279663, 8.111223220825195, -2.244696617126465, -1.4461441040039062, -2.308459758758545, 0.75634765625, -0.169677734375, -0.596923828125
34, 3753610533, -5.267435550689697, 1.9453632831573486, 8.10252571105957, -2.4088358879089355, -1.6667975187301636, -2.2460415363311768, 0.7578125, -0.168212890625, -0.603515625
35, 3753627200, -5.269253253936768, 1.954245686531067, 8.08446216583252, -2.4131646156311035, -1.6951764822006226, -2.2672488689422607, 0.75390625, -0.168212890625, -0.596435546875
36, 3753643867, -5.244394302368164, 1.9517043828964233, 8.13219928741455, -2.41166615486145, -1.6153675317764282, -2.2193660736083984, 0.75537109375, -0.167724609375, -0.5986328125
37, 3753660534, -5.245362758636475, 1.9413814544677734, 8.119878768920898, -2.2389214038848877, -1.4400739669799805, -2.2577593326568604, 0.7578125, -0.169189453125, -0.597412109375
38, 3753677201, -5.254526615142822, 1.9566459655761719, 8.112547874450684, -2.1962506771087646, -1.345985770225525, -2.225564479827881, 0.75634765625, -0.169189453125, -0.598876953125
39, 3753693868, -5.282403945922852, 1.927276611328125, 8.098846435546875, -2.3054118156433105, -1.3113701343536377, -2.257080554962158, 0.7568359375, -0.167236328125, -0.598388671875
40, 3753710535, -5.2768964767456055, 1.9378080368041992, 8.098002433776855, -2.4712798595428467, -1.518013596534729, -2.258924961090088, 0.75830078125, -0.169189453125, -0.598388671875
41, 3753727202, -5.262088298797607, 1.9496065378189087, 8.101693153381348, -2.4656834602355957, -1.5330994129180908, -2.234093427658081, 0.759033203125, -0.167724609375, -0.595947265625
42, 3753743869, -5.227234840393066, 1.942356824874878, 8.144427299499512, -2.3782799243927, -1.4161903858184814, -2.333662748336792, 0.7568359375, -0.168701171875, -0.595458984375
43, 3753760536, -5.261501312255859, 1.9378337860107422, 8.117361068725586, -2.4779136180877686, -1.21388840675354, -2.475646734237671, 0.75537109375, -0.17041015625, -0.598388671875
44, 3753777203, -5.281686305999756, 1.9282655715942383, 8.114601135253906, -2.4301459789276123, -1.293940782546997, -2.3597235679626465, 0.7568359375, -0.167236328125, -0.596923828125
45, 3753793870, -5.27039909362793, 1.933280110359192, 8.09731674194336, -2.370685577392578, -1.360994577407837, -2.260538339614868, 0.75732421875, -0.168701171875, -0.598876953125
46, 3753810537, -5.264869689941406, 1.935246229171753, 8.114622116088867, -2.401446580886841, -1.4332226514816284, -2.2582719326019287, 0.7568359375, -0.168212890625, -0.598876953125
47, 3753827204, -5.249118328094482, 1.9427106380462646, 8.123311042785645, -2.39042067527771, -1.4029101133346558, -2.3328945636749268, 0.75634765625, -0.168701171875, -0.60009765625
48, 3753843871, -5.259275913238525, 1.943428635597229, 8.117990493774414, -2.4149444103240967, -1.278342604637146, -2.373042106628418, 0.755859375, -0.167724609375, -0.594482421875
49, 3753860538, -5.278295516967773, 1.941303014755249, 8.129796981811523, -2.4704599380493164, -1.2574938535690308, -2.3659346103668213, 0.75732421875, -0.168701171875, -0.597412109375
50, 3753877205, -5.285138130187988, 1.937526822090149, 8.11599063873291, -2.446794033050537, -1.3848788738250732, -2.3114311695098877, 0.75634765625, -0.168701171875, -0.596435546875
51, 3753893872, -5.2676520347595215, 1.9491297006607056, 8.094317436218262, -2.4302608966827393, -1.3430402278900146, -2.316117763519287, 0.75537109375, -0.168212890625, -0.595947265625
52, 3753910539, -5.262057781219482, 1.9918664693832397, 8.08439826965332, -2.399333953857422, -1.2829017639160156, -2.590660572052002, 0.759521484375, -0.167724609375, -0.596435546875
53, 3753927206, -5.233429908752441, 1.9198983907699585, 8.117166519165039, -2.6562421321868896, -1.18197500705719, -2.703536033630371, 0.7578125, -0.167724609375, -0.596435546875
54, 3753943873, -5.289788246154785, 1.9263001680374146, 8.100058555603027, -2.6356751918792725, -1.2341481447219849, -2.4838943481445312, 0.7568359375, -0.165771484375, -0.596923828125
55, 3753960540, -5.293497562408447, 1.924312710762024, 8.11335563659668, -2.5286521911621094, -1.176045536994934, -2.44909930229187, 0.75732421875, -0.166748046875, -0.597412109375
56, 3753977207, -5.2840776443481445, 1.9574363231658936, 8.09045696258545, -2.499300003051758, -1.4963836669921875, -2.3960423469543457, 0.7578125, -0.168212890625, -0.595947265625
57, 3753993874, -5.27278995513916, 1.9392915964126587, 8.115217208862305, -2.576061725616455, -1.4552626609802246, -2.4079015254974365, 0.759521484375, -0.165283203125, -0.595947265625
58, 3754010541, -5.271334648132324, 1.944911241531372, 8.109036445617676, -2.5504355430603027, -1.3881056308746338, -2.45393967628479, 0.7578125, -0.166748046875, -0.596923828125
59, 3754027208, -5.271994113922119, 1.9252595901489258, 8.111374855041504, -2.4454240798950195, -1.2824920415878296, -2.3751683235168457, 0.7568359375, -0.169677734375, -0.597900390625
60, 3754043875, -5.290472507476807, 1.930214762687683, 8.095030784606934, -2.4647483825683594, -1.3884131908416748, -2.3687775135040283, 0.75830078125, -0.164794921875, -0.595458984375
61, 3754060542, -5.295252323150635, 1.925144076347351, 8.114203453063965, -2.4541962146759033, -1.4514589309692383, -2.357879400253296, 0.7578125, -0.168701171875, -0.595947265625
62, 3754077209, -5.282204627990723, 1.930460810661316, 8.1148099899292, -2.413663864135742, -1.5015956163406372, -2.195981502532959, 0.75830078125, -0.167724609375, -0.597412109375
63, 3754093876, -5.26976203918457, 1.9548790454864502, 8.11761474609375, -2.402688980102539, -1.5222011804580688, -2.3162333965301514, 0.7578125, -0.167236328125, -0.594482421875
64, 3754110543, -5.256843090057373, 1.9159395694732666, 8.108383178710938, -2.5097503662109375, -1.5254414081573486, -2.457474708557129, 0.758544921875, -0.168212890625, -0.595947265625
65, 3754127210, -5.273056507110596, 1.931856632232666, 8.101168632507324, -2.517984390258789, -1.43661630153656, -2.462507486343384, 0.7578125, -0.166259765625, -0.598876953125
66, 3754143877, -5.25701379776001, 1.917287826538086, 8.102624893188477, -2.4798855781555176, -1.3667192459106445, -2.358583927154541, 0.759033203125, -0.164306640625, -0.595458984375
67, 3754160544, -5.2824907302856445, 1.934010624885559, 8.135610580444336, -2.4307351112365723, -1.3919991254806519, -2.3726325035095215, 0.7548828125, -0.167236328125, -0.597412109375
68, 3754177211, -5.270205974578857, 1.9182571172714233, 8.101524353027344, -2.501643657684326, -1.4140260219573975, -2.3451757431030273, 0.7578125, -0.166748046875, -0.598876953125
69, 3754193878, -5.2771220207214355, 1.921438455581665, 8.121068000793457, -2.483407735824585, -1.361161470413208, -2.3997178077697754, 0.759033203125, -0.165771484375, -0.597412109375
70, 3754210545, -5.259528160095215, 1.9320061206817627, 8.103132247924805, -2.5283703804016113, -1.3913331031799316, -2.474583864212036, 0.758544921875, -0.166748046875, -0.596435546875
71, 3754227212, -5.272165298461914, 1.9282599687576294, 8.095373153686523, -2.5443661212921143, -1.3479710817337036, -2.500901222229004, 0.75732421875, -0.167724609375, -0.595947265625
72, 3754243879, -5.276716709136963, 1.9267277717590332, 8.113737106323242, -2.5419068336486816, -1.3384941816329956, -2.435370922088623, 0.75732421875, -0.166748046875, -0.596435546875
73, 3754260546, -5.274603366851807, 1.9408962726593018, 8.09839153289795, -2.598024368286133, -1.4191741943359375, -2.4705631732940674, 0.7578125, -0.167724609375, -0.594970703125
74, 3754277213, -5.275310516357422, 1.921933889389038, 8.100741386413574, -2.5717458724975586, -1.45610773563385, -2.4931023120880127, 0.759521484375, -0.164794921875, -0.595947265625
75, 3754293880, -5.274280071258545, 1.9113152027130127, 8.076617240905762, -2.493588447570801, -1.3944706916809082, -2.419362783432007, 0.7568359375, -0.166259765625, -0.598876953125
76, 3754310547, -5.270496368408203, 1.914965033531189, 8.105262756347656, -2.5351834297180176, -1.3578317165374756, -2.3770508766174316, 0.75634765625, -0.167724609375, -0.596923828125
77, 3754327214, -5.268463611602783, 1.9246199131011963, 8.114592552185059, -2.5389997959136963, -1.367871880531311, -2.3819427490234375, 0.759521484375, -0.166748046875, -0.597900390625
78, 3754343881, -5.274532318115234, 1.9249447584152222, 8.100275993347168, -2.5969231128692627, -1.344513177871704, -2.400691032409668, 0.75732421875, -0.165283203125, -0.595458984375
79, 3754360548, -5.286243438720703, 1.930127501487732, 8.082152366638184, -2.5399601459503174, -1.2958362102508545, -2.499530553817749, 0.7578125, -0.166259765625, -0.595947265625
80, 3754377215, -5.2836012840271, 1.909900426864624, 8.114411354064941, -2.6899356842041016, -1.420070767402649, -2.519700765609741, 0.75732421875, -0.165771484375, -0.593994140625
81, 3754393882, -5.287570476531982, 1.9175928831100464, 8.12080192565918, -2.691498279571533, -1.3800381422042847, -2.508213520050049, 0.75830078125, -0.165283203125, -0.597412109375
82, 3754410549, -5.3047566413879395, 1.9091639518737793, 8.11914348602295, -2.6764891147613525, -1.4623445272445679, -2.414893865585327, 0.760009765625, -0.166259765625, -0.594482421875
83, 3754427216, -5.281276226043701, 1.9174307584762573, 8.08745288848877, -2.482651710510254, -1.583453893661499, -2.266301155090332, 0.759033203125, -0.165283203125, -0.595947265625
84, 3754443883, -5.271946430206299, 1.9128432273864746, 8.100301742553711, -2.4868907928466797, -1.539233684539795, -2.223771572113037, 0.758544921875, -0.167236328125, -0.597412109375
85, 3754460550, -5.277198791503906, 1.9079712629318237, 8.1076078414917, -2.4259965419769287, -1.3812545537948608, -2.2596421241760254, 0.7568359375, -0.165283203125, -0.596435546875
86, 3754477217, -5.2930145263671875, 1.9010218381881714, 8.096688270568848, -2.3016343116760254, -1.3629158735275269, -2.2775967121124268, 0.759521484375, -0.166748046875, -0.594482421875
87, 3754493884, -5.305798053741455, 1.915710210800171, 8.106712341308594, -2.4344232082366943, -1.3490723371505737, -2.1731224060058594, 0.758544921875, -0.166259765625, -0.594482421875
88, 3754510551, -5.302923679351807, 1.9222700595855713, 8.099546432495117, -2.3990390300750732, -1.6057881116867065, -2.2618956565856934, 0.75830078125, -0.167724609375, -0.595947265625
89, 3754527218, -5.279483318328857, 1.9256060123443604, 8.096961975097656, -2.396695613861084, -1.6325663328170776, -2.261960029602051, 0.759521484375, -0.165283203125, -0.594970703125
90, 3754543885, -5.258722305297852, 1.9316940307617188, 8.108687400817871, -2.4317338466644287, -1.5206899642944336, -2.287675380706787, 0.7578125, -0.165771484375, -0.594970703125
91, 3754560552, -5.270904541015625, 1.9126956462860107, 8.104791641235352, -2.4709725379943848, -1.3755172491073608, -2.4113590717315674, 0.759521484375, -0.164794921875, -0.595947265625
92, 3754577219, -5.294978141784668, 1.9117664098739624, 8.0952730178833, -2.4652223587036133, -1.3930363655090332, -2.334789752960205, 0.75732421875, -0.164306640625, -0.596923828125
93, 3754593886, -5.2957658767700195, 1.910292387008667, 8.098505973815918, -2.4043028354644775, -1.6172499656677246, -2.313915491104126, 0.75830078125, -0.164306640625, -0.595947265625
94, 3754610553, -5.295726776123047, 1.9225162267684937, 8.106767654418945, -2.437624454498291, -1.6302865743637085, -2.238959789276123, 0.7578125, -0.167236328125, -0.597412109375
95, 3754627220, -5.280606746673584, 1.9153625965118408, 8.10184097290039, -2.3579819202423096, -1.6231153011322021, -2.211080312728882, 0.7578125, -0.166748046875, -0.594482421875
96, 3754643887, -5.269070625305176, 1.9217262268066406, 8.111148834228516, -2.4370741844177246, -1.525031566619873, -2.300391912460327, 0.75830078125, -0.165283203125, -0.595947265625
97, 3754660554, -5.27912712097168, 1.9093294143676758, 8.094260215759277, -2.405378580093384, -1.5404119491577148, -2.271027088165283, 0.759521484375, -0.167236328125, -0.596435546875
98, 3754677221, -5.2831645011901855, 1.915148138999939, 8.131898880004883, -2.4507384300231934, -1.355539321899414, -2.2631380558013916, 0.758544921875, -0.165283203125, -0.595458984375
99, 3754693888, -5.282275676727295, 1.8993843793869019, 8.113448143005371, -2.431964159011841, -1.3796535730361938, -2.2874317169189453, 0.75732421875, -0.165771484375, -0.595458984375
100, 3754710555, -5.300626277923584, 1.9067822694778442, 8.102836608886719, -2.458665609359741, -1.4387550354003906, -2.267594814300537, 0.75732421875, -0.166748046875, -0.595458984375
101, 3754727222, -5.300683498382568, 1.9204556941986084, 8.110783576965332, -2.3710572719573975, -1.514978289604187, -2.2078657150268555, 0.759033203125, -0.167724609375, -0.596435546875
102, 3754743889, -5.295421123504639, 1.9041041135787964, 8.085895538330078, -2.433513641357422, -1.68074369430542, -2.2521374225616455, 0.759033203125, -0.165283203125, -0.596435546875
103, 3754760556, -5.279562473297119, 1.9087635278701782, 8.096061706542969, -2.3971569538116455, -1.5064237117767334, -2.2460289001464844, 0.7568359375, -0.164306640625, -0.596923828125
104, 3754777223, -5.276477336883545, 1.9127403497695923, 8.120359420776367, -2.4478440284729004, -1.459283471107483, -2.2332863807678223, 0.760986328125, -0.165771484375, -0.595947265625
105, 3754793890, -5.299013137817383, 1.9026116132736206, 8.08542537689209, -2.4324121475219727, -1.520164966583252, -2.1729557514190674, 0.759033203125, -0.166259765625, -0.598388671875
106, 3754810557, -5.282851219177246, 1.9292391538619995, 8.109736442565918, -2.4797959327697754, -1.6335011720657349, -2.2395873069763184, 0.758544921875, -0.167724609375, -0.596923828125
107, 3754827224, -5.286138534545898, 1.899598240852356, 8.110614776611328, -2.5116324424743652, -1.7235296964645386, -2.2015135288238525, 0.759033203125, -0.166259765625, -0.596435546875
108, 3754843891, -5.269856929779053, 1.9059147834777832, 8.101299285888672, -2.5159101486206055, -1.67427659034729, -2.2058939933776855, 0.759521484375, -0.165283203125, -0.59423828125
109, 3754860558, -5.2960405349731445, 1.905342936515808, 8.128029823303223, -2.4893624782562256, -1.6898363828659058, -2.2157421112060547, 0.7578125, -0.164794921875, -0.597900390625
110, 3754877225, -5.286738395690918, 1.9031505584716797, 8.088495254516602, -2.457115888595581, -1.7231842279434204, -2.2133214473724365, 0.7578125, -0.167236328125, -0.595458984375
111, 3754893892, -5.291808605194092, 1.9046550989151, 8.092546463012695, -2.3788435459136963, -1.7576844692230225, -2.126763343811035, 0.759521484375, -0.167236328125, -0.595947265625
112, 3754910559, -5.267436504364014, 1.9141346216201782, 8.10736083984375, -2.374706983566284, -1.7550204992294312, -2.0481832027435303, 0.758544921875, -0.165771484375, -0.597412109375
113, 3754927226, -5.278850078582764, 1.9099353551864624, 8.101272583007812, -2.3669722080230713, -1.7168450355529785, -2.134267807006836, 0.758544921875, -0.166259765625, -0.594482421875
114, 3754943893, -5.2808990478515625, 1.9185714721679688, 8.097661972045898, -2.3883204460144043, -1.7628581523895264, -2.1812546253204346, 0.7578125, -0.166259765625, -0.59375
115, 3754960560, -5.29150390625, 1.904531478881836, 8.097652435302734, -2.40887451171875, -1.799381971359253, -2.118849277496338, 0.7568359375, -0.167236328125, -0.596923828125
116, 3754977227, -5.299063682556152, 1.900534987449646, 8.102463722229004, -2.3923287391662598, -1.91796875, -2.0470821857452393, 0.7578125, -0.166259765625, -0.596923828125
117, 3754993894, -5.305067539215088, 1.898630142211914, 8.080893516540527, -2.3352506160736084, -1.9388426542282104, -1.9544153213500977, 0.7568359375, -0.166748046875, -0.595458984375
118, 3755010561, -5.270680904388428, 1.902850866317749, 8.125234603881836, -2.3157851696014404, -1.8942127227783203, -1.940456509590149, 0.755859375, -0.166748046875, -0.598388671875
119, 3755027228, -5.283648490905762, 1.9064393043518066, 8.126371383666992, -2.340385913848877, -1.8088712692260742, -1.9710124731063843, 0.7568359375, -0.165283203125, -0.595458984375
120, 3755043895, -5.283790111541748, 1.9463160037994385, 8.114718437194824, -2.287867307662964, -1.8394402265548706, -2.0721187591552734, 0.752685546875, -0.166259765625, -0.595947265625
121, 3755060562, -5.273144721984863, 1.9140599966049194, 8.108039855957031, -2.345470428466797, -1.6896955966949463, -2.1476504802703857, 0.75732421875, -0.168212890625, -0.595458984375
122, 3755077229, -5.271914005279541, 1.9176031351089478, 8.083569526672363, -2.398719310760498, -1.6967389583587646, -2.1863386631011963, 0.759521484375, -0.164794921875, -0.597412109375
123, 3755093896, -5.263036727905273, 1.923288345336914, 8.105354309082031, -2.4379830360412598, -1.75993812084198, -2.219020128250122, 0.75732421875, -0.165771484375, -0.59912109375
124, 3755110563, -5.264366626739502, 1.9222025871276855, 8.108024597167969, -2.3222780227661133, -1.642043113708496, -2.2556722164154053, 0.75537109375, -0.167236328125, -0.595947265625
125, 3755127230, -5.276585102081299, 1.9201829433441162, 8.109858512878418, -2.4625203609466553, -1.6269057989120483, -2.2562098503112793, 0.759033203125, -0.163818359375, -0.597900390625
126, 3755143897, -5.284031867980957, 1.930586338043213, 8.117758750915527, -2.352705955505371, -1.5839149951934814, -2.315375328063965, 0.758544921875, -0.165771484375, -0.595458984375
127, 3755160564, -5.282925128936768, 1.9053205251693726, 8.123064994812012, -2.2777888774871826, -1.5203827619552612, -2.1899499893188477, 0.75634765625, -0.165283203125, -0.597412109375
128, 3755177231, -5.277921199798584, 1.9217045307159424, 8.122180938720703, -2.368431806564331, -1.5125963687896729, -2.1818690299987793, 0.7578125, -0.166259765625, -0.598876953125
129, 3755193898, -5.276968002319336, 1.923978567123413, 8.100367546081543, -2.3774349689483643, -1.4538921117782593, -2.2475788593292236, 0.75732421875, -0.166748046875, -0.597412109375
130, 3755210565, -5.281070709228516, 1.9103062152862549, 8.081805229187012, -2.316873550415039, -1.606261968612671, -2.1784114837646484, 0.75830078125, -0.165771484375, -0.595458984375
131, 3755227232, -5.282598495483398, 1.9129993915557861, 8.093530654907227, -2.503129243850708, -1.5449581146240234, -2.2719361782073975, 0.7578125, -0.166748046875, -0.596923828125
132, 3755243899, -5.2776288986206055, 1.9092942476272583, 8.139334678649902, -2.4427473545074463, -1.5060651302337646, -2.2380764484405518, 0.75732421875, -0.167236328125, -0.597412109375
133, 3755260566, -5.261041641235352, 1.9142115116119385, 8.1367769241333, -2.4619956016540527, -1.5569705963134766, -2.217496395111084, 0.759033203125, -0.168701171875, -0.595458984375
134, 3755277233, -5.267172813415527, 1.9171725511550903, 8.09778881072998, -2.4796040058135986, -1.4225038290023804, -2.3123531341552734, 0.75439453125, -0.166748046875, -0.59814453125
135, 3755293900, -5.264249324798584, 1.9134211540222168, 8.128890037536621, -2.5748062133789062, -1.3796536922454834, -2.288686990737915, 0.75732421875, -0.166259765625, -0.595947265625
136, 3755310567, -5.258164405822754, 1.9065455198287964, 8.137126922607422, -2.461137533187866, -1.353541612625122, -2.3089592456817627, 0.75830078125, -0.165283203125, -0.6005859375
137, 3755327234, -5.30644416809082, 1.912627100944519, 8.117588996887207, -2.4980063438415527, -1.4213510751724243, -2.2355659008026123, 0.7568359375, -0.163818359375, -0.5986328125
138, 3755343901, -5.277074813842773, 1.9118707180023193, 8.106096267700195, -2.49748158454895, -1.4712191820144653, -2.204254627227783, 0.7578125, -0.167236328125, -0.596435546875
139, 3755360568, -5.292737007141113, 1.9046664237976074, 8.107527732849121, -2.439455986022949, -1.5005584955215454, -2.219712018966675, 0.759521484375, -0.165283203125, -0.595458984375
140, 3755377235, -5.268857955932617, 1.9152973890304565, 8.118059158325195, -2.4836509227752686, -1.6767610311508179, -2.0989224910736084, 0.75732421875, -0.164794921875, -0.596435546875
141, 3755393902, -5.281623363494873, 1.9214502573013306, 8.101932525634766, -2.4785282611846924, -1.6468710899353027, -2.172213315963745, 0.75634765625, -0.165283203125, -0.594970703125
142, 3755410569, -5.271240234375, 1.9242295026779175, 8.102400779724121, -2.5084049701690674, -1.679847240447998, -2.1637096405029297, 0.75830078125, -0.166748046875, -0.597900390625
143, 3755427236, -5.277885437011719, 1.9117887020111084, 8.085345268249512, -2.4748141765594482, -1.5802778005599976, -2.172545909881592, 0.75830078125, -0.166259765625, -0.597412109375
144, 3755443903, -5.2958550453186035, 1.900256872177124, 8.103927612304688, -2.410090923309326, -1.7179077863693237, -2.2274980545043945, 0.75732421875, -0.167236328125, -0.597900390625
145, 3755460570, -5.300093173980713, 1.9052953720092773, 8.10711669921875, -2.4024455547332764, -1.7665207386016846, -2.11907958984375, 0.7568359375, -0.166259765625, -0.595947265625
146, 3755477237, -5.279355525970459, 1.901254653930664, 8.107651710510254, -2.335160970687866, -1.7361055612564087, -1.9218997955322266, 0.75732421875, -0.167236328125, -0.597412109375
147, 3755493904, -5.2754621505737305, 1.9281926155090332, 8.105447769165039, -2.363783121109009, -1.6508152484893799, -2.003566265106201, 0.75830078125, -0.168212890625, -0.596435546875
148, 3755510571, -5.2937331199646, 1.9139429330825806, 8.127401351928711, -2.286522626876831, -1.7249770164489746, -1.9915796518325806, 0.75732421875, -0.166259765625, -0.596923828125
149, 3755527238, -5.281905174255371, 1.9208589792251587, 8.103476524353027, -2.2585790157318115, -1.7748191356658936, -2.016077756881714, 0.75634765625, -0.166748046875, -0.595458984375
150, 3755543905, -5.278997421264648, 1.9174339771270752, 8.104387283325195, -2.3404242992401123, -1.894033432006836, -2.0622832775115967, 0.7568359375, -0.164794921875, -0.594970703125
151, 3755560572, -5.264407157897949, 1.92556631565094, 8.073765754699707, -2.465977907180786, -1.8232272863388062, -2.048759937286377, 0.7578125, -0.167236328125, -0.597900390625
152, 3755577239, -5.2715744972229, 1.9175798892974854, 8.104735374450684, -2.439276695251465, -1.9086840152740479, -2.061169147491455, 0.7568359375, -0.165771484375, -0.595947265625
153, 3755593906, -5.295442581176758, 1.9381587505340576, 8.113031387329102, -2.3541786670684814, -2.0050134658813477, -1.9232064485549927, 0.7568359375, -0.165283203125, -0.598388671875
154, 3755610573, -5.26378870010376, 1.8994262218475342, 8.118379592895508, -2.336082935333252, -1.8321917057037354, -1.918493628501892, 0.75537109375, -0.164794921875, -0.597900390625
155, 3755627240, -5.263956069946289, 1.921634554862976, 8.109724044799805, -2.2656097412109375, -1.6632758378982544, -1.784270167350769, 0.7578125, -0.165771484375, -0.595458984375
156, 3755643907, -5.266858100891113, 1.9164056777954102, 8.104515075683594, -2.1837515830993652, -1.6091945171356201, -1.874234914779663, 0.755859375, -0.166748046875, -0.595458984375
157, 3755660574, -5.279212474822998, 1.9255177974700928, 8.12773323059082, -2.141362190246582, -1.6346279382705688, -1.7773289680480957, 0.75634765625, -0.165283203125, -0.596923828125
158, 3755677241, -5.269895076751709, 1.9117677211761475, 8.10452938079834, -2.0266690254211426, -1.6345256567001343, -1.805631160736084, 0.75634765625, -0.168212890625, -0.597412109375
159, 3755693908, -5.269824504852295, 1.918601393699646, 8.113224029541016, -2.0598883628845215, -1.6950099468231201, -1.7531635761260986, 0.75634765625, -0.167236328125, -0.597900390625
160, 3755710575, -5.26840877532959, 1.9306447505950928, 8.097692489624023, -2.1926519870758057, -1.7991384267807007, -1.7145780324935913, 0.755859375, -0.168212890625, -0.595947265625
161, 3755727242, -5.259087085723877, 1.9516230821609497, 8.138402938842773, -2.228855609893799, -1.8030954599380493, -1.8327423334121704, 0.75390625, -0.166748046875, -0.596435546875
162, 3755743909, -5.257652282714844, 1.9228484630584717, 8.114102363586426, -2.296985387802124, -1.7764970064163208, -1.9184426069259644, 0.75537109375, -0.167724609375, -0.599609375
163, 3755760576, -5.2587714195251465, 1.9505741596221924, 8.114322662353516, -2.3553054332733154, -1.7574409246444702, -1.9582573175430298, 0.75537109375, -0.168701171875, -0.59912109375
164, 3755777243, -5.252920627593994, 1.8713054656982422, 8.128599166870117, -2.2019364833831787, -1.7376166582107544, -1.9724467992782593, 0.7548828125, -0.167724609375, -0.598388671875
165, 3755793910, -5.260980129241943, 1.926514983177185, 8.115166664123535, -2.2436087131500244, -1.6900666952133179, -1.8464323282241821, 0.7568359375, -0.167724609375, -0.595947265625
166, 3755810577, -5.279139995574951, 1.932625412940979, 8.102059364318848, -2.2178292274475098, -1.724707841873169, -1.8914979696273804, 0.75732421875, -0.165771484375, -0.598388671875
167, 3755827244, -5.2762627601623535, 1.9232360124588013, 8.102258682250977, -2.223284959793091, -1.8907805681228638, -1.8636696338653564, 0.75830078125, -0.167724609375, -0.597412109375
168, 3755843911, -5.254578113555908, 1.9421402215957642, 8.121789932250977, -2.24166202545166, -1.9403924942016602, -1.9947172403335571, 0.755859375, -0.168212890625, -0.597412109375
169, 3755860578, -5.242388725280762, 1.9329901933670044, 8.126442909240723, -2.253084897994995, -1.881150245666504, -1.8963130712509155, 0.75537109375, -0.168701171875, -0.598388671875
170, 3755877245, -5.252187728881836, 1.935766339302063, 8.101435661315918, -2.296536922454834, -1.7024121284484863, -2.0026185512542725, 0.755859375, -0.170166015625, -0.598388671875
171, 3755893912, -5.283041477203369, 1.9226620197296143, 8.108574867248535, -2.2118358612060547, -1.898605227470398, -1.8961081504821777, 0.75537109375, -0.168212890625, -0.60009765625
172, 3755910579, -5.283343315124512, 1.9136751890182495, 8.104982376098633, -2.238165855407715, -2.04356050491333, -1.6605098247528076, 0.75341796875, -0.167724609375, -0.599609375
173, 3755927246, -5.261744022369385, 1.9309555292129517, 8.1129789352417, -2.17018985748291, -2.25150990486145, -1.6824853420257568, 0.7548828125, -0.168212890625, -0.599609375
174, 3755943913, -5.210785865783691, 1.9582929611206055, 8.125463485717773, -2.249960422515869, -2.236449956893921, -1.7222108840942383, 0.7568359375, -0.169677734375, -0.598388671875
175, 3755960580, -5.284545421600342, 1.9215967655181885, 8.164448738098145, -2.219135284423828, -1.9970217943191528, -1.7163965702056885, 0.755859375, -0.170166015625, -0.596923828125
176, 3755977247, -5.23054838180542, 1.9342339038848877, 8.120962142944336, -2.0202910900115967, -2.026771068572998, -1.5361216068267822, 0.7568359375, -0.169921875, -0.598876953125
177, 3755993914, -5.239637851715088, 1.9420982599258423, 8.125102996826172, -2.055009365081787, -2.0929412841796875, -1.5699301958084106, 0.75634765625, -0.168212890625, -0.598388671875
178, 3756010581, -5.241415500640869, 1.9519673585891724, 8.107855796813965, -2.229624032974243, -2.2170228958129883, -1.6430164575576782, 0.7548828125, -0.171875, -0.599609375
179, 3756027248, -5.247757434844971, 1.9508192539215088, 8.1132173538208, -2.260833263397217, -2.2697594165802, -1.7317131757736206, 0.75537109375, -0.17041015625, -0.59912109375
180, 3756043915, -5.230517864227295, 1.945152759552002, 8.113678932189941, -2.2363603115081787, -2.1833932399749756, -1.8653472661972046, 0.752197265625, -0.170654296875, -0.59912109375
181, 3756060582, -5.2291693687438965, 1.9535198211669922, 8.109029769897461, -2.277609348297119, -2.0820565223693848, -1.820281982421875, 0.751708984375, -0.168701171875, -0.60009765625
182, 3756077249, -5.233590602874756, 1.9423526525497437, 8.127945899963379, -2.210516929626465, -1.9202735424041748, -1.8603655099868774, 0.752685546875, -0.170654296875, -0.6005859375
183, 3756093916, -5.2298784255981445, 1.947842001914978, 8.131327629089355, -2.13598370552063, -1.8183863162994385, -1.7717584371566772, 0.753173828125, -0.170166015625, -0.60009765625
184, 3756110583, -5.237583637237549, 1.9510486125946045, 8.15474796295166, -2.1386475563049316, -1.8622736930847168, -1.8871307373046875, 0.753173828125, -0.170166015625, -0.599609375
185, 3756127250, -5.2465972900390625, 1.928670883178711, 8.129733085632324, -2.110563278198242, -1.7436100244522095, -1.8008545637130737, 0.75732421875, -0.17041015625, -0.60009765625
186, 3756143917, -5.213944435119629, 1.9781936407089233, 8.105277061462402, -2.1208338737487793, -1.942108392715454, -1.8197309970855713, 0.75390625, -0.1708984375, -0.599609375
187, 3756160584, -5.2124152183532715, 1.987959861755371, 8.167900085449219, -2.1958022117614746, -1.7346585988998413, -1.9749054908752441, 0.7548828125, -0.171875, -0.605224609375
188, 3756177251, -5.254699230194092, 1.918304204940796, 8.11729907989502, -2.0863335132598877, -1.8271586894989014, -2.0910589694976807, 0.752685546875, -0.168701171875, -0.5986328125
189, 3756193918, -5.227648735046387, 1.9680473804473877, 8.108234405517578, -2.291722059249878, -1.751217007637024, -1.920811414718628, 0.75439453125, -0.17138671875, -0.6005859375
190, 3756210585, -5.220981597900391, 1.9338716268539429, 8.125831604003906, -2.0921220779418945, -1.7134640216827393, -1.777534008026123, 0.7548828125, -0.170166015625, -0.598388671875
191, 3756227252, -5.206604480743408, 1.9746640920639038, 8.10607624053955, -2.154360771179199, -1.5939806699752808, -1.85707426071167, 0.7548828125, -0.17138671875, -0.60107421875
192, 3756243919, -5.244922161102295, 1.9674335718154907, 8.120936393737793, -2.291247844696045, -1.6245750188827515, -2.1541175842285156, 0.753173828125, -0.17236328125, -0.599609375
193, 3756260586, -5.226946830749512, 1.951338768005371, 8.1231689453125, -2.3303334712982178, -1.6744943857192993, -2.1116390228271484, 0.75390625, -0.171875, -0.60009765625
194, 3756277253, -5.226434707641602, 1.957766056060791, 8.141697883605957, -2.3127498626708984, -1.6913602352142334, -2.014784574508667, 0.75537109375, -0.171875, -0.60009765625
195, 3756293920, -5.228211879730225, 1.9523359537124634, 8.119791030883789, -2.3058600425720215, -1.6970974206924438, -1.9793621301651, 0.75341796875, -0.171875, -0.5986328125
196, 3756310587, -5.241086483001709, 1.9598686695098877, 8.121152877807617, -2.2815027236938477, -1.7994844913482666, -2.0008769035339355, 0.75341796875, -0.173828125, -0.599609375
197, 3756327254, -5.237931728363037, 1.9795067310333252, 8.136096000671387, -2.356982946395874, -1.9903373718261719, -1.980847954750061, 0.753173828125, -0.1728515625, -0.60009765625
198, 3756343921, -5.2213454246521, 1.954993724822998, 8.158156394958496, -2.389050245285034, -1.9532504081726074, -1.9502408504486084, 0.752197265625, -0.170166015625, -0.60107421875
199, 3756360588, -5.226848602294922, 1.9649651050567627, 8.137246131896973, -2.564138650894165, -1.8608139753341675, -2.034558057785034, 0.75390625, -0.170166015625, -0.6005859375
200, 3756377255, -5.2301106452941895, 1.9902846813201904, 8.110568046569824, -3.030878782272339, -1.8705209493637085, -2.288494348526001, 0.75390625, -0.17138671875, -0.6015625
201, 3756393922, -5.281039237976074, 2.001847743988037, 8.098936080932617, -2.514296770095825, -2.2096080780029297, -2.0759737491607666, 0.75341796875, -0.169189453125, -0.597412109375
202, 3756410589, -5.167763710021973, 1.8934736251831055, 8.172689437866211, -2.6172597408294678, -2.068814754486084, -2.0698904991149902, 0.7548828125, -0.170654296875, -0.60009765625
203, 3756427256, -5.265553951263428, 1.932421088218689, 8.134724617004395, -2.4544010162353516, -1.9574891328811646, -1.844895601272583, 0.752685546875, -0.170654296875, -0.60009765625
204, 3756443923, -5.20751428604126, 1.9547020196914673, 8.145119667053223, -2.174966335296631, -1.9485119581222534, -1.8522207736968994, 0.753173828125, -0.17236328125, -0.6005859375
205, 3756460590, -5.1961669921875, 1.9948252439498901, 8.131436347961426, -2.2700023651123047, -1.908043622970581, -1.9645195007324219, 0.75439453125, -0.17138671875, -0.6015625
206, 3756477257, -5.196374416351318, 1.9718321561813354, 8.14953327178955, -2.3625028133392334, -1.7609115839004517, -2.3613758087158203, 0.75390625, -0.17236328125, -0.6005859375
207, 3756493924, -5.228248119354248, 1.948425054550171, 8.137823104858398, -2.2246930599212646, -1.7012978792190552, -1.9962024688720703, 0.752685546875, -0.1728515625, -0.6005859375
208, 3756510591, -5.2488112449646, 1.9457049369812012, 8.130132675170898, -2.158510208129883, -1.7500004768371582, -2.0246965885162354, 0.752685546875, -0.17236328125, -0.6015625
209, 3756527258, -5.205043315887451, 1.9563910961151123, 8.15109920501709, -2.07003116607666, -1.791185736656189, -1.8897178173065186, 0.752685546875, -0.170654296875, -0.6025390625
210, 3756543925, -5.175271987915039, 2.0058515071868896, 8.142411231994629, -2.0467236042022705, -1.6438742876052856, -2.0489132404327393, 0.75390625, -0.170654296875, -0.6005859375
211, 3756560592, -5.214881420135498, 1.9715286493301392, 8.113524436950684, -2.217893600463867, -1.4828473329544067, -2.190154790878296, 0.753173828125, -0.17138671875, -0.603515625
212, 3756577259, -5.205702781677246, 1.9643696546554565, 8.126927375793457, -2.095682144165039, -1.530038595199585, -2.1268913745880127, 0.750732421875, -0.171630859375, -0.60009765625
213, 3756593926, -5.202369689941406, 1.9878064393997192, 8.154138565063477, -2.1704204082489014, -1.4501142501831055, -2.192690849304199, 0.752685546875, -0.170654296875, -0.60107421875
214, 3756610593, -5.23065185546875, 1.9670970439910889, 8.139763832092285, -2.2127833366394043, -1.430046558380127, -2.2203006744384766, 0.75439453125, -0.17333984375, -0.60009765625
215, 3756627260, -5.2055559158325195, 1.9751328229904175, 8.139094352722168, -2.255889654159546, -1.4513051509857178, -2.161071538925171, 0.751220703125, -0.171875, -0.6015625
216, 3756643927, -5.2366533279418945, 1.963179588317871, 8.138540267944336, -2.3349690437316895, -1.5329073667526245, -2.167090654373169, 0.749755859375, -0.17333984375, -0.6015625
217, 3756660594, -5.227741718292236, 1.9460186958312988, 8.138768196105957, -2.175337791442871, -1.6664645671844482, -2.0364272594451904, 0.755859375, -0.171875, -0.60009765625
218, 3756677261, -5.218822956085205, 1.9476479291915894, 8.14094066619873, -2.138404369354248, -1.774307131767273, -1.9863033294677734, 0.7548828125, -0.171875, -0.60205078125
219, 3756693928, -5.17310094833374, 2.024095058441162, 8.134223937988281, -2.1236510276794434, -1.488059401512146, -2.008573293685913, 0.751220703125, -0.17236328125, -0.6005859375
220, 3756710595, -5.201656818389893, 1.9828656911849976, 8.160313606262207, -2.1293628215789795, -1.2041041851043701, -2.2611019611358643, 0.75341796875, -0.17529296875, -0.59912109375
221, 3756727262, -5.2096381187438965, 1.9917702674865723, 8.150399208068848, -2.247706174850464, -1.2002365589141846, -2.223182201385498, 0.75341796875, -0.17236328125, -0.59912109375
222, 3756743929, -5.236856460571289, 1.9852375984191895, 8.151418685913086, -2.3142735958099365, -1.2691220045089722, -2.244107484817505, 0.752197265625, -0.17431640625, -0.597900390625
223, 3756760596, -5.250714302062988, 1.960163950920105, 8.143350601196289, -2.33746600151062, -1.377169132232666, -2.2415847778320312, 0.75390625, -0.17431640625, -0.60009765625
224, 3756777263, -5.219718933105469, 1.969072937965393, 8.118620872497559, -2.2722432613372803, -1.5673818588256836, -2.048733949661255, 0.753173828125, -0.171875, -0.60107421875
225, 3756793930, -5.193354606628418, 1.968215823173523, 8.166460990905762, -2.1853013038635254, -1.6238069534301758, -2.129849910736084, 0.75390625, -0.1728515625, -0.6015625
226, 3756810597, -5.193178176879883, 1.9899603128433228, 8.16445255279541, -2.26893949508667, -1.374172568321228, -2.2492690086364746, 0.75341796875, -0.17138671875, -0.5986328125
227, 3756827264, -5.229188919067383, 1.9747461080551147, 8.149053573608398, -2.1922802925109863, -1.3357021808624268, -2.252214193344116, 0.753173828125, -0.17236328125, -0.599609375
228, 3756843931, -5.217038631439209, 1.9690358638763428, 8.139121055603027, -2.283231019973755, -1.3205138444900513, -2.2959349155426025, 0.7548828125, -0.171875, -0.599609375
229, 3756860598, -5.229994773864746, 1.9729626178741455, 8.124556541442871, -2.249397039413452, -1.2704284191131592, -2.1790390014648438, 0.75390625, -0.17236328125, -0.6005859375
230, 3756877265, -5.202424049377441, 1.9784414768218994, 8.133771896362305, -2.273895502090454, -1.255739450454712, -2.235553503036499, 0.75390625, -0.17333984375, -0.6005859375
231, 3756893932, -5.21084451675415, 1.9914908409118652, 8.139875411987305, -2.301006555557251, -1.2856166362762451, -2.3241987228393555, 0.752685546875, -0.17138671875, -0.59912109375
232, 3756910599, -5.240410804748535, 1.9802436828613281, 8.134353637695312, -2.29827880859375, -1.2165520191192627, -2.331613779067993, 0.752685546875, -0.17333984375, -0.599609375
233, 3756927266, -5.2373948097229, 1.9666475057601929, 8.141100883483887, -2.2618188858032227, -1.430930256843567, -2.2825398445129395, 0.75390625, -0.171875, -0.59912109375
234, 3756943933, -5.231683254241943, 1.9802613258361816, 8.131976127624512, -2.372222661972046, -1.5004560947418213, -2.2944495677948, 0.75341796875, -0.17333984375, -0.59912109375
235, 3756960600, -5.234663963317871, 1.9819934368133545, 8.134346961975098, -2.317795515060425, -1.4490128755569458, -2.2783775329589844, 0.75390625, -0.17333984375, -0.598876953125
236, 3756977267, -5.219358444213867, 1.9742296934127808, 8.128162384033203, -2.3481979370117188, -1.382061243057251, -2.2897114753723145, 0.753173828125, -0.1728515625, -0.5986328125
237, 3756993934, -5.224118232727051, 1.9731130599975586, 8.146480560302734, -2.317744493484497, -1.3083992004394531, -2.2843070030212402, 0.752197265625, -0.17431640625, -0.59912109375
238, 3757010601, -5.23347806930542, 1.9704909324645996, 8.126091003417969, -2.302184581756592, -1.2764856815338135, -2.298278570175171, 0.753173828125, -0.17333984375, -0.59912109375
239, 3757027268, -5.2199201583862305, 1.9795771837234497, 8.114352226257324, -2.3011603355407715, -1.3477660417556763, -2.2704508304595947, 0.752685546875, -0.17138671875, -0.6015625
240, 3757043935, -5.221540451049805, 1.985495686531067, 8.117475509643555, -2.3363261222839355, -1.3709708452224731, -2.278454542160034, 0.753173828125, -0.1728515625, -0.597900390625
241, 3757060602, -5.21951961517334, 1.9721299409866333, 8.128203392028809, -2.3839664459228516, -1.4657636880874634, -2.3119306564331055, 0.752685546875, -0.1748046875, -0.6015625
242, 3757077269, -5.243607044219971, 1.9707666635513306, 8.129469871520996, -2.3229823112487793, -1.336944580078125, -2.3289756774902344, 0.753662109375, -0.17333984375, -0.60009765625
243, 3757093936, -5.229769229888916, 1.9574322700500488, 8.145380020141602, -2.2287914752960205, -1.419583797454834, -2.3421530723571777, 0.753173828125, -0.173828125, -0.6005859375
244, 3757110603, -5.221837997436523, 1.9926527738571167, 8.13658332824707, -2.3191404342651367, -1.3114597797393799, -2.263240337371826, 0.752197265625, -0.17333984375, -0.597412109375
245, 3757127270, -5.2103142738342285, 1.9708614349365234, 8.114620208740234, -2.3241989612579346, -1.0923432111740112, -2.3203184604644775, 0.752197265625, -0.1748046875, -0.6015625
246, 3757143937, -5.2258453369140625, 2.003352642059326, 8.120536804199219, -2.1896040439605713, -0.9245800971984863, -2.351463556289673, 0.75390625, -0.1728515625, -0.59912109375
247, 3757160604, -5.24291467666626, 1.9646210670471191, 8.122284889221191, -2.152350664138794, -0.9345689415931702, -2.399961233139038, 0.75341796875, -0.1748046875, -0.597900390625
248, 3757177271, -5.264540672302246, 1.968934178352356, 8.131972312927246, -2.2039215564727783, -1.2220970392227173, -2.440877676010132, 0.75439453125, -0.173828125, -0.60107421875
249, 3757193938, -5.239861965179443, 1.9745204448699951, 8.118764877319336, -2.378753900527954, -1.4399718046188354, -2.2473866939544678, 0.75390625, -0.1728515625, -0.59912109375
250, 3757210605, -5.229336738586426, 1.9473724365234375, 8.124255180358887, -2.34687876701355, -1.5465333461761475, -2.223374605178833, 0.753662109375, -0.17333984375, -0.6005859375
251, 3757227272, -5.219478607177734, 1.9905471801757812, 8.119791984558105, -2.377511501312256, -1.557546615600586, -2.229841470718384, 0.75439453125, -0.1728515625, -0.59912109375
252, 3757243939, -5.218730926513672, 1.994260311126709, 8.13294792175293, -2.471574306488037, -1.4309942722320557, -2.2903385162353516, 0.753173828125, -0.1748046875, -0.59912109375
253, 3757260606, -5.226296424865723, 1.9790751934051514, 8.127954483032227, -2.4072482585906982, -1.4304437637329102, -2.3613760471343994, 0.75439453125, -0.17236328125, -0.60009765625
254, 3757277273, -5.246375560760498, 1.9742923974990845, 8.134448051452637, -2.386540174484253, -1.5354303121566772, -2.3407959938049316, 0.752685546875, -0.17138671875, -0.5986328125
255, 3757293940, -5.215302467346191, 1.943833827972412, 8.135653495788574, -2.2894678115844727, -1.344205617904663, -2.2297134399414062, 0.752197265625, -0.17431640625, -0.598388671875
256, 3757310607, -5.252821445465088, 2.0053791999816895, 8.078312873840332, -2.2087111473083496, -1.3956999778747559, -2.155923366546631, 0.75341796875, -0.17236328125, -0.597900390625
257, 3757327274, -5.24183464050293, 1.9686461687088013, 8.119142532348633, -2.2423019409179688, -1.5556511878967285, -2.1920628547668457, 0.752685546875, -0.17431640625, -0.599609375
258, 3757343941, -5.23881196975708, 1.9811809062957764, 8.116320610046387, -2.2065725326538086, -1.6055320501327515, -2.135343313217163, 0.75390625, -0.17333984375, -0.598388671875
259, 3757360608, -5.230481147766113, 1.977974534034729, 8.13173770904541, -2.261242628097534, -1.6116406917572021, -2.1159675121307373, 0.75439453125, -0.17333984375, -0.599609375
260, 3757377275, -5.233550548553467, 1.9558706283569336, 8.122811317443848, -2.266634225845337, -1.6615725755691528, -2.1182851791381836, 0.75341796875, -0.17431640625, -0.597412109375
261, 3757393942, -5.246228218078613, 1.9443567991256714, 8.147212028503418, -2.134331703186035, -1.6451164484024048, -1.9906704425811768, 0.75634765625, -0.171875, -0.598388671875
262, 3757410609, -5.211721897125244, 2.0096232891082764, 8.11467456817627, -2.1818816661834717, -1.6833561658859253, -1.9586799144744873, 0.7548828125, -0.171875, -0.599609375
263, 3757427276, -5.226741790771484, 1.9726598262786865, 8.128073692321777, -2.1924729347229004, -1.6664648056030273, -1.9289822578430176, 0.752197265625, -0.17333984375, -0.599609375
264, 3757443943, -5.227353572845459, 2.0007083415985107, 8.125969886779785, -2.1868247985839844, -1.543933391571045, -2.162569522857666, 0.753173828125, -0.171875, -0.599609375
265, 3757460610, -5.233875751495361, 1.979435682296753, 8.145895957946777, -2.2723841667175293, -1.4836283922195435, -2.1531827449798584, 0.752685546875, -0.173828125, -0.59912109375
266, 3757477277, -5.243141174316406, 1.978651523590088, 8.123302459716797, -2.2322490215301514, -1.6419275999069214, -2.1579465866088867, 0.75341796875, -0.17431640625, -0.597900390625
267, 3757493944, -5.239107608795166, 1.9684388637542725, 8.111262321472168, -2.1946113109588623, -1.6088743209838867, -2.0047569274902344, 0.7548828125, -0.17236328125, -0.59912109375
268, 3757510611, -5.209745407104492, 2.0018670558929443, 8.145174980163574, -2.1833159923553467, -1.685879111289978, -2.105133056640625, 0.75390625, -0.1748046875, -0.599365234375
269, 3757527278, -5.215662479400635, 2.004119396209717, 8.130450248718262, -2.255018711090088, -1.4221450090408325, -2.2006428241729736, 0.75390625, -0.17529296875, -0.599609375
270, 3757543945, -5.24879264831543, 1.992600679397583, 8.135937690734863, -2.255748987197876, -1.4719874858856201, -2.333522081375122, 0.75390625, -0.1728515625, -0.597900390625
271, 3757560612, -5.239226341247559, 1.9884216785430908, 8.118528366088867, -2.3291547298431396, -1.4884307384490967, -2.1891047954559326, 0.75439453125, -0.17431640625, -0.60009765625
272, 3757577279, -5.224072456359863, 1.9731371402740479, 8.138680458068848, -2.30063533782959, -1.5433828830718994, -2.249870777130127, 0.75341796875, -0.17333984375, -0.597900390625
273, 3757593946, -5.190045356750488, 2.0020413398742676, 8.133100509643555, -2.38887095451355, -1.5122506618499756, -2.3421149253845215, 0.75390625, -0.17529296875, -0.60009765625
274, 3757610613, -5.234908103942871, 1.9862831830978394, 8.128361701965332, -2.3816096782684326, -1.2726823091506958, -2.474801778793335, 0.7529296875, -0.17333984375, -0.596923828125
275, 3757627280, -5.242640495300293, 1.9820274114608765, 8.133305549621582, -2.3802011013031006, -1.2515391111373901, -2.4224493503570557, 0.7548828125, -0.17431640625, -0.597900390625
276, 3757643947, -5.255361557006836, 1.9942399263381958, 8.134089469909668, -2.4023172855377197, -1.375030517578125, -2.300788640975952, 0.75341796875, -0.1728515625, -0.598876953125
277, 3757660614, -5.242987632751465, 1.9694266319274902, 8.144973754882812, -2.43188738822937, -1.4901084899902344, -2.2195582389831543, 0.7548828125, -0.1728515625, -0.60107421875
278, 3757677281, -5.2145676612854, 1.9865984916687012, 8.117865562438965, -2.416942596435547, -1.4828473329544067, -2.312391519546509, 0.75439453125, -0.17333984375, -0.598876953125
279, 3757693948, -5.207885265350342, 1.986289143562317, 8.120401382446289, -2.4924228191375732, -1.5382987260818481, -2.4084134101867676, 0.75390625, -0.17626953125, -0.598876953125
280, 3757710615, -5.228193759918213, 1.9877839088439941, 8.127352714538574, -2.561462163925171, -1.3906160593032837, -2.3199985027313232, 0.75439453125, -0.17529296875, -0.6005859375
281, 3757727282, -5.2476806640625, 1.9923871755599976, 8.123981475830078, -2.4212965965270996, -1.532177448272705, -2.3123531341552734, 0.75439453125, -0.17431640625, -0.599609375
282, 3757743949, -5.245724678039551, 1.9990414381027222, 8.11386489868164, -2.6916775703430176, -1.6100659370422363, -2.398834705352783, 0.7548828125, -0.1728515625, -0.597900390625
283, 3757760616, -5.234493732452393, 1.9838217496871948, 8.130541801452637, -2.8613226413726807, -1.6980962753295898, -2.4601638317108154, 0.7548828125, -0.17333984375, -0.598876953125
284, 3757777283, -5.217620372772217, 1.9640181064605713, 8.132328987121582, -2.669560432434082, -1.6377017498016357, -2.329974412918091, 0.7548828125, -0.1728515625, -0.599365234375
285, 3757793950, -5.243244647979736, 1.9895647764205933, 8.13385009765625, -2.678307294845581, -1.4662120342254639, -2.457449197769165, 0.752197265625, -0.17333984375, -0.595947265625
286, 3757810617, -5.253228664398193, 1.962477445602417, 8.113826751708984, -2.5706191062927246, -1.5649362802505493, -2.3319342136383057, 0.75390625, -0.17333984375, -0.595947265625
287, 3757827284, -5.23380184173584, 1.9844216108322144, 8.123784065246582, -2.483433246612549, -1.616430401802063, -2.197697639465332, 0.752685546875, -0.1748046875, -0.597900390625
288, 3757843951, -5.238065719604492, 1.977437973022461, 8.134628295898438, -2.45556640625, -1.6077860593795776, -2.2186617851257324, 0.75390625, -0.17138671875, -0.60009765625
289, 3757860618, -5.243019104003906, 1.9872806072235107, 8.134227752685547, -2.4108593463897705, -1.5351357460021973, -2.2923367023468018, 0.75537109375, -0.1728515625, -0.598388671875
290, 3757877285, -5.251192092895508, 1.958337664604187, 8.120882034301758, -2.343587875366211, -1.704691767692566, -2.1954567432403564, 0.75634765625, -0.17333984375, -0.597900390625
291, 3757893952, -5.211419105529785, 1.9776034355163574, 8.14804744720459, -2.3241989612579346, -1.7284348011016846, -2.115365743637085, 0.75537109375, -0.17333984375, -0.597412109375
292, 3757910619, -5.23375129699707, 1.971094012260437, 8.13994312286377, -2.3699939250946045, -1.639571189880371, -2.1304001808166504, 0.753173828125, -0.1748046875, -0.60009765625
293, 3757927286, -5.225636959075928, 1.9971818923950195, 8.105423927307129, -2.177578926086426, -1.8046578168869019, -2.0078561305999756, 0.753173828125, -0.1748046875, -0.599609375
294, 3757943953, -5.218644618988037, 1.9893954992294312, 8.134942054748535, -2.372081756591797, -1.7282042503356934, -2.185826301574707, 0.752685546875, -0.17333984375, -0.597412109375
295, 3757960620, -5.233966827392578, 1.9659554958343506, 8.146166801452637, -2.3633222579956055, -1.6539016962051392, -2.176708221435547, 0.75439453125, -0.1708984375, -0.597900390625
296, 3757977287, -5.242309093475342, 1.975638747215271, 8.118781089782715, -2.3176677227020264, -1.7678782939910889, -2.078918933868408, 0.75537109375, -0.1708984375, -0.598388671875
297, 3757993954, -5.229528427124023, 1.9937409162521362, 8.133550643920898, -2.3344955444335938, -1.7962315082550049, -2.0143494606018066, 0.752197265625, -0.17236328125, -0.598388671875
298, 3758010621, -5.219785690307617, 1.9908757209777832, 8.128155708312988, -2.295435905456543, -1.7168960571289062, -2.0237104892730713, 0.753662109375, -0.17431640625, -0.60107421875
299, 3758027288, -5.233442306518555, 1.9740697145462036, 8.12350082397461, -2.3353018760681152, -1.6153416633605957, -2.0974621772766113, 0.753173828125, -0.173828125, -0.59912109375
300, 3758043955, -5.239999771118164, 1.9806591272354126, 8.143095970153809, -2.3151450157165527, -1.6054681539535522, -2.1546428203582764, 0.7548828125, -0.17333984375, -0.6015625
301, 3758060622, -5.225688457489014, 1.9918317794799805, 8.11945915222168, -2.3867580890655518, -1.729126214981079, -2.132219076156616, 0.753662109375, -0.1748046875, -0.60009765625
302, 3758077289, -5.2361836433410645, 1.9848130941390991, 8.132855415344238, -2.39857816696167, -1.6607273817062378, -2.2760848999023438, 0.752197265625, -0.17236328125, -0.599609375
303, 3758093956, -5.241032123565674, 1.966370940208435, 8.129236221313477, -2.4021894931793213, -1.6198240518569946, -2.284076452255249, 0.7548828125, -0.17236328125, -0.6015625
304, 3758110623, -5.2216362953186035, 1.9750018119812012, 8.14477825164795, -2.3875904083251953, -1.6834076642990112, -2.1426305770874023, 0.753173828125, -0.173828125, -0.598388671875
305, 3758127290, -5.234158039093018, 1.989938497543335, 8.150389671325684, -2.372926950454712, -1.5935068130493164, -2.1073999404907227, 0.75341796875, -0.17333984375, -0.599609375
306, 3758143957, -5.231913089752197, 1.996739149093628, 8.116016387939453, -2.4401988983154297, -1.588474154472351, -2.0940816402435303, 0.752685546875, -0.173828125, -0.6005859375
307, 3758160624, -5.240721702575684, 1.961320161819458, 8.112648963928223, -2.396042585372925, -1.6921926736831665, -2.154719829559326, 0.75341796875, -0.17431640625, -0.59912109375
308, 3758177291, -5.226627826690674, 1.9826024770736694, 8.140408515930176, -2.341397523880005, -1.7037310600280762, -2.0478503704071045, 0.75341796875, -0.173828125, -0.59912109375
309, 3758193958, -5.21525239944458, 1.9860984086990356, 8.151434898376465, -2.3591601848602295, -1.6762231588363647, -2.181497812271118, 0.752685546875, -0.17333984375, -0.599609375
310, 3758210625, -5.215518951416016, 1.9922325611114502, 8.135150909423828, -2.3667545318603516, -1.6870702505111694, -2.1953158378601074, 0.753173828125, -0.173828125, -0.598876953125
311, 3758227292, -5.205568790435791, 1.991042971611023, 8.141704559326172, -2.3568294048309326, -1.5704041719436646, -2.2637269496917725, 0.7548828125, -0.17333984375, -0.599609375
312, 3758243959, -5.228426933288574, 1.989467978477478, 8.148818016052246, -2.409745454788208, -1.5804702043533325, -2.265430450439453, 0.752685546875, -0.17529296875, -0.598388671875
313, 3758260626, -5.2403411865234375, 1.9764641523361206, 8.12802791595459, -2.4529919624328613, -1.6273925304412842, -2.2525599002838135, 0.753662109375, -0.173828125, -0.60107421875
314, 3758277293, -5.227522850036621, 1.9928343296051025, 8.132152557373047, -2.479412078857422, -1.5794456005096436, -2.3162972927093506, 0.752197265625, -0.1728515625, -0.6025390625
315, 3758293960, -5.256166934967041, 1.9781723022460938, 8.104522705078125, -2.4760305881500244, -1.6796808242797852, -2.308242082595825, 0.75439453125, -0.17333984375, -0.60009765625
316, 3758310627, -5.199855327606201, 2.003615379333496, 8.110698699951172, -2.5937986373901367, -1.6368184089660645, -2.2546093463897705, 0.75390625, -0.17431640625, -0.6005859375
317, 3758327294, -5.211771488189697, 1.969365119934082, 8.132811546325684, -2.5560836791992188, -1.5841456651687622, -2.302518129348755, 0.752685546875, -0.171875, -0.60009765625
318, 3758343961, -5.219340801239014, 1.9915392398834229, 8.143392562866211, -2.548604965209961, -1.6066207885742188, -2.3397204875946045, 0.753662109375, -0.17529296875, -0.603515625
319, 3758360628, -5.211584568023682, 1.9865736961364746, 8.124359130859375, -2.495112419128418, -1.5838509798049927, -2.2915046215057373, 0.752685546875, -0.173828125, -0.60205078125
320, 3758377295, -5.242566108703613, 1.981095790863037, 8.138727188110352, -2.5804543495178223, -1.5309096574783325, -2.4095535278320312, 0.75390625, -0.17431640625, -0.59912109375
321, 3758393962, -5.240899562835693, 1.989554524421692, 8.127065658569336, -2.548271656036377, -1.6603047847747803, -2.2844350337982178, 0.752197265625, -0.1728515625, -0.596923828125
322, 3758410629, -5.223207950592041, 1.981168508529663, 8.127886772155762, -2.541689395904541, -1.6985831260681152, -2.325223445892334, 0.753173828125, -0.173828125, -0.59912109375
323, 3758427296, -5.227441787719727, 1.981508493423462, 8.135054588317871, -2.572117328643799, -1.6874929666519165, -2.3294882774353027, 0.751708984375, -0.1728515625, -0.60009765625
324, 3758443963, -5.21494197845459, 1.9890064001083374, 8.115117073059082, -2.5537655353546143, -1.607811689376831, -2.3859384059906006, 0.753662109375, -0.173828125, -0.60009765625
325, 3758460630, -5.218782901763916, 1.989071249961853, 8.141620635986328, -2.621741771697998, -1.5765515565872192, -2.354806423187256, 0.752197265625, -0.17138671875, -0.599609375
326, 3758477297, -5.225584983825684, 1.9815685749053955, 8.107087135314941, -2.464991807937622, -1.6032655239105225, -2.3021976947784424, 0.75439453125, -0.17236328125, -0.599609375
327, 3758493964, -5.218689918518066, 1.976661205291748, 8.13919734954834, -2.4761462211608887, -1.6472936868667603, -2.2718210220336914, 0.753662109375, -0.17333984375, -0.60009765625
328, 3758510631, -5.214695453643799, 1.9792814254760742, 8.121553421020508, -2.5009396076202393, -1.578446865081787, -2.2627668380737305, 0.751220703125, -0.171875, -0.59912109375
329, 3758527298, -5.206573009490967, 2.0017025470733643, 8.123300552368164, -2.4862632751464844, -1.4878931045532227, -2.306948661804199, 0.753173828125, -0.17138671875, -0.5986328125
330, 3758543965, -5.209722995758057, 1.9671995639801025, 8.148725509643555, -2.4695894718170166, -1.4069440364837646, -2.382801055908203, 0.75390625, -0.17333984375, -0.60009765625
331, 3758560632, -5.246773719787598, 1.9672250747680664, 8.120972633361816, -2.437086582183838, -1.4165230989456177, -2.317949056625366, 0.753173828125, -0.1728515625, -0.60009765625
332, 3758577299, -5.253413200378418, 1.97243070602417, 8.116100311279297, -2.5549049377441406, -1.553102731704712, -2.2771995067596436, 0.75341796875, -0.17236328125, -0.599609375
333, 3758593966, -5.224571704864502, 1.9893966913223267, 8.12157154083252, -2.4670281410217285, -1.619875192642212, -2.3112387657165527, 0.752685546875, -0.171875, -0.6025390625
334, 3758610633, -5.212270259857178, 1.978585958480835, 8.138537406921387, -2.44167160987854, -1.4834492206573486, -2.192741870880127, 0.7548828125, -0.17236328125, -0.598876953125
335, 3758627300, -5.226734161376953, 1.972414255142212, 8.115717887878418, -2.4229743480682373, -1.4241174459457397, -2.1927928924560547, 0.753662109375, -0.1728515625, -0.60009765625
336, 3758643967, -5.240110397338867, 1.9638651609420776, 8.111713409423828, -2.3388876914978027, -1.5886150598526, -2.1706252098083496, 0.752197265625, -0.17138671875, -0.60009765625
337, 3758660634, -5.2357869148254395, 1.9704376459121704, 8.136313438415527, -2.2690930366516113, -1.4875472784042358, -2.1012911796569824, 0.75390625, -0.17333984375, -0.60009765625
338, 3758677301, -5.22318172454834, 1.9664156436920166, 8.144204139709473, -2.298560380935669, -1.5740668773651123, -2.111318826675415, 0.75390625, -0.17138671875, -0.598876953125
339, 3758693968, -5.217054843902588, 1.9909881353378296, 8.125741004943848, -2.3711984157562256, -1.511008620262146, -2.1240997314453125, 0.753662109375, -0.1748046875, -0.6015625
340, 3758710635, -5.227583885192871, 1.970516324043274, 8.118687629699707, -2.308459520339966, -1.6323741674423218, -2.17282772064209, 0.753662109375, -0.17578125, -0.6015625
341, 3758727302, -5.228179931640625, 1.9769560098648071, 8.11093807220459, -2.318358898162842, -1.6673226356506348, -2.1166844367980957, 0.75341796875, -0.1748046875, -0.598388671875
342, 3758743969, -5.224302291870117, 1.9827152490615845, 8.114415168762207, -2.3211891651153564, -1.7581837177276611, -2.043163299560547, 0.75341796875, -0.173828125, -0.59912109375
343, 3758760636, -5.224799156188965, 1.9949620962142944, 8.156795501708984, -2.475313901901245, -1.6719331741333008, -2.089740037918091, 0.75341796875, -0.1708984375, -0.59912109375
344, 3758777303, -5.21685791015625, 1.9874497652053833, 8.120262145996094, -2.4859557151794434, -1.6189148426055908, -2.1578829288482666, 0.752197265625, -0.173828125, -0.599609375
345, 3758793970, -5.2241363525390625, 1.9899259805679321, 8.12096881866455, -2.607987642288208, -1.6202722787857056, -2.188438653945923, 0.752685546875, -0.171142578125, -0.5986328125
346, 3758810637, -5.208206653594971, 1.9862128496170044, 8.144508361816406, -2.5966928005218506, -1.7205846309661865, -2.1893482208251953, 0.75439453125, -0.17333984375, -0.59912109375
347, 3758827304, -5.208829879760742, 1.9793596267700195, 8.11959171295166, -2.5630884170532227, -1.5752322673797607, -2.258592128753662, 0.7548828125, -0.173828125, -0.598388671875
348, 3758843971, -5.221566200256348, 1.9802151918411255, 8.153227806091309, -2.435703754425049, -1.5587120056152344, -2.1980690956115723, 0.754150390625, -0.17431640625, -0.6025390625
349, 3758860638, -5.244771957397461, 1.9794317483901978, 8.139442443847656, -2.5533430576324463, -1.627623200416565, -2.145601749420166, 0.75439453125, -0.1728515625, -0.599609375
350, 3758877305, -5.222618103027344, 1.9683468341827393, 8.12809944152832, -2.539857864379883, -1.6667850017547607, -2.2318012714385986, 0.752197265625, -0.1728515625, -0.60205078125
351, 3758893972, -5.219083309173584, 1.968576431274414, 8.134955406188965, -2.5154364109039307, -1.6767866611480713, -2.2855751514434814, 0.753662109375, -0.17333984375, -0.60009765625
352, 3758910639, -5.220644950866699, 1.9807465076446533, 8.122702598571777, -2.450507879257202, -1.6310551166534424, -2.258732795715332, 0.753173828125, -0.1748046875, -0.6005859375
353, 3758927306, -5.216472148895264, 1.9833660125732422, 8.11417007446289, -2.396862030029297, -1.5470198392868042, -2.266749143600464, 0.752685546875, -0.1728515625, -0.605712890625
354, 3758943973, -5.222790241241455, 1.978636384010315, 8.136069297790527, -2.4275717735290527, -1.6733930110931396, -2.366511106491089, 0.75390625, -0.17138671875, -0.599609375
355, 3758960640, -5.215301036834717, 1.9853588342666626, 8.140149116516113, -2.387590169906616, -1.8101392984390259, -2.3195245265960693, 0.752685546875, -0.17236328125, -0.599609375
356, 3758977307, -5.19943904876709, 1.982159972190857, 8.128594398498535, -2.3399507999420166, -1.581302523612976, -2.3245959281921387, 0.75390625, -0.17431640625, -0.6005859375
357, 3758993974, -5.2169952392578125, 1.9748231172561646, 8.144434928894043, -2.2714879512786865, -1.5658963918685913, -2.359595775604248, 0.75439453125, -0.17529296875, -0.6015625
358, 3759010641, -5.2139458656311035, 1.9628733396530151, 8.142931938171387, -2.273191213607788, -1.4085705280303955, -2.3526804447174072, 0.75390625, -0.17333984375, -0.599609375
359, 3759027308, -5.237861633300781, 1.9798164367675781, 8.120245933532715, -2.2554030418395996, -1.6060186624526978, -2.2871241569519043, 0.752685546875, -0.173828125, -0.6005859375
360, 3759043975, -5.229893207550049, 1.9697825908660889, 8.151405334472656, -2.3994874954223633, -1.6307734251022339, -2.083439588546753, 0.752197265625, -0.170654296875, -0.599609375
361, 3759060642, -5.230332374572754, 1.9936802387237549, 8.126630783081055, -2.4737513065338135, -1.5496323108673096, -2.146228790283203, 0.75439453125, -0.173828125, -0.599609375
362, 3759077309, -5.225689888000488, 1.9607347249984741, 8.103597640991211, -2.368457555770874, -1.7042051553726196, -2.1419901847839355, 0.752685546875, -0.1728515625, -0.6015625
363, 3759093976, -5.220411777496338, 1.9943708181381226, 8.127347946166992, -2.463890552520752, -1.5821220874786377, -2.2520477771759033, 0.753662109375, -0.173828125, -0.60009765625
364, 3759110643, -5.212216377258301, 1.9752498865127563, 8.137946128845215, -2.414919137954712, -1.5159388780593872, -2.172187566757202, 0.752685546875, -0.1728515625, -0.6005859375
365, 3759127310, -5.231845378875732, 1.9730879068374634, 8.126606941223145, -2.4951894283294678, -1.4717570543289185, -2.181075096130371, 0.754150390625, -0.171142578125, -0.603515625
366, 3759143977, -5.20742654800415, 1.9142978191375732, 8.144474029541016, -2.5279605388641357, -1.5921366214752197, -2.175414562225342, 0.75390625, -0.17236328125, -0.6005859375
367, 3759160644, -5.243311882019043, 1.9926491975784302, 8.114324569702148, -2.3668060302734375, -1.5632327795028687, -2.220595598220825, 0.753173828125, -0.17431640625, -0.6005859375
368, 3759177311, -5.208762168884277, 1.984387755393982, 8.135292053222656, -2.258143663406372, -1.599525809288025, -2.0928006172180176, 0.752197265625, -0.171875, -0.60205078125
369, 3759193978, -5.2283196449279785, 1.9648476839065552, 8.132850646972656, -2.1578316688537598, -1.5786004066467285, -1.9319785833358765, 0.752197265625, -0.17333984375, -0.6015625
370, 3759210645, -5.222843170166016, 1.9722501039505005, 8.144716262817383, -2.131091833114624, -1.6495985984802246, -1.9499462842941284, 0.750732421875, -0.17333984375, -0.60205078125
371, 3759227312, -5.217229843139648, 1.9889745712280273, 8.12044620513916, -2.1844048500061035, -1.56772780418396, -1.9261773824691772, 0.755859375, -0.17333984375, -0.60205078125
372, 3759243979, -5.199177265167236, 1.9554847478866577, 8.143462181091309, -2.2921957969665527, -1.6307733058929443, -2.040550947189331, 0.750244140625, -0.17333984375, -0.599609375
373, 3759260646, -5.204213619232178, 1.9774391651153564, 8.105545043945312, -2.2737927436828613, -1.5999356508255005, -2.0865511894226074, 0.752685546875, -0.171875, -0.6025390625
374, 3759277313, -5.213184356689453, 2.0060744285583496, 8.142687797546387, -2.5784692764282227, -1.5906639099121094, -2.3211255073547363, 0.7548828125, -0.17333984375, -0.6005859375
375, 3759293980, -5.211378574371338, 1.9759949445724487, 8.153304100036621, -2.620615005493164, -1.5456883907318115, -2.407863140106201, 0.751708984375, -0.1728515625, -0.6015625
376, 3759310647, -5.196542739868164, 1.9794107675552368, 8.144549369812012, -2.594374895095825, -1.4564919471740723, -2.4300949573516846, 0.752685546875, -0.17333984375, -0.60107421875
377, 3759327314, -5.196218490600586, 1.975329875946045, 8.109895706176758, -2.7129104137420654, -1.4324160814285278, -2.563601016998291, 0.753173828125, -0.17431640625, -0.6015625
378, 3759343981, -5.228634357452393, 1.9588645696640015, 8.127653121948242, -2.721593141555786, -1.3784116506576538, -2.5274360179901123, 0.75390625, -0.171875, -0.599609375
379, 3759360648, -5.201730251312256, 1.9879976511001587, 8.128565788269043, -2.8776004314422607, -1.4559413194656372, -2.4246394634246826, 0.75390625, -0.171875, -0.6005859375
380, 3759377315, -5.208899974822998, 1.9726229906082153, 8.121383666992188, -2.9362268447875977, -1.4559282064437866, -2.728571891784668, 0.753173828125, -0.17236328125, -0.6015625
381, 3759393982, -5.213995933532715, 1.9530786275863647, 8.121292114257812, -2.913419008255005, -1.442212700843811, -2.670149564743042, 0.7548828125, -0.173828125, -0.603515625
382, 3759410649, -5.213624477386475, 1.9800578355789185, 8.156590461730957, -2.8518717288970947, -1.3540409803390503, -2.738753318786621, 0.75439453125, -0.173828125, -0.6025390625
383, 3759427316, -5.241755962371826, 1.9469221830368042, 8.128167152404785, -2.661825656890869, -1.2943122386932373, -2.5387308597564697, 0.75439453125, -0.1728515625, -0.6005859375
384, 3759443983, -5.213794231414795, 1.961846947669983, 8.124608993530273, -2.633075475692749, -1.3769901990890503, -2.6650147438049316, 0.75341796875, -0.17138671875, -0.599609375
385, 3759460650, -5.229804515838623, 1.9383162260055542, 8.134971618652344, -2.510070323944092, -1.2603623867034912, -2.539166212081909, 0.753662109375, -0.17333984375, -0.60205078125
386, 3759477317, -5.214365005493164, 1.955155849456787, 8.10232925415039, -2.4781696796417236, -1.312727689743042, -2.379701852798462, 0.7548828125, -0.1708984375, -0.60107421875
387, 3759493984, -5.24640417098999, 1.942210078239441, 8.117210388183594, -2.394134521484375, -1.4164080619812012, -2.3166816234588623, 0.75390625, -0.170166015625, -0.60107421875
388, 3759510651, -5.222938537597656, 1.9689894914627075, 8.11770248413086, -2.368060827255249, -1.559826374053955, -2.1182475090026855, 0.75537109375, -0.1728515625, -0.60107421875
389, 3759527318, -5.2087721824646, 1.9880858659744263, 8.145691871643066, -2.391073703765869, -1.5968879461288452, -2.121666431427002, 0.75390625, -0.17138671875, -0.60107421875
390, 3759543985, -5.197925567626953, 1.988006591796875, 8.13454818725586, -2.442965030670166, -1.4195839166641235, -2.330883741378784, 0.752685546875, -0.171875, -0.60107421875
391, 3759560652, -5.2265753746032715, 1.9591724872589111, 8.146084785461426, -2.466118812561035, -1.1540058851242065, -2.355907440185547, 0.755859375, -0.1728515625, -0.60205078125
392, 3759577319, -5.231897354125977, 1.9656504392623901, 8.106864929199219, -2.483100175857544, -1.1223485469818115, -2.368854522705078, 0.75537109375, -0.1708984375, -0.60302734375
393, 3759593986, -5.24063777923584, 1.9607568979263306, 8.149894714355469, -2.543494701385498, -1.1656980514526367, -2.266416549682617, 0.753173828125, -0.171142578125, -0.60302734375
394, 3759610653, -5.235910892486572, 1.9717801809310913, 8.135042190551758, -2.4649789333343506, -1.3511852025985718, -2.2750608921051025, 0.75634765625, -0.171875, -0.60009765625
395, 3759627320, -5.23132848739624, 1.9767733812332153, 8.139898300170898, -2.4619827270507812, -1.2192542552947998, -2.2765209674835205, 0.752197265625, -0.170654296875, -0.60205078125
396, 3759643987, -5.2220330238342285, 1.9771740436553955, 8.130709648132324, -2.452326536178589, -1.2931979894638062, -2.2401123046875, 0.75439453125, -0.173828125, -0.60107421875
397, 3759660654, -5.217618465423584, 1.9639313220977783, 8.134528160095215, -2.546337604522705, -1.1801434755325317, -2.230097532272339, 0.7548828125, -0.17236328125, -0.6015625
398, 3759677321, -5.222362041473389, 1.9598801136016846, 8.149991035461426, -2.4132795333862305, -1.0889110565185547, -2.3007376194000244, 0.753662109375, -0.171875, -0.60107421875
399, 3759693988, -5.229101657867432, 1.9400399923324585, 8.158926010131836, -2.304476737976074, -1.0038255453109741, -2.367727518081665, 0.753173828125, -0.17236328125, -0.60009765625
400, 3759710655, -5.254469394683838, 1.9327020645141602, 8.119781494140625, -2.0915327072143555, -0.9392175078392029, -2.2251415252685547, 0.75537109375, -0.17138671875, -0.604736328125
401, 3759727322, -5.246870994567871, 1.9412482976913452, 8.124449729919434, -1.9935516119003296, -0.9005681276321411, -2.028179883956909, 0.75732421875, -0.171875, -0.60009765625
402, 3759743989, -5.2494683265686035, 1.955669641494751, 8.11408519744873, -1.921810507774353, -1.0950453281402588, -1.8980803489685059, 0.75439453125, -0.1708984375, -0.599609375
403, 3759760656, -5.228497505187988, 1.9848217964172363, 8.12370491027832, -2.023224115371704, -1.244866967201233, -1.995741605758667, 0.7568359375, -0.17236328125, -0.599853515625
404, 3759777323, -5.225523948669434, 1.9590188264846802, 8.102701187133789, -1.9787988662719727, -1.2928266525268555, -2.139954090118408, 0.7548828125, -0.1728515625, -0.599609375
405, 3759793990, -5.249569416046143, 1.9516576528549194, 8.098137855529785, -2.006178855895996, -1.406431794166565, -2.0738730430603027, 0.75439453125, -0.17431640625, -0.60009765625
406, 3759810657, -5.2424445152282715, 1.9625475406646729, 8.135841369628906, -2.0534980297088623, -1.5123529434204102, -2.0159754753112793, 0.75390625, -0.17431640625, -0.59912109375
407, 3759827324, -5.2363691329956055, 1.9737300872802734, 8.118582725524902, -2.033827543258667, -1.5601718425750732, -1.982858419418335, 0.75439453125, -0.17333984375, -0.6005859375
408, 3759843991, -5.236578464508057, 1.967507243156433, 8.114749908447266, -2.013427257537842, -1.6736233234405518, -1.9486781358718872, 0.7548828125, -0.1728515625, -0.598876953125
409, 3759860658, -5.238019943237305, 1.9767556190490723, 8.138164520263672, -2.029242992401123, -1.7582991123199463, -1.9869948625564575, 0.75634765625, -0.1708984375, -0.60009765625
410, 3759877325, -5.2420430183410645, 1.9782798290252686, 8.120261192321777, -2.171444892883301, -1.8196418285369873, -1.934130311012268, 0.75390625, -0.17236328125, -0.599609375
411, 3759893992, -5.203611850738525, 1.9879248142242432, 8.123732566833496, -2.0719776153564453, -1.7818244695663452, -1.9817825555801392, 0.75634765625, -0.17333984375, -0.598388671875
412, 3759910659, -5.229261875152588, 1.986588478088379, 8.115144729614258, -2.1547961235046387, -1.680039405822754, -2.1176066398620605, 0.7548828125, -0.1748046875, -0.6005859375
413, 3759927326, -5.228681564331055, 1.983104944229126, 8.139111518859863, -2.2263455390930176, -1.6638652086257935, -2.1766059398651123, 0.75634765625, -0.17578125, -0.599365234375
414, 3759943993, -5.223574638366699, 1.983933687210083, 8.149100303649902, -2.3570985794067383, -1.6121402978897095, -2.2114646434783936, 0.75439453125, -0.17333984375, -0.6005859375
415, 3759960660, -5.237010955810547, 1.9646341800689697, 8.123590469360352, -2.42740535736084, -1.5204980373382568, -2.300661087036133, 0.75390625, -0.1728515625, -0.598388671875
416, 3759977327, -5.23353385925293, 1.976637840270996, 8.101981163024902, -2.341564416885376, -1.581648349761963, -2.279005289077759, 0.75390625, -0.1728515625, -0.60009765625
417, 3759993994, -5.213735580444336, 1.9822345972061157, 8.119006156921387, -2.396669864654541, -1.5630534887313843, -2.3086390495300293, 0.755859375, -0.17333984375, -0.598876953125
418, 3760010661, -5.235386848449707, 1.9690889120101929, 8.132673263549805, -2.3898184299468994, -1.6465508937835693, -2.2923879623413086, 0.752197265625, -0.1728515625, -0.59912109375
419, 3760027328, -5.246449947357178, 1.9631304740905762, 8.12894058227539, -2.392482042312622, -1.6069278717041016, -2.2078912258148193, 0.75439453125, -0.1728515625, -0.6025390625
420, 3760043995, -5.219496726989746, 1.975655198097229, 8.1181640625, -2.4367666244506836, -1.7525490522384644, -2.2897369861602783, 0.753662109375, -0.17333984375, -0.6005859375
421, 3760060662, -5.194147109985352, 1.9695868492126465, 8.14507007598877, -2.299034595489502, -1.5257229804992676, -2.1103200912475586, 0.755859375, -0.17578125, -0.60205078125
422, 3760077329, -5.230704307556152, 1.9740662574768066, 8.135826110839844, -2.3271443843841553, -1.2615278959274292, -2.2521886825561523, 0.75439453125, -0.17333984375, -0.60107421875
423, 3760093996, -5.243442058563232, 1.967839241027832, 8.145071983337402, -2.185595989227295, -1.269762396812439, -2.149738073348999, 0.75634765625, -0.17333984375, -0.60205078125
424, 3760110663, -5.24925422668457, 1.967661738395691, 8.106769561767578, -2.200937509536743, -1.3848273754119873, -2.1060938835144043, 0.755859375, -0.17333984375, -0.60107421875
425, 3760127330, -5.226692199707031, 1.96399986743927, 8.14854907989502, -2.069915771484375, -1.4672490358352661, -2.090367555618286, 0.75439453125, -0.173828125, -0.60009765625
426, 3760143997, -5.223589897155762, 1.973823070526123, 8.141702651977539, -2.108142614364624, -1.5296798944473267, -2.0999081134796143, 0.753173828125, -0.17431640625, -0.599609375
427, 3760160664, -5.254608631134033, 1.9695067405700684, 8.12075424194336, -1.9769160747528076, -1.5579564571380615, -2.0550990104675293, 0.7548828125, -0.17529296875, -0.598388671875
428, 3760177331, -5.235518932342529, 1.9653321504592896, 8.1299409866333, -2.0227243900299072, -1.7393711805343628, -2.0670344829559326, 0.755859375, -0.173828125, -0.598876953125
429, 3760193998, -5.214833736419678, 1.9791288375854492, 8.123397827148438, -1.9135375022888184, -1.6469734907150269, -2.075653314590454, 0.753662109375, -0.17333984375, -0.6015625
430, 3760210665, -5.220728397369385, 1.9865041971206665, 8.14695930480957, -2.0431249141693115, -1.5615549087524414, -2.081671953201294, 0.75439453125, -0.171875, -0.60107421875
431, 3760227332, -5.227735996246338, 1.9867708683013916, 8.13952922821045, -2.055649757385254, -1.4268323183059692, -2.11106276512146, 0.75537109375, -0.173828125, -0.6005859375
432, 3760243999, -5.257892608642578, 1.9790778160095215, 8.100138664245605, -2.0339555740356445, -1.5037471055984497, -2.048900604248047, 0.7548828125, -0.17431640625, -0.599609375
433, 3760260666, -5.23308801651001, 1.9793591499328613, 8.117900848388672, -2.03737473487854, -1.7263214588165283, -2.1277236938476562, 0.75390625, -0.17333984375, -0.60009765625
434, 3760277333, -5.2296929359436035, 1.996429681777954, 8.13949966430664, -1.9952545166015625, -1.5663830041885376, -2.0418057441711426, 0.753662109375, -0.1748046875, -0.60009765625
435, 3760294000, -5.231359958648682, 1.9916878938674927, 8.122620582580566, -1.972651481628418, -1.5304995775222778, -2.09789776802063, 0.7548828125, -0.1748046875, -0.6005859375
436, 3760310667, -5.230047702789307, 1.9956872463226318, 8.11780834197998, -2.0891895294189453, -1.567996621131897, -2.1466641426086426, 0.752685546875, -0.17529296875, -0.60107421875
437, 3760327334, -5.237552642822266, 2.004659652709961, 8.123263359069824, -2.1615967750549316, -1.6535816192626953, -2.0598373413085938, 0.75439453125, -0.17333984375, -0.598388671875
438, 3760344001, -5.226728916168213, 2.0073161125183105, 8.116215705871582, -2.2671592235565186, -1.6911424398422241, -2.140798807144165, 0.754638671875, -0.17431640625, -0.605712890625
439, 3760360668, -5.22308349609375, 2.0145370960235596, 8.129680633544922, -2.333739757537842, -1.71986722946167, -2.080212354660034, 0.75439453125, -0.17626953125, -0.599609375
440, 3760377335, -5.234402656555176, 1.984410285949707, 8.147610664367676, -2.3949410915374756, -1.6634423732757568, -2.118720531463623, 0.75341796875, -0.1748046875, -0.598876953125
441, 3760394002, -5.232880592346191, 1.9891940355300903, 8.128620147705078, -2.3074989318847656, -1.5496578216552734, -2.076190948486328, 0.752197265625, -0.17529296875, -0.596923828125
442, 3760410669, -5.225153923034668, 1.9927802085876465, 8.084392547607422, -2.320472240447998, -1.574476718902588, -2.061297655105591, 0.755859375, -0.17333984375, -0.599365234375
443, 3760427336, -5.250885009765625, 1.9732050895690918, 8.14415168762207, -2.3058602809906006, -1.5447533130645752, -2.0767290592193604, 0.753173828125, -0.1728515625, -0.6005859375
444, 3760444003, -5.224607944488525, 1.9892486333847046, 8.11768913269043, -2.314849853515625, -1.6530691385269165, -2.1201295852661133, 0.75341796875, -0.1748046875, -0.599609375
445, 3760460670, -5.236527919769287, 1.9932665824890137, 8.135437965393066, -2.260615348815918, -1.7868443727493286, -2.0603110790252686, 0.753173828125, -0.17578125, -0.60009765625
446, 3760477337, -5.225832939147949, 2.003281831741333, 8.123795509338379, -2.2721025943756104, -1.7524082660675049, -1.9825639724731445, 0.75341796875, -0.1748046875, -0.598876953125
447, 3760494004, -5.2300825119018555, 1.9931230545043945, 8.13707160949707, -2.4077348709106445, -1.7518447637557983, -2.0605032444000244, 0.75439453125, -0.17529296875, -0.598388671875
448, 3760510671, -5.220968723297119, 1.9790173768997192, 8.104425430297852, -2.6338183879852295, -1.8727113008499146, -2.0230321884155273, 0.75634765625, -0.17529296875, -0.60546875
449, 3760527338, -5.201144695281982, 1.9981821775436401, 8.12951374053955, -2.197479724884033, -1.7944128513336182, -1.8343045711517334, 0.752685546875, -0.17578125, -0.599609375
450, 3760544005, -5.201480388641357, 2.0121843814849854, 8.108406066894531, -2.144538402557373, -1.729958415031433, -2.105914354324341, 0.7548828125, -0.17578125, -0.599609375
451, 3760560672, -5.227592468261719, 1.9825152158737183, 8.131892204284668, -2.1898343563079834, -1.716524600982666, -1.8415658473968506, 0.75439453125, -0.17529296875, -0.60302734375
452, 3760577339, -5.224762916564941, 1.9846221208572388, 8.14474105834961, -2.0633974075317383, -1.5725044012069702, -2.0789060592651367, 0.75390625, -0.17529296875, -0.6005859375
453, 3760594006, -5.226597785949707, 1.983992576599121, 8.12613296508789, -1.8048245906829834, -1.4931820631027222, -1.8319485187530518, 0.75439453125, -0.177490234375, -0.60107421875
454, 3760610673, -5.234618186950684, 1.9712402820587158, 8.136468887329102, -1.5832873582839966, -1.5616062879562378, -1.6347817182540894, 0.75634765625, -0.178466796875, -0.6015625
455, 3760627340, -5.231506824493408, 1.98440682888031, 8.147361755371094, -1.3646574020385742, -1.5551902055740356, -1.4894808530807495, 0.7548828125, -0.17578125, -0.6005859375
456, 3760644007, -5.253056526184082, 2.001896381378174, 8.12238883972168, -1.1283162832260132, -1.6143814325332642, -1.4845378398895264, 0.75390625, -0.177001953125, -0.598388671875
457, 3760660674, -5.238820552825928, 1.9938489198684692, 8.12098503112793, -1.1202738285064697, -1.7416890859603882, -1.3228960037231445, 0.753173828125, -0.17724609375, -0.6005859375
458, 3760677341, -5.227630615234375, 1.9961556196212769, 8.127213478088379, -0.8473193645477295, -1.51095712184906, -1.227924108505249, 0.75390625, -0.1767578125, -0.599609375
459, 3760694008, -5.208653450012207, 1.9912676811218262, 8.111254692077637, -0.5787189602851868, -1.4099408388137817, -0.9734235405921936, 0.753662109375, -0.1748046875, -0.60107421875
460, 3760710675, -5.219983100891113, 2.005251169204712, 8.125018119812012, -0.6502680778503418, -0.9077780246734619, -0.9745761156082153, 0.75390625, -0.177978515625, -0.598876953125
461, 3760727342, -5.207221508026123, 2.038419008255005, 8.114360809326172, 0.8162447214126587, -1.0237394571304321, -0.644671618938446, 0.7529296875, -0.180419921875, -0.597412109375
462, 3760744009, -5.164173126220703, 2.0549123287200928, 8.111414909362793, 0.3440234065055847, -0.533166766166687, -0.764680027961731, 0.75439453125, -0.178466796875, -0.6005859375
463, 3760760676, -5.258426666259766, 2.014662742614746, 8.08120059967041, 0.5747296810150146, -0.4033743441104889, -0.73341965675354, 0.75439453125, -0.181884765625, -0.597900390625
464, 3760777343, -5.240675449371338, 2.109894037246704, 8.156920433044434, 0.3075636923313141, -0.4445979595184326, -0.8263809084892273, 0.75390625, -0.180908203125, -0.60009765625
465, 3760794010, -5.174052715301514, 2.062286138534546, 8.076668739318848, 0.2249755710363388, -0.4665225148200989, -0.8326689600944519, 0.75439453125, -0.182373046875, -0.596923828125
466, 3760810677, -5.2572760581970215, 2.0569241046905518, 8.0366849899292, -0.2458050698041916, -0.16621360182762146, -0.9836556911468506, 0.75439453125, -0.18408203125, -0.595458984375
467, 3760827344, -5.20386266708374, 2.15850830078125, 8.136120796203613, -0.5447949171066284, 0.28508853912353516, -1.0205636024475098, 0.752685546875, -0.1845703125, -0.597412109375
468, 3760844011, -5.244210243225098, 2.1267457008361816, 8.070211410522461, -0.04003265127539635, -0.37073102593421936, -1.055012822151184, 0.755859375, -0.18359375, -0.596435546875
469, 3760860678, -5.233575344085693, 2.077646493911743, 8.09878921508789, -0.23529104888439178, -0.47780492901802063, -1.098310947418213, 0.7529296875, -0.1865234375, -0.596435546875
470, 3760877345, -5.270280361175537, 2.1287307739257812, 8.081232070922852, -0.42917925119400024, -0.3814627528190613, -1.2441624402999878, 0.7548828125, -0.1875, -0.596923828125
471, 3760894012, -5.203434467315674, 2.103158473968506, 8.113056182861328, -0.36633846163749695, -0.6007074117660522, -1.2518208026885986, 0.75341796875, -0.18603515625, -0.596923828125
472, 3760910679, -5.231086254119873, 2.148958206176758, 8.130058288574219, -0.23676379024982452, -0.5160830616950989, -1.462805151939392, 0.75537109375, -0.1845703125, -0.59521484375
473, 3760927346, -5.23118782043457, 2.164494514465332, 8.08121109008789, -0.5163136124610901, -0.33994460105895996, -1.5762951374053955, 0.7548828125, -0.18701171875, -0.595947265625
474, 3760944013, -5.286935806274414, 2.1480095386505127, 8.059659957885742, -0.9834380745887756, -0.6008739471435547, -1.7606298923492432, 0.75390625, -0.1865234375, -0.59521484375
475, 3760960680, -5.2852044105529785, 2.138692617416382, 8.067954063415527, -1.474715232849121, -0.9701578617095947, -1.9739964008331299, 0.75439453125, -0.1884765625, -0.59375
476, 3760977347, -5.263375759124756, 2.1362357139587402, 8.06520938873291, -1.502120852470398, -1.4535975456237793, -1.7702730894088745, 0.75537109375, -0.18701171875, -0.600830078125
477, 3760994014, -5.250961780548096, 2.116955280303955, 8.08672046661377, -1.7908400297164917, -1.422747015953064, -1.6907713413238525, 0.75634765625, -0.188720703125, -0.59423828125
478, 3761010681, -5.261229038238525, 2.1456995010375977, 8.061676979064941, -1.7902379035949707, -1.5588912963867188, -1.7705802917480469, 0.755859375, -0.190185546875, -0.59326171875
479, 3761027348, -5.252350807189941, 2.158303737640381, 8.058211326599121, -1.9417754411697388, -1.6075680255889893, -1.960024356842041, 0.7529296875, -0.191162109375, -0.595703125
480, 3761044015, -5.246586322784424, 2.1526038646698, 8.088238716125488, -2.1036858558654785, -1.6723555326461792, -1.9580265283584595, 0.75439453125, -0.190185546875, -0.595703125
481, 3761060682, -5.2062668800354, 2.150961399078369, 8.041923522949219, -2.228919506072998, -1.7052934169769287, -1.9947808980941772, 0.75439453125, -0.18896484375, -0.59619140625
482, 3761077349, -5.254128456115723, 2.147704601287842, 8.069090843200684, -2.432386875152588, -1.6942801475524902, -2.1942145824432373, 0.755859375, -0.188720703125, -0.595703125
483, 3761094016, -5.235068321228027, 2.1466166973114014, 8.092042922973633, -2.3490428924560547, -1.6009730100631714, -2.0847582817077637, 0.7529296875, -0.18896484375, -0.595703125
484, 3761110683, -5.259336948394775, 2.129876136779785, 8.078627586364746, -2.28078556060791, -1.5523474216461182, -2.0740911960601807, 0.75537109375, -0.190673828125, -0.597900390625
485, 3761127350, -5.242395877838135, 2.1447248458862305, 8.093452453613281, -2.1816513538360596, -1.6029579639434814, -2.016474962234497, 0.7548828125, -0.1884765625, -0.59521484375
486, 3761144017, -5.256093978881836, 2.142814874649048, 8.096283912658691, -2.212092161178589, -1.4870349168777466, -1.9689122438430786, 0.75634765625, -0.189697265625, -0.59619140625
487, 3761160684, -5.218325138092041, 2.1695473194122314, 8.081032752990723, -2.1614043712615967, -1.4329534769058228, -2.0715293884277344, 0.75390625, -0.190185546875, -0.5947265625
488, 3761177351, -5.237458229064941, 2.1484806537628174, 8.091509819030762, -2.2757394313812256, -1.3130605220794678, -2.179128408432007, 0.75439453125, -0.18896484375, -0.596435546875
489, 3761194018, -5.25200891494751, 2.1600875854492188, 8.074397087097168, -2.452416181564331, -1.4568120241165161, -2.3152215480804443, 0.752197265625, -0.18896484375, -0.5947265625
490, 3761210685, -5.264387130737305, 2.138230562210083, 8.053006172180176, -2.4720354080200195, -1.589613914489746, -2.366485834121704, 0.75439453125, -0.190673828125, -0.59326171875
491, 3761227352, -5.238147258758545, 2.139259099960327, 8.074070930480957, -2.462149143218994, -1.7112616300582886, -2.344510316848755, 0.75537109375, -0.18798828125, -0.595703125
492, 3761244019, -5.238832473754883, 2.140510320663452, 8.076639175415039, -2.5597333908081055, -1.5972079038619995, -2.3129425048828125, 0.755859375, -0.191162109375, -0.5947265625
493, 3761260686, -5.2463274002075195, 2.166755199432373, 8.061327934265137, -2.6113433837890625, -1.7162048816680908, -2.339874029159546, 0.755859375, -0.1884765625, -0.5947265625
494, 3761277353, -5.251386642456055, 2.1418497562408447, 8.070289611816406, -2.7030107975006104, -1.725847601890564, -2.5382184982299805, 0.75390625, -0.18896484375, -0.595703125
495, 3761294020, -5.2426862716674805, 2.137054681777954, 8.101728439331055, -2.7495229244232178, -1.7593491077423096, -2.451096773147583, 0.75439453125, -0.18896484375, -0.59619140625
496, 3761310687, -5.242014408111572, 2.150601625442505, 8.05878734588623, -2.769052743911743, -1.7181510925292969, -2.5616538524627686, 0.75390625, -0.18896484375, -0.596435546875
497, 3761327354, -5.2239837646484375, 2.162524938583374, 8.07535457611084, -2.8864870071411133, -1.63802170753479, -2.569120407104492, 0.75439453125, -0.18896484375, -0.597412109375
498, 3761344021, -5.231031894683838, 2.108525037765503, 8.077775955200195, -2.788249969482422, -1.469605565071106, -2.538423538208008, 0.75439453125, -0.18798828125, -0.59326171875
499, 3761360688, -5.256755352020264, 2.1418118476867676, 8.097399711608887, -2.864088773727417, -1.3908463716506958, -2.714818000793457, 0.75439453125, -0.18896484375, -0.59375
500, 3761377355, -5.261819362640381, 2.1378674507141113, 8.06967830657959, -2.741276264190674, -1.5441513061523438, -2.7445414066314697, 0.75634765625, -0.1884765625, -0.598388671875
501, 3761394022, -5.278961181640625, 2.107459545135498, 8.079018592834473, -2.6535274982452393, -1.7023353576660156, -2.439981698989868, 0.755859375, -0.1884765625, -0.59521484375
502, 3761410689, -5.23789644241333, 2.130843162536621, 8.076883316040039, -2.5268337726593018, -1.7029756307601929, -2.1793079376220703, 0.75634765625, -0.18798828125, -0.59521484375
503, 3761427356, -5.254192352294922, 2.133296251296997, 8.051255226135254, -2.349081516265869, -1.6924872398376465, -2.1845970153808594, 0.755859375, -0.18701171875, -0.59326171875
504, 3761444023, -5.212484836578369, 2.1404659748077393, 8.064533233642578, -2.311187505722046, -1.5736186504364014, -2.057647466659546, 0.75439453125, -0.18896484375, -0.59619140625
505, 3761460690, -5.245443344116211, 2.1397085189819336, 8.06396770477295, -2.2794406414031982, -1.334639310836792, -2.166193962097168, 0.75341796875, -0.1865234375, -0.591796875
506, 3761477357, -5.2456440925598145, 2.154444694519043, 8.070891380310059, -2.4681293964385986, -1.295567274093628, -2.165118455886841, 0.755859375, -0.1865234375, -0.595703125
507, 3761494024, -5.259535789489746, 2.1428332328796387, 8.054152488708496, -2.440096378326416, -1.4075971841812134, -2.1984148025512695, 0.7568359375, -0.1875, -0.59521484375
508, 3761510691, -5.251536846160889, 2.1307079792022705, 8.081446647644043, -2.573448419570923, -1.550349473953247, -2.1499555110931396, 0.75390625, -0.18798828125, -0.5947265625
509, 3761527358, -5.228962421417236, 2.1357953548431396, 8.089308738708496, -2.4343972206115723, -1.6224236488342285, -2.0358638763427734, 0.75634765625, -0.1875, -0.591796875
510, 3761544025, -5.234992980957031, 2.1558279991149902, 8.090638160705566, -2.5416886806488037, -1.3847249746322632, -2.0839388370513916, 0.75439453125, -0.1865234375, -0.595703125
511, 3761560692, -5.249433994293213, 2.142029285430908, 8.086570739746094, -2.6209092140197754, -1.30646550655365, -2.216843366622925, 0.75439453125, -0.18798828125, -0.59375
512, 3761577359, -5.244812965393066, 2.1409361362457275, 8.059213638305664, -2.5540599822998047, -1.3702540397644043, -2.1948676109313965, 0.75390625, -0.1875, -0.5947265625
513, 3761594026, -5.249405860900879, 2.129910707473755, 8.082064628601074, -2.658303737640381, -1.3825352191925049, -2.3070385456085205, 0.7548828125, -0.1884765625, -0.59326171875
514, 3761610693, -5.261610507965088, 2.1055445671081543, 8.08437442779541, -2.5484766960144043, -1.4502936601638794, -2.2819509506225586, 0.75537109375, -0.189208984375, -0.59423828125
515, 3761627360, -5.277074813842773, 2.1224122047424316, 8.069879531860352, -2.3936736583709717, -1.514299750328064, -2.209390163421631, 0.75390625, -0.1875, -0.5927734375
516, 3761644027, -5.259260177612305, 2.1286466121673584, 8.092435836791992, -2.401254415512085, -1.4457087516784668, -2.1715469360351562, 0.7578125, -0.188232421875, -0.59375
517, 3761660694, -5.26055908203125, 2.085611581802368, 8.104034423828125, -2.245311737060547, -1.53860604763031, -2.1611485481262207, 0.75390625, -0.190185546875, -0.59375
518, 3761677361, -5.244203567504883, 2.165667772293091, 8.055057525634766, -2.309446096420288, -1.5686882734298706, -2.2591941356658936, 0.7568359375, -0.18798828125, -0.591796875
519, 3761694028, -5.227893829345703, 2.1416444778442383, 8.07850456237793, -2.2346184253692627, -1.4747536182403564, -2.3572263717651367, 0.7548828125, -0.190185546875, -0.5947265625
520, 3761710695, -5.253082752227783, 2.1166977882385254, 8.089221000671387, -2.1398513317108154, -1.2740012407302856, -2.248692512512207, 0.75439453125, -0.189208984375, -0.595703125
521, 3761727362, -5.250981330871582, 2.1127467155456543, 8.065521240234375, -1.9759302139282227, -1.271324634552002, -2.041562795639038, 0.7548828125, -0.190185546875, -0.59423828125
522, 3761744029, -5.235894203186035, 2.1368913650512695, 8.072738647460938, -1.9220666885375977, -1.4802860021591187, -2.020918846130371, 0.75537109375, -0.188720703125, -0.59228515625
523, 3761760696, -5.224573135375977, 2.145185708999634, 8.079822540283203, -1.8890646696090698, -1.3901675939559937, -2.1840460300445557, 0.75537109375, -0.1884765625, -0.59375
524, 3761777363, -5.274447917938232, 2.133413791656494, 8.08150863647461, -1.7243107557296753, -1.1798232793807983, -2.086448907852173, 0.755859375, -0.189208984375, -0.59521484375
525, 3761794030, -5.2499165534973145, 2.1377527713775635, 8.068347930908203, -1.6252282857894897, -1.141122579574585, -1.9819236993789673, 0.7548828125, -0.1884765625, -0.59326171875
526, 3761810697, -5.2524919509887695, 2.136416435241699, 8.070223808288574, -1.5537813901901245, -1.1030492782592773, -2.0012481212615967, 0.7568359375, -0.190185546875, -0.5947265625
527, 3761827364, -5.2552056312561035, 2.1379520893096924, 8.082451820373535, -1.5008784532546997, -0.9051143527030945, -1.8803948163986206, 0.7568359375, -0.190185546875, -0.59375
528, 3761844031, -5.312933444976807, 2.1572206020355225, 8.048693656921387, -1.2443290948867798, -1.15314781665802, -1.8434358835220337, 0.7548828125, -0.18798828125, -0.59521484375
529, 3761860698, -5.185145378112793, 2.1382288932800293, 8.103706359863281, -1.388784646987915, -1.0695223808288574, -1.7479132413864136, 0.75634765625, -0.190673828125, -0.5927734375
530, 3761877365, -5.229596138000488, 2.1612977981567383, 8.057977676391602, -1.3840333223342896, -1.105456829071045, -1.833152174949646, 0.75439453125, -0.18896484375, -0.59423828125
531, 3761894032, -5.2321648597717285, 2.179253101348877, 8.081372261047363, -1.2141700983047485, -0.8668490648269653, -1.7110947370529175, 0.75634765625, -0.190185546875, -0.590576171875
532, 3761910699, -5.246374130249023, 2.1616475582122803, 8.101016998291016, -1.4929897785186768, -0.9075731635093689, -1.9355518817901611, 0.75537109375, -0.191162109375, -0.59228515625
533, 3761927366, -5.2741379737854, 2.1336581707000732, 8.077566146850586, -1.308437705039978, -0.8320798277854919, -1.891766905784607, 0.75537109375, -0.190185546875, -0.5927734375
534, 3761944033, -5.243632793426514, 2.167012929916382, 8.077478408813477, -1.0778849124908447, -0.6844353675842285, -1.7162302732467651, 0.7568359375, -0.190673828125, -0.591552734375
535, 3761960700, -5.273263931274414, 2.200611114501953, 8.062274932861328, -1.263205647468567, -0.6336709856987, -2.0182294845581055, 0.7568359375, -0.192626953125, -0.591064453125
536, 3761977367, -5.258035182952881, 2.152517557144165, 8.051567077636719, -1.2851043939590454, -0.729052722454071, -2.0027339458465576, 0.7568359375, -0.191162109375, -0.591796875
537, 3761994034, -5.255396842956543, 2.184558153152466, 8.0590181350708, -1.4206210374832153, -0.7526674866676331, -2.0409350395202637, 0.75537109375, -0.191650390625, -0.5927734375
538, 3762010701, -5.287231922149658, 2.160611629486084, 8.040385246276855, -0.9523314833641052, -0.7479164600372314, -1.8608652353286743, 0.7548828125, -0.194580078125, -0.590576171875
539, 3762027368, -5.287576675415039, 2.1628642082214355, 8.06423568725586, -0.9798779487609863, -0.8123195767402649, -1.7993435859680176, 0.7568359375, -0.191650390625, -0.589599609375
540, 3762044035, -5.256556510925293, 2.158705711364746, 8.073619842529297, -0.9940417408943176, -0.8464613556861877, -1.683638095855713, 0.75537109375, -0.193115234375, -0.5927734375
541, 3762060702, -5.254233360290527, 2.198660373687744, 8.015711784362793, -1.026236891746521, -0.8417742252349854, -1.7084952592849731, 0.759521484375, -0.192138671875, -0.590576171875
542, 3762077369, -5.242440223693848, 2.235804557800293, 8.010719299316406, -0.985640823841095, -0.7974641919136047, -1.850965976715088, 0.75634765625, -0.194580078125, -0.5927734375
543, 3762094036, -5.2658185958862305, 2.1836748123168945, 8.049115180969238, -0.8622386455535889, -0.7610300779342651, -1.7208147048950195, 0.75634765625, -0.1953125, -0.589111328125
544, 3762110703, -5.286224365234375, 2.19918155670166, 8.03903865814209, -0.9333139061927795, -0.5526835918426514, -1.7860759496688843, 0.758056640625, -0.1943359375, -0.590576171875
545, 3762127370, -5.274054050445557, 2.190696954727173, 8.002002716064453, -0.8852005004882812, -0.6528164744377136, -1.7773035764694214, 0.759033203125, -0.19384765625, -0.592529296875
546, 3762144037, -5.30288028717041, 2.223421812057495, 8.053730964660645, -0.48892080783843994, -0.6388319134712219, -1.5729013681411743, 0.757568359375, -0.1953125, -0.590087890625
547, 3762160704, -5.2501349449157715, 2.211483955383301, 8.01348876953125, -0.01828746870160103, -0.3765707314014435, -1.2733354568481445, 0.7568359375, -0.1943359375, -0.589111328125
548, 3762177371, -5.294737815856934, 2.2092716693878174, 7.985483646392822, 0.4376121759414673, 0.019497668370604515, -1.076245665550232, 0.758056640625, -0.1982421875, -0.591064453125
549, 3762194038, -5.281575679779053, 2.1659393310546875, 8.046295166015625, 0.6688308119773865, 0.5366820693016052, -0.7281434535980225, 0.756591796875, -0.1962890625, -0.587158203125
550, 3762210705, -5.325578212738037, 2.2118353843688965, 8.029783248901367, 1.619202733039856, 0.6476491689682007, -0.20625905692577362, 0.757568359375, -0.1982421875, -0.58740234375
551, 3762227372, -5.27219820022583, 2.231570243835449, 7.95443868637085, 1.8920034170150757, 0.6338950395584106, -0.021962884813547134, 0.757080078125, -0.200439453125, -0.58642578125
552, 3762244039, -5.269988536834717, 2.244223117828369, 7.986270904541016, 2.6563379764556885, 0.2923625409603119, 0.2347339689731598, 0.757080078125, -0.201416015625, -0.58544921875
553, 3762260706, -5.296046257019043, 2.259690046310425, 7.984770774841309, 2.2323453426361084, 0.45984405279159546, 0.4001920521259308, 0.760986328125, -0.203369140625, -0.58447265625
554, 3762277373, -5.309692859649658, 2.2654850482940674, 7.984380722045898, 1.8612300157546997, 0.601507842540741, 0.6913443207740784, 0.758056640625, -0.204345703125, -0.582275390625
555, 3762294040, -5.311728000640869, 2.2525596618652344, 7.972371578216553, 2.8946385383605957, 0.4252156615257263, 0.9651697874069214, 0.758056640625, -0.202880859375, -0.582763671875
556, 3762310707, -5.186136245727539, 2.3527204990386963, 8.010636329650879, 3.5892417430877686, 1.6333025693893433, 1.3295615911483765, 0.760498046875, -0.20947265625, -0.582275390625
557, 3762327374, -5.251638412475586, 2.4431540966033936, 8.00004768371582, 3.6308884620666504, 2.6633689403533936, 0.7717171311378479, 0.76123046875, -0.2080078125, -0.57958984375
558, 3762344041, -5.3450541496276855, 2.4984543323516846, 7.928281784057617, 3.3179526329040527, 2.814342737197876, -0.023589298129081726, 0.7626953125, -0.2099609375, -0.581298828125
559, 3762360708, -5.371447563171387, 2.354707717895508, 7.929828643798828, 3.0433590412139893, 2.2978885173797607, -0.28751543164253235, 0.7626953125, -0.20947265625, -0.57763671875
560, 3762377375, -5.243907451629639, 2.401761531829834, 7.84449577331543, 3.079920530319214, 1.8738058805465698, 0.23030298948287964, 0.76123046875, -0.212646484375, -0.578125
561, 3762394042, -5.264858722686768, 2.4603195190429688, 8.015697479248047, 3.4728198051452637, 3.135923385620117, 0.7184811234474182, 0.7626953125, -0.215576171875, -0.57763671875
562, 3762410709, -5.356622695922852, 2.518709659576416, 7.8929057121276855, 3.7625763416290283, 4.049822807312012, 0.6252508163452148, 0.76416015625, -0.215087890625, -0.57666015625
563, 3762427376, -5.36976957321167, 2.5442981719970703, 7.893883228302002, 3.5781002044677734, 4.675220489501953, 0.18939952552318573, 0.764892578125, -0.21728515625, -0.572998046875
564, 3762444043, -5.400975704193115, 2.444061040878296, 7.90856409072876, 2.9250285625457764, 4.510134696960449, -0.06983304023742676, 0.7646484375, -0.220703125, -0.572998046875
565, 3762460710, -5.473221778869629, 2.466161012649536, 7.8824238777160645, 2.8109750747680664, 3.665696382522583, -0.0859946459531784, 0.764404296875, -0.220703125, -0.56982421875
566, 3762477377, -5.500396728515625, 2.4778594970703125, 7.834347248077393, 2.423210859298706, 2.8869802951812744, 0.31263503432273865, 0.766357421875, -0.220947265625, -0.56884765625
567, 3762494044, -5.461064338684082, 2.4943792819976807, 7.818012714385986, 2.572673797607422, 2.2095112800598145, 0.5349147915840149, 0.77001953125, -0.221923828125, -0.56884765625
568, 3762510711, -5.364503860473633, 2.5765347480773926, 7.8711748123168945, 2.1975762844085693, 2.1593878269195557, 0.40457186102867126, 0.768798828125, -0.223876953125, -0.565185546875
569, 3762527378, -5.35256814956665, 2.5474038124084473, 7.941735744476318, 2.3443758487701416, 3.0901663303375244, -0.14742670953273773, 0.767822265625, -0.2265625, -0.565673828125
570, 3762544045, -5.397110462188721, 2.500877857208252, 7.899110794067383, 3.0927786827087402, 4.429146766662598, -0.3739454448223114, 0.7685546875, -0.2275390625, -0.560546875
571, 3762560712, -5.4544291496276855, 2.539048194885254, 7.841550827026367, 3.5895752906799316, 5.096921443939209, -0.22851651906967163, 0.76904296875, -0.23046875, -0.5595703125
572, 3762577379, -5.5078887939453125, 2.561367988586426, 7.834776878356934, 3.9686694145202637, 5.011900901794434, -0.34240347146987915, 0.77294921875, -0.2294921875, -0.558837890625
573, 3762594046, -5.524435520172119, 2.6622281074523926, 7.766082763671875, 4.0744242668151855, 4.927224636077881, -0.617279052734375, 0.771484375, -0.231201171875, -0.557861328125
574, 3762610713, -5.487416744232178, 2.6891891956329346, 7.746598720550537, 3.5806877613067627, 4.708901405334473, -0.831836462020874, 0.77099609375, -0.235107421875, -0.554931640625
575, 3762627380, -5.45288610458374, 2.673964738845825, 7.805745601654053, 3.472832679748535, 5.047501564025879, -0.887275218963623, 0.772216796875, -0.234130859375, -0.5546875
576, 3762644047, -5.47333288192749, 2.7259132862091064, 7.802201747894287, 3.186124324798584, 5.743027210235596, -1.3629287481307983, 0.772705078125, -0.236083984375, -0.5517578125
577, 3762660714, -5.4804253578186035, 2.7458035945892334, 7.690741062164307, 2.4799692630767822, 5.668392658233643, -2.1509294509887695, 0.775146484375, -0.236328125, -0.550537109375
578, 3762677381, -5.534453392028809, 2.7587409019470215, 7.618546962738037, 1.5678108930587769, 4.78033447265625, -2.983738660812378, 0.77734375, -0.23486328125, -0.547607421875
579, 3762694048, -5.55485725402832, 2.732222080230713, 7.642769813537598, 0.5263089537620544, 3.2183573246002197, -3.7828032970428467, 0.77685546875, -0.23828125, -0.547119140625
580, 3762710715, -5.620957374572754, 2.7403953075408936, 7.644261837005615, -0.5254701972007751, 1.6988714933395386, -4.4003777503967285, 0.77685546875, -0.23779296875, -0.547607421875
581, 3762727382, -5.635268211364746, 2.7324514389038086, 7.618466377258301, -1.5559078454971313, 0.10422449558973312, -4.882831573486328, 0.77783203125, -0.2353515625, -0.5458984375
582, 3762744049, -5.5335612297058105, 2.7307138442993164, 7.669227600097656, -2.4796295166015625, -0.3435687720775604, -5.197009086608887, 0.77880859375, -0.236328125, -0.546630859375
583, 3762760716, -5.4855546951293945, 2.806581497192383, 7.686007499694824, -3.258012533187866, -0.19682082533836365, -6.321023464202881, 0.77880859375, -0.2353515625, -0.546142578125
584, 3762777383, -5.553795337677002, 2.7140796184539795, 7.677069664001465, -4.252964019775391, -0.31562539935112, -7.6067047119140625, 0.77880859375, -0.231689453125, -0.546142578125
585, 3762794050, -5.580872058868408, 2.6170506477355957, 7.694096088409424, -4.40311861038208, 0.016654660925269127, -7.795419692993164, 0.78076171875, -0.230712890625, -0.54541015625
586, 3762810717, -5.522473335266113, 2.630845546722412, 7.72391414642334, -4.1031036376953125, 1.0109525918960571, -7.68140172958374, 0.7802734375, -0.228271484375, -0.54443359375
587, 3762827384, -5.500927448272705, 2.7048099040985107, 7.731952667236328, -4.0343217849731445, 3.5443568229675293, -8.097188949584961, 0.782470703125, -0.229736328125, -0.54345703125
588, 3762844051, -5.51746129989624, 2.649585008621216, 7.750755310058594, -3.1824047565460205, 6.093436241149902, -8.92620849609375, 0.786376953125, -0.226806640625, -0.541748046875
589, 3762860718, -5.561957359313965, 2.606633424758911, 7.7122368812561035, -3.0162174701690674, 8.453444480895996, -10.40300178527832, 0.785888671875, -0.22509765625, -0.54150390625
590, 3762877385, -5.6735520362854, 2.5479354858398438, 7.6626739501953125, -2.065217971801758, 11.19494342803955, -12.499533653259277, 0.7900390625, -0.22216796875, -0.536865234375
591, 3762894052, -5.569212913513184, 2.590036630630493, 7.692625522613525, -0.1861533522605896, 14.262648582458496, -14.386289596557617, 0.793212890625, -0.2216796875, -0.533203125
592, 3762910719, -5.461780071258545, 2.685053586959839, 7.896673679351807, 0.5145410299301147, 18.07358169555664, -16.547121047973633, 0.796875, -0.21630859375, -0.531005859375
593, 3762927386, -5.423799514770508, 2.6579627990722656, 7.988082408905029, -2.6654322147369385, 23.812911987304688, -17.523508071899414, 0.803955078125, -0.212158203125, -0.5263671875
594, 3762944053, -5.564271926879883, 2.5298635959625244, 7.808981895446777, -2.467193841934204, 32.43072509765625, -19.698631286621094, 0.80908203125, -0.208251953125, -0.51806640625
595, 3762960720, -5.6693949699401855, 2.571047782897949, 7.870048522949219, -0.9179409146308899, 42.44178009033203, -21.766895294189453, 0.813232421875, -0.203369140625, -0.50732421875
596, 3762977387, -5.721524238586426, 2.6332831382751465, 7.727697372436523, 0.7822532653808594, 52.982872009277344, -24.55394744873047, 0.822021484375, -0.19921875, -0.4970703125
597, 3762994054, -5.752960205078125, 2.531439781188965, 7.729742050170898, 3.5123653411865234, 65.93449401855469, -28.30787467956543, 0.83056640625, -0.1953125, -0.48046875
598, 3763010721, -5.932194232940674, 2.459195375442505, 7.631762981414795, 6.755571365356445, 83.5028305053711, -31.303518295288086, 0.845458984375, -0.1875, -0.46044921875
599, 3763027388, -6.105626106262207, 2.498056650161743, 7.478577136993408, 12.113771438598633, 106.38152313232422, -36.77912521362305, 0.863037109375, -0.18212890625, -0.43359375
600, 3763044055, -6.108634948730469, 2.6810991764068604, 7.451716423034668, 13.936746597290039, 131.276123046875, -43.219295501708984, 0.878173828125, -0.173828125, -0.400634765625
601, 3763060722, -6.377416610717773, 2.7703020572662354, 7.65501070022583, 13.938313484191895, 160.4769744873047, -50.598350524902344, 0.89892578125, -0.16455078125, -0.361083984375
602, 3763077389, -6.515669345855713, 2.65970778465271, 7.948031425476074, -0.4178417921066284, 193.19898986816406, -59.936954498291016, 0.918701171875, -0.148681640625, -0.313232421875
603, 3763094056, -6.582437515258789, 2.7641499042510986, 7.177272319793701, -7.121169090270996, 235.3960723876953, -77.32018280029297, 0.9423828125, -0.13134765625, -0.253662109375
604, 3763110723, -7.33056640625, 3.0881900787353516, 7.563799858093262, -17.02235984802246, 275.0122985839844, -102.93229675292969, 0.9619140625, -0.102783203125, -0.179443359375
605, 3763127390, -8.857084274291992, 3.0673062801361084, 7.751803874969482, -35.0673713684082, 312.304931640625, -126.38359832763672, 0.98046875, -0.06884765625, -0.094482421875
606, 3763144057, -12.335392951965332, 3.9430696964263916, 8.394832611083984, -33.47056579589844, 336.8074035644531, -139.04881286621094, 0.99169921875, -0.025390625, -0.00146484375
607, 3763160724, -16.016185760498047, 6.647407531738281, 9.33719253540039, -37.0751838684082, 346.3910827636719, -157.99551391601562, 0.988525390625, 0.016845703125, 0.096923828125
608, 3763177391, -17.51917266845703, 4.457096099853516, 8.632657051086426, -27.83192253112793, 330.6194763183594, -165.3938446044922, 0.978759765625, 0.0625, 0.191650390625
609, 3763194058, -17.504215240478516, 4.739262580871582, 12.044767379760742, -6.383790969848633, 318.6116638183594, -158.28179931640625, 0.95654296875, 0.106689453125, 0.279541015625
610, 3763210725, -17.117517471313477, 6.639056205749512, 14.094626426696777, -6.462038516998291, 283.9837646484375, -155.41082763671875, 0.92578125, 0.14990234375, 0.356689453125
611, 3763227392, -10.005142211914062, 6.120136260986328, 13.4804105758667, -9.623664855957031, 233.73350524902344, -151.84432983398438, 0.89306640625, 0.1904296875, 0.4228515625
612, 3763244059, -6.905100345611572, 7.398289680480957, 7.390594959259033, -53.49098205566406, 219.00344848632812, -149.96994018554688, 0.859375, 0.22607421875, 0.474365234375
613, 3763260726, -22.980199813842773, 10.829020500183105, 21.9564151763916, -23.45545196533203, 131.73460388183594, -70.81790924072266, 0.82666015625, 0.24560546875, 0.5205078125
614, 3763277393, -14.101962089538574, 9.808655738830566, 19.037229537963867, -25.756572723388672, -37.72226333618164, -11.949146270751953, 0.822021484375, 0.249267578125, 0.521484375
615, 3763294060, -6.2420759201049805, 5.525228977203369, 13.215996742248535, -24.55898094177246, -126.17279815673828, 24.954931259155273, 0.839111328125, 0.2421875, 0.494140625
616, 3763310727, -1.9452779293060303, 3.623530149459839, 9.231939315795898, -2.8536183834075928, -148.91416931152344, 49.72901916503906, 0.85986328125, 0.228759765625, 0.461181640625
617, 3763327394, -0.6642282605171204, 3.0472891330718994, 7.716305255889893, 8.467684745788574, -145.1171875, 62.414939880371094, 0.884033203125, 0.21533203125, 0.4248046875
618, 3763344061, -1.3589383363723755, 2.852059841156006, 7.565501689910889, 4.3956732749938965, -139.53321838378906, 68.1080551147461, 0.901611328125, 0.200439453125, 0.38916015625
619, 3763360728, -3.333472967147827, 2.5585880279541016, 8.515290260314941, -7.175434589385986, -147.77847290039062, 73.60099792480469, 0.925048828125, 0.179931640625, 0.351806640625
620, 3763377395, -5.705303192138672, 2.2074434757232666, 9.720874786376953, -17.610380172729492, -176.61155700683594, 82.83468627929688, 0.941650390625, 0.156494140625, 0.310302734375
621, 3763394062, -7.275649070739746, 1.399827480316162, 10.25908374786377, -20.134815216064453, -220.32423400878906, 96.13946533203125, 0.96044921875, 0.128173828125, 0.251953125
622, 3763410729, -8.114472389221191, 0.41378939151763916, 10.025426864624023, -10.918984413146973, -265.6279296875, 111.51139831542969, 0.980224609375, 0.0986328125, 0.181640625
623, 3763427396, -8.304986000061035, -0.14977186918258667, 9.294403076171875, 3.356557607650757, -300.7050476074219, 123.04354858398438, 0.99267578125, 0.06005859375, 0.0966796875
624, 3763444063, -8.358685493469238, -0.3544539213180542, 8.590575218200684, 11.717248916625977, -321.72235107421875, 126.25924682617188, 0.997802734375, 0.025146484375, 0.0048828125
625, 3763460730, -8.46457290649414, -0.6464346647262573, 8.27515697479248, 15.424286842346191, -329.2886047363281, 122.77111053466797, 0.991943359375, -0.011474609375, -0.087158203125
626, 3763477397, -9.387001991271973, -0.727964460849762, 8.92247486114502, 18.7213191986084, -327.5705261230469, 114.76656341552734, 0.9755859375, -0.046630859375, -0.18212890625
627, 3763494064, -11.354358673095703, -0.6840642690658569, 10.42528247833252, 22.273210525512695, -329.8548889160156, 104.69241333007812, 0.94921875, -0.073486328125, -0.267822265625
628, 3763510731, -12.730891227722168, -1.5330320596694946, 11.368753433227539, 33.634098052978516, -337.8275146484375, 95.05643463134766, 0.91943359375, -0.107421875, -0.357177734375
629, 3763527398, -13.995539665222168, -1.9476161003112793, 12.179476737976074, 54.253257751464844, -337.8612365722656, 77.33311462402344, 0.876220703125, -0.14013671875, -0.44091796875
630, 3763544065, -16.989408493041992, -1.0357589721679688, 13.74252986907959, 72.85968780517578, -333.1202697753906, 53.48417282104492, 0.826416015625, -0.1689453125, -0.518798828125
631, 3763560732, -22.901309967041016, 0.9591890573501587, 14.912921905517578, 82.87332153320312, -345.0931701660156, 40.688602447509766, 0.7666015625, -0.19775390625, -0.592041015625
632, 3763577399, -27.51190757751465, 2.5340592861175537, 13.139375686645508, 86.53958892822266, -370.8758239746094, 41.71370315551758, 0.694580078125, -0.225341796875, -0.662353515625
633, 3763594066, -29.226940155029297, 4.575659275054932, 7.279895782470703, 85.45219421386719, -385.7220153808594, 51.452571868896484, 0.61328125, -0.2587890625, -0.728271484375
634, 3763610733, -27.644548416137695, 3.7452690601348877, -0.6080418825149536, 83.49615478515625, -352.8466796875, 62.2663688659668, 0.525634765625, -0.28857421875, -0.780517578125
635, 3763627400, -29.491859436035156, -3.6440935134887695, -8.60853099822998, 118.21528625488281, -261.02642822265625, 93.82099151611328, 0.451171875, -0.329345703125, -0.81103515625
636, 3763644067, -35.591156005859375, -14.10173225402832, -17.37162971496582, 156.69569396972656, -155.06918334960938, 120.80615997314453, 0.39208984375, -0.3818359375, -0.8154296875
637, 3763660734, -29.788190841674805, -14.647333145141602, -18.48290252685547, 77.05009460449219, -17.524503707885742, 64.3022689819336, 0.3671875, -0.42236328125, -0.806884765625
638, 3763677401, -25.543485641479492, -8.969117164611816, -8.233945846557617, -72.13311767578125, 84.93526458740234, -80.11299896240234, 0.386474609375, -0.40478515625, -0.80419921875
639, 3763694068, -20.48896598815918, -2.20682954788208, 2.636211395263672, -77.94554901123047, 93.58614349365234, -115.32044982910156, 0.42626953125, -0.37109375, -0.802734375
640, 3763710735, 8.391962051391602, 17.586488723754883, 22.514680862426758, -88.32194519042969, 94.81015014648438, -95.68899536132812, 0.4560546875, -0.339111328125, -0.801025390625
641, 3763727402, 11.412005424499512, 8.506183624267578, -0.5092452764511108, -105.24917602539062, 138.36392211914062, -101.21366119384766, 0.4912109375, -0.29833984375, -0.793212890625
642, 3763744069, -13.495180130004883, -2.8278822898864746, 10.114579200744629, -68.49201965332031, 265.7187805175781, -7.090940475463867, 0.55419921875, -0.277099609375, -0.7607421875
643, 3763760736, -17.181053161621094, -8.945767402648926, 19.1946964263916, -68.27960968017578, 191.48512268066406, -33.445804595947266, 0.605712890625, -0.259033203125, -0.726806640625
644, 3763777403, -10.838457107543945, -5.421560764312744, 14.310823440551758, -36.479820251464844, 131.3680877685547, -98.86918640136719, 0.64453125, -0.233154296875, -0.70556640625
645, 3763794070, -9.858736991882324, 8.046564102172852, 10.04292106628418, -21.00606346130371, 113.57514953613281, -57.3995246887207, 0.67138671875, -0.2138671875, -0.685302734375
646, 3763810737, -8.253905296325684, 4.754076957702637, 9.12487506866455, -29.116485595703125, 105.9295425415039, -24.394393920898438, 0.694091796875, -0.204345703125, -0.6630859375
647, 3763827404, -7.09306526184082, 1.877981185913086, 8.780707359313965, -35.75544357299805, 85.63316345214844, -38.36294937133789, 0.714111328125, -0.19091796875, -0.649169921875
648, 3763844071, -13.257036209106445, 6.4822096824646, 13.2446870803833, -62.11319351196289, 50.82545852661133, -42.01895523071289, 0.7314453125, -0.1708984375, -0.638671875
649, 3763860738, -7.148294448852539, -1.4972798824310303, 9.174552917480469, -44.08131790161133, 8.494791984558105, -24.27935791015625, 0.735107421875, -0.15478515625, -0.639404296875
650, 3763877405, -5.681496620178223, 2.44987416267395, 8.727293968200684, -22.273317337036133, 6.553928375244141, -13.291129112243652, 0.737548828125, -0.147705078125, -0.6357421875
651, 3763894072, -5.794369220733643, 0.02365248277783394, 9.272833824157715, -5.818222999572754, 10.758268356323242, -4.984042644500732, 0.73876953125, -0.14453125, -0.63671875
652, 3763910739, -5.416849613189697, 1.1370357275009155, 8.610279083251953, 9.233237266540527, 11.327371597290039, 3.0297091007232666, 0.7431640625, -0.146728515625, -0.631103515625
653, 3763927406, -5.245150089263916, 1.7096034288406372, 8.255472183227539, 14.045336723327637, 11.44139289855957, 5.194883346557617, 0.743896484375, -0.15234375, -0.62841796875
654, 3763944073, -4.808589935302734, 2.3181421756744385, 8.018961906433105, 12.719206809997559, 9.503914833068848, 3.5139949321746826, 0.743896484375, -0.15576171875, -0.6259765625
655, 3763960740, -4.835956573486328, 2.7338778972625732, 7.949790000915527, 6.777832508087158, 5.7459611892700195, -1.3387633562088013, 0.745849609375, -0.157958984375, -0.622802734375
656, 3763977407, -4.841973304748535, 3.018836498260498, 7.811922073364258, -2.6220240592956543, 1.3065359592437744, -7.804229736328125, 0.746337890625, -0.159912109375, -0.621826171875
