sep=,
DeviceTag:,B,,,,,,,,,,,,,,,,,
FirmwareVersion:,2.2.1,,,,,,,,,,,,,,,,,
AppVersion:,2022.0.1,,,,,,,,,,,,,,,,,
SyncStatus:,Synced,,,,,,,,,,,,,,,,,
OutputRate:,60Hz,,,,,,,,,,,,,,,,,
FilterProfile:,General,,,,,,,,,,,,,,,,,
Measurement Mode:,Inertial Mode - Rate quantities (with mag),,,,,,,,,,,,,,,,,
StartTime:,2022-08-16 15:00:35.267 +0300,,,,,,,,,,,,,,,,,
© Xsens Technologies B. V. 2005-2022,,,,,,,,,,,,,,,,,,,

PacketCounter,SampleTimeFine,Acc_X,Acc_Y,Acc_Z,Gyr_X,Gyr_Y,Gyr_Z,Mag_X,Mag_Y,Mag_Z
1, 3753043855, -5.262201309204102, -1.8198076486587524, 7.944689750671387, -0.24881458282470703, -0.7536153197288513, -1.6120376586914062, 0.715087890625, 0.05615234375, -0.636962890625
2, 3753060522, -5.265760898590088, -1.8173469305038452, 7.94536018371582, -0.30703216791152954, -0.9142835736274719, -1.7767783403396606, 0.715087890625, 0.0546875, -0.6337890625
3, 3753077189, -5.237857818603516, -1.8460685014724731, 7.950149059295654, -0.23023252189159393, -0.9533045887947083, -1.645026683807373, 0.714111328125, 0.0537109375, -0.6357421875
4, 3753093856, -5.226872444152832, -1.8311959505081177, 7.971341133117676, -0.10493522882461548, -1.0366098880767822, -1.5699046850204468, 0.716064453125, 0.0556640625, -0.63427734375
5, 3753110523, -5.231772422790527, -1.8106374740600586, 7.951202392578125, -0.1544317901134491, -0.9613344073295593, -1.535635232925415, 0.71240234375, 0.05517578125, -0.635986328125
6, 3753127190, -5.245613098144531, -1.8149347305297852, 7.9377055168151855, -0.2523235082626343, -0.853632926940918, -1.5538840293884277, 0.713623046875, 0.0546875, -0.634765625
7, 3753143857, -5.224592685699463, -1.83274507522583, 7.962928295135498, -0.3544541299343109, -0.783133864402771, -1.64434814453125, 0.716064453125, 0.05517578125, -0.63623046875
8, 3753160524, -5.250702381134033, -1.8092120885849, 7.934762001037598, -0.3450543284416199, -0.7396692037582397, -1.5769612789154053, 0.716552734375, 0.0556640625, -0.6357421875
9, 3753177191, -5.2352824211120605, -1.8143686056137085, 7.947551727294922, -0.2538602948188782, -0.7499781847000122, -1.6735849380493164, 0.713623046875, 0.0537109375, -0.634765625
10, 3753193858, -5.2409467697143555, -1.8171665668487549, 7.960512161254883, -0.28442901372909546, -0.7375816106796265, -1.692192554473877, 0.715087890625, 0.0546875, -0.63623046875
11, 3753210525, -5.238336086273193, -1.808457612991333, 7.962785243988037, -0.3438761532306671, -0.6968191266059875, -1.610974907875061, 0.715087890625, 0.0546875, -0.63623046875
12, 3753227192, -5.233376502990723, -1.8298225402832031, 7.9524030685424805, -0.23205101490020752, -0.7595445513725281, -1.5267215967178345, 0.714111328125, 0.0537109375, -0.63427734375
13, 3753243859, -5.260899066925049, -1.813489556312561, 7.910065650939941, -0.09005424380302429, -1.0362896919250488, -1.68044912815094, 0.716552734375, 0.05224609375, -0.63427734375
14, 3753260526, -5.248889446258545, -1.8081032037734985, 7.92905855178833, -0.10718914121389389, -0.9913907647132874, -1.7628324031829834, 0.715087890625, 0.05419921875, -0.637451171875
15, 3753277193, -5.187979698181152, -1.860453724861145, 7.961106300354004, -0.13038145005702972, -0.9376810193061829, -1.458989143371582, 0.715087890625, 0.05517578125, -0.6357421875
16, 3753293860, -5.2672624588012695, -1.7404673099517822, 7.973567008972168, -0.2526308596134186, -0.8962650895118713, -1.4364752769470215, 0.713623046875, 0.0537109375, -0.63623046875
17, 3753310527, -5.2329254150390625, -1.8015352487564087, 7.9798150062561035, -0.3031263053417206, -0.876453697681427, -1.7521390914916992, 0.715087890625, 0.052734375, -0.63671875
18, 3753327194, -5.243291854858398, -1.7748178243637085, 7.964789867401123, -0.18100494146347046, -0.8640187978744507, -1.617096185684204, 0.716064453125, 0.05322265625, -0.63671875
19, 3753343861, -5.226504325866699, -1.8478127717971802, 7.9257426261901855, -0.318942129611969, -0.9140403866767883, -1.6790788173675537, 0.714599609375, 0.0556640625, -0.63427734375
20, 3753360528, -5.2319159507751465, -1.8279188871383667, 7.935935020446777, -0.12725669145584106, -0.9396018385887146, -1.5429089069366455, 0.714599609375, 0.0546875, -0.63427734375
21, 3753377195, -5.225875377655029, -1.7875230312347412, 7.9570488929748535, -0.2617489993572235, -1.0330370664596558, -1.5781264305114746, 0.715576171875, 0.0537109375, -0.63720703125
22, 3753393862, -5.219788551330566, -1.8095899820327759, 7.9706196784973145, -0.23091129958629608, -1.0059516429901123, -1.4599494934082031, 0.715087890625, 0.052734375, -0.6357421875
23, 3753410529, -5.237123489379883, -1.7819397449493408, 7.971848011016846, -0.22016675770282745, -0.9618080258369446, -1.6674250364303589, 0.715576171875, 0.05419921875, -0.6376953125
24, 3753427196, -5.22451639175415, -1.8141069412231445, 7.932367324829102, -0.23278100788593292, -1.0415531396865845, -1.5825444459915161, 0.713623046875, 0.05517578125, -0.63623046875
25, 3753443863, -5.244876384735107, -1.8126481771469116, 7.9674906730651855, -0.21421177685260773, -1.0812655687332153, -1.513710379600525, 0.715087890625, 0.05419921875, -0.63720703125
26, 3753460530, -5.222781658172607, -1.7940864562988281, 7.985846996307373, -0.22344516217708588, -1.099565863609314, -1.6112562417984009, 0.714599609375, 0.05322265625, -0.637451171875
27, 3753477197, -5.205191135406494, -1.8323510885238647, 7.93821382522583, -0.3322223126888275, -1.1234883069992065, -1.7036798000335693, 0.713623046875, 0.05322265625, -0.63671875
28, 3753493864, -5.212764739990234, -1.8051306009292603, 7.970613479614258, -0.2982214391231537, -1.0986950397491455, -1.6400065422058105, 0.714599609375, 0.05419921875, -0.63671875
29, 3753510531, -5.222660064697266, -1.7981443405151367, 7.937037467956543, -0.22359885275363922, -0.968275249004364, -1.7320075035095215, 0.714111328125, 0.0546875, -0.636962890625
30, 3753527198, -5.223403453826904, -1.798255443572998, 7.948797225952148, -0.27075183391571045, -0.873725950717926, -1.7055623531341553, 0.714111328125, 0.0546875, -0.637451171875
31, 3753543865, -5.215024948120117, -1.8240177631378174, 7.9554548263549805, -0.2765786945819855, -0.9604121446609497, -1.6686415672302246, 0.713134765625, 0.052490234375, -0.63671875
32, 3753560532, -5.2151780128479, -1.8087102174758911, 7.973664283752441, -0.260570764541626, -0.7699688076972961, -1.6531586647033691, 0.714111328125, 0.0546875, -0.63623046875
33, 3753577199, -5.219640731811523, -1.7892955541610718, 7.94179105758667, -0.3785043954849243, -0.6198272705078125, -1.772104024887085, 0.712158203125, 0.05419921875, -0.635986328125
34, 3753593866, -5.217355251312256, -1.794809103012085, 7.935210227966309, -0.43965470790863037, -0.6185722351074219, -1.84986412525177, 0.715576171875, 0.05419921875, -0.63671875
35, 3753610533, -5.2219014167785645, -1.8197989463806152, 7.980705738067627, -0.44108903408050537, -0.6016165614128113, -1.8038123846054077, 0.713134765625, 0.05517578125, -0.636962890625
36, 3753627200, -5.208427906036377, -1.8165050745010376, 7.9497270584106445, -0.39191269874572754, -0.5698185563087463, -1.7833865880966187, 0.713623046875, 0.052490234375, -0.6357421875
37, 3753643867, -5.215798377990723, -1.8116389513015747, 7.957624435424805, -0.25824007391929626, -0.5297859311103821, -1.6974177360534668, 0.714599609375, 0.052734375, -0.638916015625
38, 3753660534, -5.226963996887207, -1.8038655519485474, 7.960282325744629, -0.370756596326828, -0.5985046029090881, -1.682818055152893, 0.715576171875, 0.0546875, -0.63623046875
39, 3753677201, -5.221404075622559, -1.8011258840560913, 7.940191268920898, -0.3898252546787262, -0.5814338326454163, -1.7796343564987183, 0.713134765625, 0.052734375, -0.636962890625
40, 3753693868, -5.222262859344482, -1.8171170949935913, 7.9448771476745605, -0.3515086770057678, -0.5327953696250916, -1.8346246480941772, 0.715576171875, 0.05419921875, -0.6357421875
41, 3753710535, -5.228508949279785, -1.8112543821334839, 7.94272518157959, -0.3678880035877228, -0.5176966190338135, -1.7226461172103882, 0.713623046875, 0.05322265625, -0.638427734375
42, 3753727202, -5.226703643798828, -1.7937959432601929, 7.957703113555908, -0.4047689437866211, -0.5473633408546448, -1.6954317092895508, 0.712646484375, 0.05322265625, -0.636962890625
43, 3753743869, -5.205104827880859, -1.7981024980545044, 7.948899269104004, -0.4533446729183197, -0.4771261215209961, -1.832409143447876, 0.713623046875, 0.0556640625, -0.637451171875
44, 3753760536, -5.2307844161987305, -1.8187352418899536, 7.971778392791748, -0.4803020656108856, -0.2681137025356293, -1.7890467643737793, 0.713623046875, 0.05322265625, -0.6357421875
45, 3753777203, -5.2292890548706055, -1.8127214908599854, 7.937092304229736, -0.483234703540802, -0.24201439321041107, -1.7601813077926636, 0.712158203125, 0.0537109375, -0.635986328125
46, 3753793870, -5.237149715423584, -1.8221240043640137, 7.946741580963135, -0.4574684798717499, -0.41355547308921814, -1.6655939817428589, 0.714599609375, 0.05322265625, -0.637451171875
47, 3753810537, -5.2191619873046875, -1.809935450553894, 7.95707893371582, -0.3831404149532318, -0.4963357150554657, -1.620029091835022, 0.712158203125, 0.052734375, -0.635986328125
48, 3753827204, -5.21852445602417, -1.8136203289031982, 7.986087322235107, -0.29923316836357117, -0.39052966237068176, -1.569610357284546, 0.713623046875, 0.052490234375, -0.637939453125
49, 3753843871, -5.231101989746094, -1.7880961894989014, 7.949608325958252, -0.43956512212753296, -0.25281015038490295, -1.673546552658081, 0.714111328125, 0.0537109375, -0.63671875
50, 3753860538, -5.222415924072266, -1.8176982402801514, 7.961484432220459, -0.44851675629615784, -0.24383290112018585, -1.7497186660766602, 0.71875, 0.05615234375, -0.63720703125
51, 3753877205, -5.229073524475098, -1.8086073398590088, 7.962003231048584, -0.4035281240940094, -0.09334548562765121, -1.6794376373291016, 0.714111328125, 0.05419921875, -0.6337890625
52, 3753893872, -5.220437526702881, -1.8218764066696167, 7.938076972961426, -0.3278553783893585, -0.3235652446746826, -1.5940831899642944, 0.715576171875, 0.05322265625, -0.6357421875
53, 3753910539, -5.231765270233154, -1.8069689273834229, 7.940103530883789, -0.3428387939929962, -0.3843313753604889, -1.6509562730789185, 0.716064453125, 0.05517578125, -0.6357421875
54, 3753927206, -5.22105598449707, -1.8114595413208008, 7.940507411956787, -0.3252428472042084, -0.2998991310596466, -1.5930843353271484, 0.714111328125, 0.052490234375, -0.63427734375
55, 3753943873, -5.236867904663086, -1.7968381643295288, 7.958658695220947, -0.36513468623161316, -0.35912850499153137, -1.5863866806030273, 0.712646484375, 0.0537109375, -0.6337890625
56, 3753960540, -5.253651142120361, -1.801945447921753, 7.964972972869873, -0.4498870074748993, -0.43737518787384033, -1.7119909524917603, 0.713623046875, 0.052001953125, -0.63671875
57, 3753977207, -5.222879886627197, -1.8188010454177856, 7.953668594360352, -0.3653779923915863, -0.5978132486343384, -1.6766330003738403, 0.712646484375, 0.052734375, -0.6357421875
58, 3753993874, -5.223309516906738, -1.8062732219696045, 7.959877967834473, -0.3935007154941559, -0.4069857597351074, -1.6596643924713135, 0.714111328125, 0.052490234375, -0.63623046875
59, 3754010541, -5.2431135177612305, -1.7837059497833252, 7.967448711395264, -0.5058252215385437, -0.35112452507019043, -1.7084823846817017, 0.714111328125, 0.0546875, -0.637451171875
60, 3754027208, -5.2571821212768555, -1.8084462881088257, 7.944854259490967, -0.47278478741645813, -0.4566231667995453, -1.830001711845398, 0.713134765625, 0.0556640625, -0.635986328125
61, 3754043875, -5.241606712341309, -1.8056799173355103, 7.952844619750977, -0.5828937292098999, -0.49035507440567017, -1.7625248432159424, 0.715087890625, 0.052001953125, -0.63623046875
62, 3754060542, -5.20674467086792, -1.8159735202789307, 7.940077304840088, -0.48365744948387146, -0.4888952374458313, -1.6343977451324463, 0.715576171875, 0.05322265625, -0.63720703125
63, 3754077209, -5.214045524597168, -1.798735499382019, 7.95463752746582, -0.45936378836631775, -0.37808188796043396, -1.6354221105575562, 0.713134765625, 0.05419921875, -0.63525390625
64, 3754093876, -5.24655818939209, -1.7845969200134277, 7.958776473999023, -0.5466645956039429, -0.26279908418655396, -1.7519725561141968, 0.716064453125, 0.05224609375, -0.63525390625
65, 3754110543, -5.238322734832764, -1.8214565515518188, 7.970702171325684, -0.4638459384441376, -0.36151042580604553, -1.8622865676879883, 0.715087890625, 0.05419921875, -0.63623046875
66, 3754127210, -5.222744941711426, -1.8218011856079102, 7.920649528503418, -0.4832603335380554, -0.4910849928855896, -1.7358235120773315, 0.715087890625, 0.052734375, -0.634765625
67, 3754143877, -5.220306873321533, -1.8365912437438965, 7.923352241516113, -0.4188061058521271, -0.37176838517189026, -1.6295185089111328, 0.714111328125, 0.05322265625, -0.63623046875
68, 3754160544, -5.238006114959717, -1.795973539352417, 7.961672782897949, -0.5238053202629089, -0.2977476418018341, -1.6702041625976562, 0.713134765625, 0.052490234375, -0.634765625
69, 3754177211, -5.245009899139404, -1.8077991008758545, 7.940864562988281, -0.5382893681526184, -0.23869755864143372, -1.6793352365493774, 0.715087890625, 0.0546875, -0.634765625
70, 3754193878, -5.221989154815674, -1.8211445808410645, 7.9468770027160645, -0.5669499039649963, -0.19428512454032898, -1.8295150995254517, 0.713134765625, 0.05517578125, -0.63330078125
71, 3754210545, -5.247437000274658, -1.802561640739441, 7.949489593505859, -0.548227071762085, -0.21611995995044708, -1.775292992591858, 0.713623046875, 0.05419921875, -0.63330078125
72, 3754227212, -5.225308418273926, -1.8155386447906494, 7.935912609100342, -0.4970272183418274, -0.25188809633255005, -1.7967180013656616, 0.713623046875, 0.05419921875, -0.63232421875
73, 3754243879, -5.240396022796631, -1.8148685693740845, 7.946552276611328, -0.6246936917304993, -0.16776317358016968, -1.7208147048950195, 0.714599609375, 0.05322265625, -0.63427734375
74, 3754260546, -5.249774932861328, -1.8164751529693604, 7.937068462371826, -0.5796794295310974, -0.1709647923707962, -1.7052936553955078, 0.715087890625, 0.05517578125, -0.637451171875
75, 3754277213, -5.224170207977295, -1.796225666999817, 7.942761421203613, -0.6352205276489258, 0.0362611748278141, -1.798331618309021, 0.716064453125, 0.05419921875, -0.63525390625
76, 3754293880, -5.238361835479736, -1.8029385805130005, 7.94620418548584, -0.7512844800949097, 0.17527411878108978, -1.7783024311065674, 0.716552734375, 0.0556640625, -0.63525390625
77, 3754310547, -5.2416887283325195, -1.8169931173324585, 7.900181770324707, -0.7983734607696533, 0.3297186493873596, -1.8171696662902832, 0.716552734375, 0.05419921875, -0.63330078125
78, 3754327214, -5.253572463989258, -1.8191040754318237, 7.927620887756348, -0.6499989628791809, 0.25742679834365845, -1.7521388530731201, 0.714111328125, 0.0537109375, -0.63330078125
79, 3754343881, -5.301821231842041, -1.8167463541030884, 7.940217018127441, -0.5964429378509521, -0.021322572603821754, -1.7582348585128784, 0.717041015625, 0.051513671875, -0.63427734375
80, 3754360548, -5.247798442840576, -1.8237799406051636, 7.932566165924072, -0.5659253597259521, -0.2725319266319275, -1.7684799432754517, 0.716064453125, 0.0556640625, -0.634765625
81, 3754377215, -5.260620594024658, -1.806452989578247, 7.946563720703125, -0.41648805141448975, -0.4730152487754822, -1.6969053745269775, 0.714599609375, 0.0546875, -0.6328125
82, 3754393882, -5.257441520690918, -1.816720962524414, 7.9279961585998535, -0.37062856554985046, -0.5288381576538086, -1.7306628227233887, 0.714111328125, 0.0537109375, -0.636962890625
83, 3754410549, -5.268921375274658, -1.8028194904327393, 7.929113388061523, -0.41907504200935364, -0.5754533410072327, -1.6600488424301147, 0.716552734375, 0.05517578125, -0.63427734375
84, 3754427216, -5.264849662780762, -1.8234660625457764, 7.930603981018066, -0.4162447452545166, -0.6461570262908936, -1.8724929094314575, 0.717041015625, 0.05517578125, -0.633056640625
85, 3754443883, -5.246142864227295, -1.8346405029296875, 7.95780086517334, -0.537034273147583, -0.8331938982009888, -1.7830535173416138, 0.71826171875, 0.0537109375, -0.634765625
86, 3754460550, -5.253247261047363, -1.8152810335159302, 7.934227466583252, -0.45780137181282043, -0.8242679238319397, -1.7747678756713867, 0.715576171875, 0.0546875, -0.63330078125
87, 3754477217, -5.262814521789551, -1.8077657222747803, 7.932775497436523, -0.58322674036026, -0.6881235837936401, -1.8295278549194336, 0.716552734375, 0.0546875, -0.63525390625
88, 3754493884, -5.286447525024414, -1.8152490854263306, 7.936837196350098, -0.6338759064674377, -0.7240710258483887, -1.920965313911438, 0.718017578125, 0.0546875, -0.631591796875
89, 3754510551, -5.239504814147949, -1.8364397287368774, 7.924459934234619, -0.5889639258384705, -0.7986422181129456, -1.795168161392212, 0.716064453125, 0.05615234375, -0.63427734375
90, 3754527218, -5.23852014541626, -1.838747262954712, 7.921633243560791, -0.40588441491127014, -0.9047302007675171, -1.7455053329467773, 0.717529296875, 0.0556640625, -0.634765625
91, 3754543885, -5.244054317474365, -1.8211487531661987, 7.952363014221191, -0.3849332332611084, -0.7880515456199646, -1.6938318014144897, 0.714599609375, 0.0537109375, -0.63671875
92, 3754560552, -5.249714374542236, -1.7987570762634277, 7.951783657073975, -0.4947476387023926, -0.6394209265708923, -1.777700424194336, 0.717529296875, 0.05419921875, -0.633544921875
93, 3754577219, -5.256646633148193, -1.8103539943695068, 7.935319900512695, -0.4762296676635742, -0.6543787717819214, -1.8830069303512573, 0.714599609375, 0.05517578125, -0.6337890625
94, 3754593886, -5.252259254455566, -1.8458185195922852, 7.938614845275879, -0.5192078351974487, -0.6697977185249329, -1.813225269317627, 0.714599609375, 0.05322265625, -0.63427734375
95, 3754610553, -5.241309642791748, -1.8308271169662476, 7.944360256195068, -0.3203764259815216, -0.636936604976654, -1.775139331817627, 0.718017578125, 0.0546875, -0.6357421875
96, 3754627220, -5.248504638671875, -1.8157907724380493, 7.9210662841796875, -0.37029552459716797, -0.7278743982315063, -1.74500572681427, 0.717529296875, 0.0546875, -0.632080078125
97, 3754643887, -5.252600193023682, -1.8171327114105225, 7.923059940338135, -0.4081895649433136, -0.7618496417999268, -1.7412279844284058, 0.715576171875, 0.05419921875, -0.63623046875
98, 3754660554, -5.230953693389893, -1.826280117034912, 7.938315391540527, -0.4166417717933655, -0.6353870630264282, -1.7047171592712402, 0.714111328125, 0.056884765625, -0.63232421875
99, 3754677221, -5.243803024291992, -1.8171610832214355, 7.945545673370361, -0.48048141598701477, -0.6076229214668274, -1.7374502420425415, 0.717041015625, 0.05517578125, -0.6337890625
100, 3754693888, -5.249410629272461, -1.8167225122451782, 7.9201765060424805, -0.5132015943527222, -0.5476763248443604, -1.7860630750656128, 0.714111328125, 0.05419921875, -0.63623046875
101, 3754710555, -5.255643844604492, -1.8485740423202515, 7.915630340576172, -0.4261440634727478, -0.6272293329238892, -1.7751903533935547, 0.717529296875, 0.05517578125, -0.633544921875
102, 3754727222, -5.2452850341796875, -1.8087282180786133, 7.933337688446045, -0.3796442449092865, -0.6445563435554504, -1.691296100616455, 0.716552734375, 0.0556640625, -0.6337890625
103, 3754743889, -5.233428001403809, -1.8192647695541382, 7.939483642578125, -0.34846076369285583, -0.7006993889808655, -1.7585806846618652, 0.715087890625, 0.05419921875, -0.63232421875
104, 3754760556, -5.254749774932861, -1.8169875144958496, 7.9625444412231445, -0.43905285000801086, -0.6733322143554688, -1.7845134735107422, 0.714599609375, 0.056884765625, -0.63525390625
105, 3754777223, -5.251939296722412, -1.830631971359253, 7.940888404846191, -0.4083816409111023, -0.6929514408111572, -1.8736199140548706, 0.717529296875, 0.0546875, -0.633544921875
106, 3754793890, -5.260540008544922, -1.834762454032898, 7.9426774978637695, -0.28423044085502625, -0.7042915225028992, -1.7187079191207886, 0.715087890625, 0.05322265625, -0.634765625
107, 3754810557, -5.253350734710693, -1.830585241317749, 7.956831932067871, -0.2655909061431885, -0.7969391942024231, -1.5842864513397217, 0.716064453125, 0.05419921875, -0.63623046875
108, 3754827224, -5.256200313568115, -1.8036184310913086, 7.9335784912109375, -0.24526721239089966, -0.7997180819511414, -1.6696534156799316, 0.717041015625, 0.057373046875, -0.63525390625
109, 3754843891, -5.2546844482421875, -1.8272818326950073, 7.9401726722717285, -0.2560245096683502, -0.8186330795288086, -1.7027320861816406, 0.715576171875, 0.05517578125, -0.6357421875
110, 3754860558, -5.258795261383057, -1.818083643913269, 7.93910026550293, -0.24159176647663116, -0.8767867088317871, -1.7228894233703613, 0.716064453125, 0.0556640625, -0.634765625
111, 3754877225, -5.2487969398498535, -1.8316172361373901, 7.9176859855651855, -0.19854964315891266, -0.9060364365577698, -1.6766839027404785, 0.717041015625, 0.0546875, -0.63427734375
112, 3754893892, -5.256259918212891, -1.8173272609710693, 7.929805278778076, -0.2004065364599228, -0.9954246282577515, -1.6111027002334595, 0.716064453125, 0.05517578125, -0.63671875
113, 3754910559, -5.248501777648926, -1.8171285390853882, 7.946603775024414, -0.21330252289772034, -1.0516955852508545, -1.66581130027771, 0.715087890625, 0.0546875, -0.6357421875
114, 3754927226, -5.2549519538879395, -1.8190035820007324, 7.943361282348633, -0.26331427693367004, -1.0775009393692017, -1.707047700881958, 0.715576171875, 0.0556640625, -0.634765625
115, 3754943893, -5.241759777069092, -1.8266379833221436, 7.93755578994751, -0.1613600105047226, -1.1028443574905396, -1.7296767234802246, 0.716552734375, 0.0537109375, -0.6357421875
116, 3754960560, -5.258574485778809, -1.8211877346038818, 7.923431396484375, -0.2847619950771332, -1.2578524351119995, -1.7210582494735718, 0.713134765625, 0.0537109375, -0.63623046875
117, 3754977227, -5.265904903411865, -1.8046849966049194, 7.931958198547363, -0.19178789854049683, -1.324163794517517, -1.6419148445129395, 0.714599609375, 0.0546875, -0.63427734375
118, 3754993894, -5.24357271194458, -1.8241969347000122, 7.968616485595703, -0.08246009051799774, -1.3843408823013306, -1.6063644886016846, 0.714599609375, 0.05419921875, -0.63623046875
119, 3755010561, -5.217930793762207, -1.8361321687698364, 7.935908794403076, -0.035115014761686325, -1.2842336893081665, -1.6217066049575806, 0.713134765625, 0.05322265625, -0.63525390625
120, 3755027228, -5.215033531188965, -1.8086491823196411, 7.946590900421143, 0.045289650559425354, -1.2847585678100586, -1.6202976703643799, 0.712646484375, 0.05517578125, -0.63525390625
121, 3755043895, -5.249077320098877, -1.7955529689788818, 7.947423458099365, -0.12332513928413391, -1.0387228727340698, -1.7466963529586792, 0.712646484375, 0.0537109375, -0.635986328125
122, 3755060562, -5.229402542114258, -1.8067461252212524, 7.957862377166748, -0.30746763944625854, -0.9630759954452515, -1.8182326555252075, 0.713623046875, 0.0546875, -0.638427734375
123, 3755077229, -5.228775501251221, -1.822271704673767, 7.961609363555908, -0.31370431184768677, -0.9446987509727478, -1.8185656070709229, 0.714111328125, 0.05517578125, -0.636962890625
124, 3755093896, -5.222385883331299, -1.8344063758850098, 7.941004276275635, -0.26155683398246765, -0.9659443497657776, -1.7074575424194336, 0.715576171875, 0.0546875, -0.634765625
125, 3755110563, -5.221516132354736, -1.8185681104660034, 7.960360527038574, -0.23595696687698364, -0.8978787660598755, -1.6764150857925415, 0.717041015625, 0.0537109375, -0.63671875
126, 3755127230, -5.229802131652832, -1.7946970462799072, 7.949484348297119, -0.23231998085975647, -0.7063726186752319, -1.6708699464797974, 0.714111328125, 0.05419921875, -0.637451171875
127, 3755143897, -5.240283966064453, -1.8047999143600464, 7.93143367767334, -0.48054543137550354, -0.5996189117431641, -1.805772066116333, 0.713134765625, 0.05322265625, -0.63427734375
128, 3755160564, -5.22412633895874, -1.8352789878845215, 7.944057464599609, -0.34286436438560486, -0.7764233350753784, -1.7494242191314697, 0.715576171875, 0.05517578125, -0.63671875
129, 3755177231, -5.227304935455322, -1.8155579566955566, 7.961672782897949, -0.4283083975315094, -0.7109060287475586, -1.6989158391952515, 0.715087890625, 0.0546875, -0.63525390625
130, 3755193898, -5.220551013946533, -1.8086577653884888, 7.962419033050537, -0.40579476952552795, -0.6711167097091675, -1.7685695886611938, 0.716552734375, 0.05419921875, -0.6357421875
131, 3755210565, -5.224012851715088, -1.8086916208267212, 7.938039302825928, -0.446006715297699, -0.6717697978019714, -1.8622609376907349, 0.714599609375, 0.0537109375, -0.638916015625
132, 3755227232, -5.215548515319824, -1.8106392621994019, 7.9671149253845215, -0.5950725078582764, -0.6016805768013, -1.8289000988006592, 0.713134765625, 0.056640625, -0.637939453125
133, 3755243899, -5.2467732429504395, -1.8009085655212402, 7.9692254066467285, -0.6007969975471497, -0.556359052658081, -1.875233769416809, 0.717041015625, 0.0546875, -0.638916015625
134, 3755260566, -5.220924377441406, -1.820756196975708, 7.934826374053955, -0.5632616281509399, -0.5371366739273071, -1.8273636102676392, 0.712890625, 0.056640625, -0.636474609375
135, 3755277233, -5.22360897064209, -1.8289947509765625, 7.9440107345581055, -0.5510828495025635, -0.4117881655693054, -1.765534520149231, 0.713134765625, 0.05419921875, -0.63525390625
136, 3755293900, -5.2374653816223145, -1.8088181018829346, 7.947073459625244, -0.5205652713775635, -0.41780713200569153, -1.7692227363586426, 0.717041015625, 0.05615234375, -0.639892578125
137, 3755310567, -5.233305931091309, -1.8124202489852905, 7.9478654861450195, -0.5779120326042175, -0.4920966625213623, -1.8215237855911255, 0.716552734375, 0.05419921875, -0.63671875
138, 3755327234, -5.236299514770508, -1.8411588668823242, 7.931649684906006, -0.5568712949752808, -0.5117929577827454, -1.7253097295761108, 0.713623046875, 0.0537109375, -0.63671875
139, 3755343901, -5.242276191711426, -1.821459412574768, 7.9767889976501465, -0.6059963703155518, -0.5853397250175476, -1.7061384916305542, 0.715576171875, 0.05419921875, -0.63720703125
140, 3755360568, -5.228328704833984, -1.8130674362182617, 7.927252292633057, -0.6502937078475952, -0.6539562344551086, -1.9103872776031494, 0.714599609375, 0.0556640625, -0.63623046875
141, 3755377235, -5.224264621734619, -1.833112120628357, 7.949636936187744, -0.6523170471191406, -0.6331971883773804, -1.9444777965545654, 0.712646484375, 0.056640625, -0.637451171875
142, 3755393902, -5.2335124015808105, -1.8237366676330566, 7.945168972015381, -0.5229984521865845, -0.5574219226837158, -1.7950787544250488, 0.712646484375, 0.05615234375, -0.636962890625
143, 3755410569, -5.2367143630981445, -1.8256713151931763, 7.9593095779418945, -0.6062525510787964, -0.5853397846221924, -1.8254809379577637, 0.713134765625, 0.05615234375, -0.6357421875
144, 3755427236, -5.233518600463867, -1.8255542516708374, 7.942446708679199, -0.535010814666748, -0.6921831965446472, -1.863093376159668, 0.716064453125, 0.0556640625, -0.63623046875
145, 3755443903, -5.212980270385742, -1.8274929523468018, 7.95749044418335, -0.42456889152526855, -0.6078022122383118, -1.8052213191986084, 0.713623046875, 0.05615234375, -0.6357421875
146, 3755460570, -5.223031044006348, -1.8380913734436035, 7.981821537017822, -0.4682897925376892, -0.5563461780548096, -1.7541369199752808, 0.717041015625, 0.05517578125, -0.63720703125
147, 3755477237, -5.236647129058838, -1.7999868392944336, 7.9164581298828125, -0.4599912464618683, -0.6133344769477844, -1.7597588300704956, 0.714111328125, 0.05517578125, -0.637451171875
148, 3755493904, -5.2476325035095215, -1.8298758268356323, 7.928130149841309, -0.4973473846912384, -0.7214328646659851, -1.8303859233856201, 0.714599609375, 0.056640625, -0.63623046875
149, 3755510571, -5.240590572357178, -1.8269797563552856, 7.938565254211426, -0.5493924617767334, -0.8974562287330627, -1.819411039352417, 0.713623046875, 0.05517578125, -0.63525390625
150, 3755527238, -5.24705171585083, -1.8315403461456299, 7.948057174682617, -0.47453925013542175, -0.8832667469978333, -1.8174386024475098, 0.713134765625, 0.056640625, -0.638916015625
151, 3755543905, -5.234250545501709, -1.8331001996994019, 7.9663777351379395, -0.5267124176025391, -1.0156972408294678, -1.9000909328460693, 0.714111328125, 0.05517578125, -0.636962890625
152, 3755560572, -5.208122730255127, -1.8357819318771362, 7.960529327392578, -0.43650445342063904, -1.0841472148895264, -1.8591876029968262, 0.714111328125, 0.05419921875, -0.637939453125
153, 3755577239, -5.215865612030029, -1.8375662565231323, 7.920154571533203, -0.5216538906097412, -1.0168626308441162, -1.8500950336456299, 0.713623046875, 0.0546875, -0.636962890625
154, 3755593906, -5.239124298095703, -1.8237600326538086, 7.9741034507751465, -0.5460371971130371, -1.0572410821914673, -1.7880098819732666, 0.713623046875, 0.05419921875, -0.63623046875
155, 3755610573, -5.203090190887451, -1.83074152469635, 7.9569926261901855, -0.5400822162628174, -0.9754212498664856, -1.8657699823379517, 0.714599609375, 0.0546875, -0.6357421875
156, 3755627240, -5.2022786140441895, -1.8334970474243164, 7.928734302520752, -0.511908233165741, -0.7346875667572021, -2.0149896144866943, 0.714111328125, 0.05419921875, -0.6337890625
157, 3755643907, -5.230481147766113, -1.8129305839538574, 7.950329303741455, -0.6189308762550354, -0.6440441608428955, -2.0438039302825928, 0.713134765625, 0.0556640625, -0.635986328125
158, 3755660574, -5.188188552856445, -1.8607999086380005, 7.944425582885742, -0.7258766293525696, -0.8284811973571777, -1.904778003692627, 0.714599609375, 0.057373046875, -0.6357421875
159, 3755677241, -5.301342010498047, -1.7494184970855713, 7.940500259399414, -0.8141381740570068, -0.932686448097229, -2.0679311752319336, 0.714599609375, 0.056640625, -0.636962890625
160, 3755693908, -5.170482158660889, -1.9207992553710938, 7.9819183349609375, -0.600412905216217, -1.077500581741333, -2.334418535232544, 0.715087890625, 0.05615234375, -0.6357421875
161, 3755710575, -5.220487117767334, -1.8530058860778809, 7.963650226593018, -0.42741188406944275, -0.8559892177581787, -1.6223467588424683, 0.714599609375, 0.056640625, -0.637451171875
162, 3755727242, -5.210419178009033, -1.8291186094284058, 7.930140018463135, -0.37928563356399536, -0.6918246150016785, -1.8562545776367188, 0.712646484375, 0.0546875, -0.637451171875
163, 3755743909, -5.208827018737793, -1.8693586587905884, 7.957980155944824, -0.412671834230423, -0.7390416264533997, -1.5596981048583984, 0.715576171875, 0.05615234375, -0.638916015625
164, 3755760576, -5.251707077026367, -1.8063844442367554, 7.954486846923828, -0.4219692051410675, -0.8547085523605347, -1.6092586517333984, 0.71337890625, 0.056640625, -0.6328125
165, 3755777243, -5.21369743347168, -1.8353965282440186, 7.961239337921143, -0.44270268082618713, -0.8025867342948914, -1.7680957317352295, 0.713623046875, 0.05712890625, -0.636474609375
166, 3755793910, -5.221435070037842, -1.8226836919784546, 7.9477128982543945, -0.4320606589317322, -0.8310168385505676, -1.8836476802825928, 0.7119140625, 0.0576171875, -0.638427734375
167, 3755810577, -5.203233242034912, -1.851182222366333, 7.971973896026611, -0.3100801408290863, -0.841415524482727, -1.7298176288604736, 0.715576171875, 0.056640625, -0.638427734375
168, 3755827244, -5.228847026824951, -1.8625987768173218, 7.94680118560791, -0.24746990203857422, -0.81062912940979, -1.6565653085708618, 0.713134765625, 0.0556640625, -0.638916015625
169, 3755843911, -5.234274387359619, -1.8338488340377808, 7.941549777984619, -0.20285256206989288, -0.9103778004646301, -1.5797784328460693, 0.71240234375, 0.058349609375, -0.636962890625
170, 3755860578, -5.2243452072143555, -1.8299705982208252, 7.9429097175598145, -0.25745880603790283, -0.9407927393913269, -1.6300815343856812, 0.713623046875, 0.056640625, -0.637939453125
171, 3755877245, -5.239996433258057, -1.7953263521194458, 7.9674201011657715, -0.3129103183746338, -0.9211862087249756, -1.655322790145874, 0.713623046875, 0.05712890625, -0.635986328125
172, 3755893912, -5.2252349853515625, -1.8400065898895264, 7.97121524810791, -0.4408586323261261, -1.0306422710418701, -1.808090090751648, 0.715087890625, 0.05615234375, -0.63623046875
173, 3755910579, -5.2144999504089355, -1.8398243188858032, 7.932314872741699, -0.3934367001056671, -1.1618561744689941, -1.7597590684890747, 0.712890625, 0.057861328125, -0.637939453125
174, 3755927246, -5.221190452575684, -1.8356374502182007, 7.9490180015563965, -0.3764426112174988, -1.1703850030899048, -1.589306116104126, 0.712890625, 0.05712890625, -0.63525390625
175, 3755943913, -5.211373805999756, -1.8363828659057617, 7.978497505187988, -0.28958994150161743, -1.2056665420532227, -1.5428705215454102, 0.713623046875, 0.056640625, -0.637451171875
176, 3755960580, -5.246678352355957, -1.7966729402542114, 7.987368106842041, -0.22138339281082153, -1.1241672039031982, -1.3765674829483032, 0.713623046875, 0.05712890625, -0.637451171875
177, 3755977247, -5.229589462280273, -1.8544840812683105, 7.966324806213379, -0.24796932935714722, -1.37161123752594, -1.7395633459091187, 0.713623046875, 0.056640625, -0.636962890625
178, 3755993914, -5.196964263916016, -1.8770091533660889, 7.96209192276001, -0.259098082780838, -1.5617218017578125, -1.5525267124176025, 0.712646484375, 0.056640625, -0.638916015625
179, 3756010581, -5.2124223709106445, -1.8171987533569336, 7.951972961425781, -0.2667050361633301, -1.5519120693206787, -1.8144805431365967, 0.712890625, 0.057373046875, -0.637451171875
180, 3756027248, -5.175911903381348, -1.8488205671310425, 7.965033531188965, -0.17831562459468842, -1.412706971168518, -1.5576492547988892, 0.7109375, 0.0537109375, -0.637939453125
181, 3756043915, -5.191666603088379, -1.8347811698913574, 7.965613842010498, -0.19169822335243225, -1.2470053434371948, -1.5073455572128296, 0.71044921875, 0.0546875, -0.638427734375
182, 3756060582, -5.200281143188477, -1.8221169710159302, 7.9715399742126465, -0.07234306633472443, -1.1342840194702148, -1.5713903903961182, 0.71142578125, 0.0576171875, -0.637939453125
183, 3756077249, -5.207592964172363, -1.8269679546356201, 7.978043079376221, -0.08548238128423691, -1.0930476188659668, -1.612242341041565, 0.71240234375, 0.057861328125, -0.636474609375
184, 3756093916, -5.193638324737549, -1.833994746208191, 7.962672710418701, -0.12482345849275589, -1.0649118423461914, -1.6222953796386719, 0.7119140625, 0.056640625, -0.637451171875
185, 3756110583, -5.172235488891602, -1.8316001892089844, 7.958930492401123, -0.06532518565654755, -0.9231071472167969, -1.5829544067382812, 0.71142578125, 0.0546875, -0.638916015625
186, 3756127250, -5.2006049156188965, -1.821144938468933, 7.950766086578369, -0.08305415511131287, -0.9586766958236694, -1.4760971069335938, 0.714111328125, 0.05517578125, -0.640380859375
187, 3756143917, -5.186070442199707, -1.829414963722229, 7.943753719329834, -0.07176677882671356, -0.8992234468460083, -1.4798760414123535, 0.712646484375, 0.05517578125, -0.640625
188, 3756160584, -5.212947368621826, -1.8031991720199585, 7.969539642333984, 0.03733690828084946, -0.9622818827629089, -1.560415267944336, 0.71044921875, 0.0546875, -0.6416015625
189, 3756177251, -5.189694881439209, -1.81626296043396, 7.975235462188721, -0.04929163679480553, -1.0746575593948364, -1.5807132720947266, 0.7109375, 0.0556640625, -0.639404296875
190, 3756193918, -5.171961307525635, -1.8452985286712646, 7.98306941986084, -0.10020968317985535, -0.9806462526321411, -1.6575897932052612, 0.7119140625, 0.05517578125, -0.637451171875
191, 3756210585, -5.17760705947876, -1.8293955326080322, 7.993210792541504, -0.1327890306711197, -0.7263504862785339, -1.6347304582595825, 0.711669921875, 0.052978515625, -0.640625
192, 3756227252, -5.189403057098389, -1.806053876876831, 7.985896110534668, -0.12014918029308319, -0.6981510519981384, -1.6754932403564453, 0.712646484375, 0.05615234375, -0.640380859375
193, 3756243919, -5.203332424163818, -1.821076512336731, 7.955186367034912, -0.2878739535808563, -0.6320318579673767, -1.6306582689285278, 0.70947265625, 0.05419921875, -0.64013671875
194, 3756260586, -5.1801981925964355, -1.8500347137451172, 7.940415382385254, -0.281598836183548, -0.5607132315635681, -1.6116023063659668, 0.71044921875, 0.0556640625, -0.6396484375
195, 3756277253, -5.201375484466553, -1.8313453197479248, 7.9690260887146, -0.12397827208042145, -0.6470152139663696, -1.5147863626480103, 0.711669921875, 0.05517578125, -0.640625
196, 3756293920, -5.2081685066223145, -1.8180437088012695, 7.985002040863037, -0.15721075236797333, -0.644120991230011, -1.473037600517273, 0.711181640625, 0.0537109375, -0.6416015625
197, 3756310587, -5.200784683227539, -1.8157347440719604, 7.99523401260376, -0.15731321275234222, -0.7736828327178955, -1.596657395362854, 0.712646484375, 0.05419921875, -0.639404296875
198, 3756327254, -5.189254283905029, -1.8257572650909424, 7.961246013641357, -0.12738476693630219, -0.7948005795478821, -1.6069536209106445, 0.712158203125, 0.0556640625, -0.64111328125
199, 3756343921, -5.173727989196777, -1.8222379684448242, 7.9691081047058105, -0.008349740877747536, -0.7323183417320251, -1.5219578742980957, 0.712158203125, 0.05615234375, -0.639404296875
200, 3756360588, -5.203572750091553, -1.8167020082473755, 7.9692606925964355, -0.05747489631175995, -0.8016902804374695, -1.5161820650100708, 0.711669921875, 0.0546875, -0.637939453125
201, 3756377255, -5.212957382202148, -1.8140358924865723, 7.978553295135498, -0.0017160510178655386, -0.7752965092658997, -1.5708653926849365, 0.708984375, 0.05419921875, -0.63916015625
202, 3756393922, -5.1861467361450195, -1.8301583528518677, 7.988051891326904, -0.06141924113035202, -0.9485021829605103, -1.5819296836853027, 0.71044921875, 0.05517578125, -0.639404296875
203, 3756410589, -5.189999580383301, -1.840443730354309, 7.9725189208984375, -0.004392578732222319, -0.6932206153869629, -1.5393489599227905, 0.7099609375, 0.052490234375, -0.6396484375
204, 3756427256, -5.1976847648620605, -1.8173236846923828, 7.986293792724609, 0.04362482950091362, -0.7030045390129089, -1.4524447917938232, 0.713134765625, 0.0546875, -0.639404296875
205, 3756443923, -5.2004594802856445, -1.8202307224273682, 7.984127044677734, 0.13064397871494293, -0.7427171468734741, -1.4268707036972046, 0.710205078125, 0.052490234375, -0.64013671875
206, 3756460590, -5.190089702606201, -1.8035731315612793, 7.967780590057373, 0.23442663252353668, -0.7680096626281738, -1.3982484340667725, 0.7109375, 0.0546875, -0.637939453125
207, 3756477257, -5.159268379211426, -1.8108735084533691, 7.974108695983887, 0.2248474806547165, -0.6342729330062866, -1.4349515438079834, 0.70947265625, 0.05517578125, -0.640625
208, 3756493924, -5.177308559417725, -1.81149160861969, 8.000507354736328, 0.16423504054546356, -0.3595511019229889, -1.384814739227295, 0.71044921875, 0.056640625, -0.642578125
209, 3756510591, -5.2065935134887695, -1.8008164167404175, 7.987987041473389, 0.11609596759080887, -0.3198898434638977, -1.334229588508606, 0.711669921875, 0.05517578125, -0.639404296875
210, 3756527258, -5.223315238952637, -1.8092466592788696, 7.973025321960449, 0.20248760282993317, -0.40651196241378784, -1.322614312171936, 0.70947265625, 0.053466796875, -0.638916015625
211, 3756543925, -5.188881874084473, -1.8167760372161865, 7.983373641967773, 0.1756839156150818, -0.5027901530265808, -1.3532726764678955, 0.710693359375, 0.052978515625, -0.640625
212, 3756560592, -5.225572109222412, -1.768798828125, 7.969353199005127, 0.11230529099702835, -0.5137524008750916, -1.2471336126327515, 0.712158203125, 0.05322265625, -0.640380859375
213, 3756577259, -5.209354400634766, -1.7780267000198364, 7.989797115325928, 0.1770285815000534, -0.6343368887901306, -1.4881107807159424, 0.710205078125, 0.052001953125, -0.64111328125
214, 3756593926, -5.191493511199951, -1.8183460235595703, 7.984018325805664, 0.2173301726579666, -0.6937583684921265, -1.2301908731460571, 0.711669921875, 0.052978515625, -0.64111328125
215, 3756610593, -5.212411880493164, -1.7918667793273926, 7.98312520980835, 0.12690453231334686, -0.5383405685424805, -1.257289171218872, 0.71044921875, 0.05322265625, -0.638427734375
216, 3756627260, -5.171821117401123, -1.8178050518035889, 7.947179317474365, 0.22014755010604858, -0.6561973094940186, -1.3746591806411743, 0.711181640625, 0.0537109375, -0.639892578125
217, 3756643927, -5.210573196411133, -1.7412759065628052, 7.989827632904053, 0.3058732748031616, -0.6194047331809998, -1.1914387941360474, 0.713134765625, 0.05517578125, -0.64111328125
218, 3756660594, -5.1798553466796875, -1.7978416681289673, 7.979381561279297, 0.20196254551410675, -0.7272214293479919, -1.2242870330810547, 0.712158203125, 0.051025390625, -0.640380859375
219, 3756677261, -5.187694072723389, -1.7867252826690674, 7.988603115081787, 0.1179656907916069, -0.6326081156730652, -1.3229598999023438, 0.711181640625, 0.050048828125, -0.6416015625
220, 3756693928, -5.206454277038574, -1.7323946952819824, 8.016754150390625, 0.1343962401151657, -0.6492563486099243, -1.3616607189178467, 0.711181640625, 0.051025390625, -0.640869140625
221, 3756710595, -5.172638893127441, -1.8009650707244873, 7.986703872680664, -0.11530835926532745, -0.5907056331634521, -1.4286508560180664, 0.713134765625, 0.052734375, -0.638427734375
222, 3756727262, -5.205728054046631, -1.7640340328216553, 7.9946818351745605, -0.14439159631729126, -0.37439367175102234, -1.4878418445587158, 0.711181640625, 0.05322265625, -0.637939453125
223, 3756743929, -5.187065124511719, -1.7927860021591187, 7.98976993560791, -0.08071202039718628, -0.41664817929267883, -1.5084151029586792, 0.712646484375, 0.051513671875, -0.639404296875
224, 3756760596, -5.167863368988037, -1.8061429262161255, 7.9843430519104, -0.13050951063632965, -0.44071775674819946, -1.504502773284912, 0.712646484375, 0.051513671875, -0.637939453125
225, 3756777263, -5.2052412033081055, -1.770334005355835, 7.986581325531006, 0.0566616952419281, -0.37124326825141907, -1.4311736822128296, 0.711669921875, 0.050537109375, -0.638916015625
226, 3756793930, -5.19856595993042, -1.7846564054489136, 7.990579605102539, -0.08677581697702408, -0.4200226366519928, -1.4830265045166016, 0.713134765625, 0.049560546875, -0.639404296875
227, 3756810597, -5.196595668792725, -1.7761157751083374, 7.986884593963623, -0.08153802901506424, -0.4410506784915924, -1.3799097537994385, 0.711669921875, 0.050537109375, -0.640380859375
228, 3756827264, -5.196891784667969, -1.7678258419036865, 7.97573184967041, -0.08253692835569382, -0.47039005160331726, -1.5538328886032104, 0.709716796875, 0.050537109375, -0.638427734375
229, 3756843931, -5.191456317901611, -1.7994306087493896, 7.978176593780518, -0.06932077556848526, -0.4787270128726959, -1.4327744245529175, 0.712646484375, 0.052001953125, -0.639404296875
230, 3756860598, -5.194889068603516, -1.7667595148086548, 7.953235626220703, -0.079258494079113, -0.4590819776058197, -1.4855108261108398, 0.712158203125, 0.048583984375, -0.639892578125
231, 3756877265, -5.186563968658447, -1.7588920593261719, 7.966970443725586, -0.141471728682518, -0.39603638648986816, -1.4959352016448975, 0.713134765625, 0.049072265625, -0.638427734375
232, 3756893932, -5.2102580070495605, -1.7758405208587646, 7.994905948638916, -0.2620307207107544, -0.4254269301891327, -1.5314985513687134, 0.712158203125, 0.050537109375, -0.639892578125
233, 3756910599, -5.212581157684326, -1.7596123218536377, 7.958169460296631, -0.2779618501663208, -0.5448205471038818, -1.4571833610534668, 0.709716796875, 0.049560546875, -0.640625
234, 3756927266, -5.198968410491943, -1.7724151611328125, 7.975637435913086, -0.18383513391017914, -0.5838670134544373, -1.5149015188217163, 0.712158203125, 0.050537109375, -0.639892578125
235, 3756943933, -5.195714950561523, -1.761694073677063, 7.9836225509643555, -0.13693828880786896, -0.6346954703330994, -1.4858311414718628, 0.710693359375, 0.049560546875, -0.639404296875
236, 3756960600, -5.1972126960754395, -1.7610188722610474, 7.986841678619385, -0.15233153104782104, -0.3992123305797577, -1.56802237033844, 0.710693359375, 0.050537109375, -0.6416015625
237, 3756977267, -5.190397262573242, -1.7781902551651, 7.993542194366455, -0.1594390720129013, -0.39498624205589294, -1.5144662857055664, 0.710205078125, 0.049072265625, -0.640625
238, 3756993934, -5.21466064453125, -1.7425545454025269, 7.9724297523498535, -0.11410456895828247, -0.39652296900749207, -1.5007376670837402, 0.712158203125, 0.04736328125, -0.638916015625
239, 3757010601, -5.213601589202881, -1.7768193483352661, 7.991885662078857, -0.12227502465248108, -0.39499902725219727, -1.6062874794006348, 0.713134765625, 0.048583984375, -0.637451171875
240, 3757027268, -5.207906246185303, -1.761633038520813, 7.965878009796143, -0.14057528972625732, -0.4884212911128998, -1.5202033519744873, 0.713134765625, 0.050048828125, -0.639892578125
241, 3757043935, -5.210693836212158, -1.7465598583221436, 7.976851940155029, -0.18790757656097412, -0.5430660843849182, -1.5342134237289429, 0.714111328125, 0.048583984375, -0.640380859375
242, 3757060602, -5.203994274139404, -1.7629789113998413, 7.978663444519043, -0.17971152067184448, -0.5779634118080139, -1.5806238651275635, 0.710693359375, 0.04833984375, -0.639404296875
243, 3757077269, -5.216421127319336, -1.7744412422180176, 8.013988494873047, -0.10825208574533463, -0.5354207158088684, -1.5420894622802734, 0.711181640625, 0.0478515625, -0.640869140625
244, 3757093936, -5.224365711212158, -1.7558410167694092, 7.991603851318359, -0.18076162040233612, -0.5550016164779663, -1.5335732698440552, 0.712646484375, 0.049560546875, -0.638916015625
245, 3757110603, -5.173041820526123, -1.798940896987915, 7.987059116363525, -0.18784354627132416, -0.5226398706436157, -1.5753986835479736, 0.712158203125, 0.0478515625, -0.640380859375
246, 3757127270, -5.209481716156006, -1.7154200077056885, 8.00534439086914, -0.24980707466602325, -0.2899421751499176, -1.4228817224502563, 0.712158203125, 0.049072265625, -0.641357421875
247, 3757143937, -5.214242458343506, -1.7581989765167236, 7.975402355194092, -0.3728952705860138, -0.22829878330230713, -1.5546395778656006, 0.713134765625, 0.048583984375, -0.638427734375
248, 3757160604, -5.2192888259887695, -1.766721487045288, 7.955775737762451, -0.29709452390670776, -0.2877459228038788, -1.7209174633026123, 0.710693359375, 0.04736328125, -0.638427734375
249, 3757177271, -5.2237548828125, -1.7618869543075562, 7.965992450714111, -0.3704493045806885, -0.35624703764915466, -1.498496651649475, 0.713134765625, 0.04736328125, -0.638916015625
250, 3757193938, -5.210379600524902, -1.7640281915664673, 7.950100898742676, -0.1835021823644638, -0.564337432384491, -1.4820020198822021, 0.711669921875, 0.049560546875, -0.639404296875
251, 3757210605, -5.195006847381592, -1.7971985340118408, 7.989652156829834, -0.07846450805664062, -0.5689092874526978, -1.3873759508132935, 0.711669921875, 0.052490234375, -0.637939453125
252, 3757227272, -5.2077507972717285, -1.7439215183258057, 7.991618633270264, -0.07564710825681686, -0.39364156126976013, -1.5100735425949097, 0.711669921875, 0.049072265625, -0.637451171875
253, 3757243939, -5.229369163513184, -1.75082266330719, 8.011717796325684, -0.1246441900730133, -0.25503844022750854, -1.50521981716156, 0.712646484375, 0.04736328125, -0.641357421875
254, 3757260606, -5.221020221710205, -1.7611135244369507, 7.990097999572754, -0.16735337674617767, -0.3740094304084778, -1.4392672777175903, 0.711669921875, 0.04833984375, -0.638916015625
255, 3757277273, -5.21681547164917, -1.7335091829299927, 7.951763153076172, -0.0014086985029280186, -0.2549743950366974, -1.4482444524765015, 0.711669921875, 0.04736328125, -0.638916015625
256, 3757293940, -5.240822792053223, -1.7312594652175903, 7.97489595413208, -0.05525939539074898, -0.4245048463344574, -1.4711934328079224, 0.712646484375, 0.04833984375, -0.639892578125
257, 3757310607, -5.228339195251465, -1.7561496496200562, 7.954641819000244, -0.06579015403985977, -0.6317495107650757, -1.4356650114059448, 0.713623046875, 0.049072265625, -0.6376953125
258, 3757327274, -5.242153167724609, -1.7323776483535767, 7.987454414367676, 0.008983655832707882, -0.8318493366241455, -1.4815794229507446, 0.712158203125, 0.0458984375, -0.639404296875
259, 3757343941, -5.211629867553711, -1.7507784366607666, 7.960902214050293, -0.12304341793060303, -0.888222873210907, -1.5104066133499146, 0.712646484375, 0.04833984375, -0.639892578125
260, 3757360608, -5.237100601196289, -1.7319198846817017, 7.991257190704346, -0.1376170516014099, -0.8192606568336487, -1.5846706628799438, 0.71533203125, 0.046875, -0.63623046875
261, 3757377275, -5.220522403717041, -1.7449055910110474, 7.9698567390441895, -0.3033696413040161, -0.9562116861343384, -1.6585758924484253, 0.712158203125, 0.049072265625, -0.638916015625
262, 3757393942, -5.192632675170898, -1.7548887729644775, 7.962798118591309, -0.24871210753917694, -0.8271237015724182, -1.6194908618927002, 0.712158203125, 0.0478515625, -0.639404296875
263, 3757410609, -5.189525604248047, -1.7764208316802979, 7.981006622314453, -0.19017431139945984, -0.8282763957977295, -1.5529749393463135, 0.710693359375, 0.04833984375, -0.637451171875
264, 3757427276, -5.204308986663818, -1.7441450357437134, 7.983355522155762, -0.172258198261261, -0.7697256207466125, -1.4344136714935303, 0.710205078125, 0.04736328125, -0.639892578125
265, 3757443943, -5.210325241088867, -1.7460975646972656, 8.01595401763916, -0.14297010004520416, -0.6990473866462708, -1.506820797920227, 0.712158203125, 0.04736328125, -0.637939453125
266, 3757460610, -5.21627950668335, -1.7588340044021606, 7.975492477416992, -0.1511533409357071, -0.7996028661727905, -1.4808366298675537, 0.713134765625, 0.048095703125, -0.63671875
267, 3757477277, -5.2054009437561035, -1.7400758266448975, 7.9819841384887695, -0.16792967915534973, -0.6233106851577759, -1.5186026096343994, 0.713623046875, 0.04736328125, -0.63818359375
268, 3757493944, -5.229154586791992, -1.7280367612838745, 7.972529888153076, -0.17265522480010986, -0.6687604188919067, -1.5131088495254517, 0.713134765625, 0.04736328125, -0.6376953125
269, 3757510611, -5.187877655029297, -1.7767136096954346, 7.989284038543701, -0.11163295805454254, -0.7086522579193115, -1.5259405374526978, 0.712158203125, 0.04736328125, -0.640869140625
270, 3757527278, -5.232450485229492, -1.7140514850616455, 7.963013172149658, 0.007408473175019026, -0.7600569128990173, -1.4571961164474487, 0.712158203125, 0.046875, -0.637451171875
271, 3757543945, -5.20607328414917, -1.7429131269454956, 7.980693340301514, -0.0026893336325883865, -0.7523731589317322, -1.5561765432357788, 0.711669921875, 0.04638671875, -0.63720703125
272, 3757560612, -5.188049793243408, -1.7716180086135864, 7.98697566986084, 0.11902861297130585, -0.7789334654808044, -1.42977774143219, 0.712158203125, 0.04833984375, -0.637939453125
273, 3757577279, -5.207047939300537, -1.7146623134613037, 7.971118450164795, -0.03438505157828331, -0.6945396661758423, -1.3561540842056274, 0.710693359375, 0.044921875, -0.639892578125
274, 3757593946, -5.204884052276611, -1.718595266342163, 7.956403732299805, -0.15763337910175323, -0.6834621429443359, -1.578895092010498, 0.713134765625, 0.046875, -0.640380859375
275, 3757610613, -5.21522855758667, -1.733306884765625, 7.984312534332275, -0.22937451303005219, -0.5837262272834778, -1.7245285511016846, 0.7138671875, 0.0478515625, -0.641357421875
276, 3757627280, -5.208946704864502, -1.7294901609420776, 8.001481056213379, -0.36313682794570923, -0.38713592290878296, -1.7067149877548218, 0.710693359375, 0.0458984375, -0.63671875
277, 3757643947, -5.200076580047607, -1.7566365003585815, 7.959095478057861, -0.3773134648799896, -0.26892054080963135, -1.6207588911056519, 0.714111328125, 0.048095703125, -0.638916015625
278, 3757660614, -5.223124027252197, -1.733670711517334, 7.986844539642334, -0.32684361934661865, -0.38664931058883667, -1.5705450773239136, 0.712158203125, 0.0478515625, -0.638916015625
279, 3757677281, -5.238381862640381, -1.7183505296707153, 8.001965522766113, -0.28145796060562134, -0.6516639590263367, -1.639763593673706, 0.71435546875, 0.04541015625, -0.638671875
280, 3757693948, -5.2099103927612305, -1.7288984060287476, 7.984819412231445, -0.20657922327518463, -0.7535511255264282, -1.6893879175186157, 0.712158203125, 0.04833984375, -0.638916015625
281, 3757710615, -5.217463970184326, -1.7338489294052124, 7.992020606994629, -0.2518368065357208, -0.6833978891372681, -1.8234959840774536, 0.712158203125, 0.04736328125, -0.637939453125
282, 3757727282, -5.217666149139404, -1.742668867111206, 7.990851402282715, -0.2568313479423523, -0.6103122234344482, -1.7387436628341675, 0.713623046875, 0.04736328125, -0.638916015625
283, 3757743949, -5.197290420532227, -1.7385592460632324, 7.979458808898926, -0.22170351445674896, -0.5701643228530884, -1.705780267715454, 0.711669921875, 0.0478515625, -0.637939453125
284, 3757760616, -5.206966876983643, -1.7493659257888794, 7.976683616638184, -0.20743726193904877, -0.5479709506034851, -1.582916259765625, 0.710693359375, 0.0458984375, -0.639892578125
285, 3757777283, -5.215254783630371, -1.7228494882583618, 7.996014595031738, -0.267447829246521, -0.3947429358959198, -1.5918035507202148, 0.713623046875, 0.0458984375, -0.6376953125
286, 3757793950, -5.214572429656982, -1.7278180122375488, 7.9861040115356445, -0.24458849430084229, -0.462053120136261, -1.6468583345413208, 0.71484375, 0.04541015625, -0.63671875
287, 3757810617, -5.2196364402771, -1.729555368423462, 7.973856449127197, -0.2948662042617798, -0.5135602951049805, -1.655989170074463, 0.711669921875, 0.04638671875, -0.638916015625
288, 3757827284, -5.222779273986816, -1.7388447523117065, 7.987919330596924, -0.30144867300987244, -0.5538618564605713, -1.6761207580566406, 0.709716796875, 0.04541015625, -0.639404296875
289, 3757843951, -5.221358299255371, -1.7407948970794678, 7.970111846923828, -0.1922873556613922, -0.7070513963699341, -1.5404119491577148, 0.71484375, 0.04638671875, -0.63818359375
290, 3757860618, -5.194251537322998, -1.7344588041305542, 7.995168209075928, -0.19192875921726227, -0.5796025395393372, -1.5039265155792236, 0.713134765625, 0.04638671875, -0.63720703125
291, 3757877285, -5.211319446563721, -1.720483422279358, 7.9621758460998535, -0.18935468792915344, -0.6268836259841919, -1.5332785844802856, 0.711181640625, 0.04638671875, -0.638427734375
292, 3757893952, -5.210764408111572, -1.7380554676055908, 7.958719730377197, -0.23708398640155792, -0.6282154321670532, -1.6183127164840698, 0.710205078125, 0.04638671875, -0.638916015625
293, 3757910619, -5.2206196784973145, -1.7346057891845703, 7.983891010284424, -0.20779584348201752, -0.6841152310371399, -1.663391351699829, 0.711669921875, 0.04736328125, -0.639892578125
294, 3757927286, -5.213717937469482, -1.7352839708328247, 7.969937324523926, -0.16138561069965363, -0.7193838953971863, -1.590190052986145, 0.712158203125, 0.0458984375, -0.6376953125
295, 3757943953, -5.223607063293457, -1.7418674230575562, 7.963706016540527, -0.07709423452615738, -0.8074148297309875, -1.6025995016098022, 0.711181640625, 0.0458984375, -0.638916015625
296, 3757960620, -5.2153239250183105, -1.74634850025177, 7.979510307312012, 0.09627173095941544, -0.9493089914321899, -1.4899802207946777, 0.712646484375, 0.04541015625, -0.639892578125
297, 3757977287, -5.193665027618408, -1.759673833847046, 7.97833251953125, 0.44379761815071106, -0.9814785718917847, -1.279226303100586, 0.710693359375, 0.0458984375, -0.638427734375
298, 3757993954, -5.237417697906494, -1.6515538692474365, 8.007526397705078, 0.354646235704422, -0.8648383617401123, -1.6785409450531006, 0.71484375, 0.044921875, -0.6396484375
299, 3758010621, -5.165918827056885, -1.7907218933105469, 7.976997375488281, 0.29986709356307983, -0.9455952048301697, -1.2174739837646484, 0.710693359375, 0.04443359375, -0.640869140625
300, 3758027288, -5.233536720275879, -1.6788173913955688, 7.9703688621521, 0.25569799542427063, -0.8635834455490112, -1.4221196174621582, 0.713134765625, 0.0458984375, -0.63720703125
301, 3758043955, -5.193263530731201, -1.7250168323516846, 8.011152267456055, 0.18329088389873505, -0.8466021418571472, -1.7668023109436035, 0.711669921875, 0.04541015625, -0.640869140625
302, 3758060622, -5.217936992645264, -1.7017329931259155, 8.006893157958984, 0.02127774991095066, -0.8341672420501709, -1.5627334117889404, 0.7138671875, 0.044921875, -0.638916015625
303, 3758077289, -5.210104465484619, -1.7177417278289795, 7.969029426574707, -0.12624500691890717, -0.7226368188858032, -1.665978193283081, 0.71435546875, 0.0439453125, -0.639404296875
304, 3758093956, -5.21082067489624, -1.732397198677063, 7.961106300354004, -0.016302483156323433, -0.8692950010299683, -1.596221685409546, 0.712158203125, 0.0458984375, -0.639892578125
305, 3758110623, -5.220458984375, -1.7076367139816284, 7.989100933074951, 0.06221325322985649, -0.9916725158691406, -1.449281930923462, 0.711669921875, 0.04443359375, -0.639404296875
306, 3758127290, -5.216678619384766, -1.7110557556152344, 7.985729694366455, 0.2516511380672455, -1.2180757522583008, -1.4989702701568604, 0.71435546875, 0.04541015625, -0.638671875
307, 3758143957, -5.204615592956543, -1.7113314867019653, 7.973337173461914, 0.4540427029132843, -1.2808525562286377, -1.4270498752593994, 0.711669921875, 0.0458984375, -0.641845703125
308, 3758160624, -5.190138339996338, -1.7307173013687134, 7.9593095779418945, 0.5508074164390564, -1.282197117805481, -1.257109522819519, 0.712158203125, 0.04443359375, -0.640380859375
309, 3758177291, -5.2088141441345215, -1.716155767440796, 7.9770050048828125, 0.6660390496253967, -1.4508824348449707, -1.2414090633392334, 0.712158203125, 0.042724609375, -0.63720703125
310, 3758193958, -5.197822093963623, -1.6613928079605103, 8.004486083984375, 0.3789462745189667, -1.263026237487793, -1.2743983268737793, 0.710693359375, 0.041259765625, -0.6376953125
311, 3758210625, -5.217170238494873, -1.6825146675109863, 7.9727582931518555, 0.15578284859657288, -1.0106258392333984, -1.5123786926269531, 0.711181640625, 0.04443359375, -0.639892578125
312, 3758227292, -5.202489852905273, -1.6730278730392456, 7.996271133422852, -0.14437879621982574, -0.8640443682670593, -1.6943824291229248, 0.71240234375, 0.041259765625, -0.638671875
313, 3758243959, -5.199203968048096, -1.6867992877960205, 7.998620986938477, -0.37266474962234497, -0.6005409359931946, -1.841745138168335, 0.712646484375, 0.043701171875, -0.638916015625
314, 3758260626, -5.192854881286621, -1.702039122581482, 8.036944389343262, -0.3759559690952301, -0.548201322555542, -1.8719550371170044, 0.709716796875, 0.04443359375, -0.641357421875
315, 3758277293, -5.190491676330566, -1.7103266716003418, 7.995588302612305, -0.3556835949420929, -0.3847540020942688, -1.7425729036331177, 0.710205078125, 0.041259765625, -0.64453125
316, 3758293960, -5.223410606384277, -1.6973987817764282, 7.996776103973389, -0.4282955527305603, -0.5194639563560486, -1.7607194185256958, 0.7119140625, 0.041259765625, -0.641845703125
317, 3758310627, -5.217070579528809, -1.7060472965240479, 7.999083042144775, -0.45200005173683167, -0.6082887053489685, -1.7132716178894043, 0.710693359375, 0.043212890625, -0.639892578125
318, 3758327294, -5.1907219886779785, -1.7025281190872192, 7.96151065826416, -0.3340023458003998, -0.592460036277771, -1.8113811016082764, 0.711669921875, 0.044921875, -0.639892578125
319, 3758343961, -5.19362211227417, -1.6990246772766113, 8.007233619689941, -0.4145287275314331, -0.5722389817237854, -1.7022712230682373, 0.711181640625, 0.043212890625, -0.639892578125
320, 3758360628, -5.198583602905273, -1.7040802240371704, 8.022573471069336, -0.5020729303359985, -0.5677054524421692, -1.7402163743972778, 0.710693359375, 0.043212890625, -0.639892578125
321, 3758377295, -5.200221061706543, -1.7037981748580933, 8.010560989379883, -0.45100119709968567, -0.5007795691490173, -1.6834970712661743, 0.711181640625, 0.042724609375, -0.642822265625
322, 3758393962, -5.200625419616699, -1.709390640258789, 7.999505996704102, -0.44902896881103516, -0.5227422714233398, -1.7639975547790527, 0.711181640625, 0.043701171875, -0.640869140625
323, 3758410629, -5.2118706703186035, -1.6943672895431519, 8.00247859954834, -0.49176380038261414, -0.5630183219909668, -1.826390266418457, 0.712158203125, 0.04541015625, -0.640380859375
324, 3758427296, -5.2028117179870605, -1.6923588514328003, 7.987433433532715, -0.5422719717025757, -0.6150761246681213, -1.8046834468841553, 0.71240234375, 0.043212890625, -0.643310546875
325, 3758443963, -5.221222877502441, -1.7104166746139526, 7.9873175621032715, -0.42374929785728455, -0.6429939866065979, -1.8152484893798828, 0.71142578125, 0.041748046875, -0.640869140625
326, 3758460630, -5.202762126922607, -1.7011101245880127, 8.00874137878418, -0.3960491716861725, -0.6354126334190369, -1.7657907009124756, 0.712158203125, 0.0458984375, -0.639892578125
327, 3758477297, -5.190463542938232, -1.7092286348342896, 7.97994327545166, -0.376058429479599, -0.6355150938034058, -1.7229278087615967, 0.712158203125, 0.04443359375, -0.640869140625
328, 3758493964, -5.2046356201171875, -1.6923538446426392, 7.979108810424805, -0.30462467670440674, -0.6109398007392883, -1.6778753995895386, 0.710205078125, 0.044921875, -0.639892578125
329, 3758510631, -5.199897289276123, -1.6967072486877441, 8.00057315826416, -0.3160540461540222, -0.59189373254776, -1.724234938621521, 0.711669921875, 0.042724609375, -0.639892578125
330, 3758527298, -5.216221332550049, -1.6850039958953857, 7.9994611740112305, -0.4424721300601959, -0.6962426900863647, -1.7374627590179443, 0.71240234375, 0.04443359375, -0.641357421875
331, 3758543965, -5.200242042541504, -1.700981855392456, 7.999056816101074, -0.4555602967739105, -0.6731017231941223, -1.7497315406799316, 0.710693359375, 0.043701171875, -0.638916015625
332, 3758560632, -5.198122978210449, -1.7038981914520264, 8.013671875, -0.2992843687534332, -0.7569448947906494, -1.7132205963134766, 0.708740234375, 0.044189453125, -0.640380859375
333, 3758577299, -5.206295967102051, -1.7018656730651855, 7.991734981536865, -0.24572822451591492, -0.8043667674064636, -1.643925428390503, 0.71240234375, 0.043212890625, -0.640380859375
334, 3758593966, -5.198065757751465, -1.6991521120071411, 7.991578102111816, -0.26165932416915894, -0.6789542436599731, -1.6864681243896484, 0.711181640625, 0.043701171875, -0.640380859375
335, 3758610633, -5.207498550415039, -1.6923818588256836, 7.976097583770752, -0.2515295743942261, -0.7789847254753113, -1.606121301651001, 0.711669921875, 0.042236328125, -0.640380859375
336, 3758627300, -5.209871768951416, -1.7096092700958252, 7.9918670654296875, -0.16089898347854614, -0.8395715355873108, -1.5801371335983276, 0.710205078125, 0.042236328125, -0.639892578125
337, 3758643967, -5.190006256103516, -1.7072336673736572, 7.993363857269287, -0.1409466713666916, -1.0144420862197876, -1.508664846420288, 0.711669921875, 0.042724609375, -0.640380859375
338, 3758660634, -5.204031944274902, -1.6931231021881104, 7.990018367767334, -0.15806879103183746, -0.8719460964202881, -1.454827070236206, 0.712890625, 0.043212890625, -0.641845703125
339, 3758677301, -5.2110443115234375, -1.6877368688583374, 8.001986503601074, -0.21514669060707092, -0.799116313457489, -1.5082167387008667, 0.7119140625, 0.042236328125, -0.640869140625
340, 3758693968, -5.210829734802246, -1.6813507080078125, 8.002198219299316, -0.3396756052970886, -0.7326768636703491, -1.6552590131759644, 0.712890625, 0.04443359375, -0.640869140625
341, 3758710635, -5.208509922027588, -1.6806761026382446, 7.990241050720215, -0.506516695022583, -0.6649696826934814, -1.8924070596694946, 0.708740234375, 0.044921875, -0.640869140625
342, 3758727302, -5.199481010437012, -1.704440712928772, 7.977339744567871, -0.5039042234420776, -0.8786308169364929, -1.7858837842941284, 0.710693359375, 0.043212890625, -0.641357421875
343, 3758743969, -5.188286781311035, -1.7005791664123535, 7.985012054443359, -0.44195985794067383, -0.8698840737342834, -1.7462351322174072, 0.710693359375, 0.042724609375, -0.641845703125
344, 3758760636, -5.196245193481445, -1.693651795387268, 7.9781293869018555, -0.45503515005111694, -0.8596133589744568, -1.7217110395431519, 0.710205078125, 0.042724609375, -0.641845703125
345, 3758777303, -5.178048610687256, -1.6834708452224731, 8.00809097290039, -0.4448029100894928, -0.7937759160995483, -1.7606552839279175, 0.711181640625, 0.042724609375, -0.641845703125
346, 3758793970, -5.202013969421387, -1.6871135234832764, 8.002461433410645, -0.5310664772987366, -0.7003535628318787, -1.7791861295700073, 0.711181640625, 0.043701171875, -0.639892578125
347, 3758810637, -5.198767185211182, -1.7060943841934204, 7.989446640014648, -0.599721372127533, -0.6132704615592957, -1.7633062601089478, 0.709716796875, 0.041748046875, -0.642578125
348, 3758827304, -5.199106216430664, -1.6895551681518555, 7.98749303817749, -0.6624211668968201, -0.5782450437545776, -1.8486347198486328, 0.710693359375, 0.043701171875, -0.640380859375
349, 3758843971, -5.2039079666137695, -1.7159451246261597, 7.9962968826293945, -0.5962764024734497, -0.5497381091117859, -1.7965258359909058, 0.710693359375, 0.043701171875, -0.641357421875
350, 3758860638, -5.198587417602539, -1.6946438550949097, 7.988870620727539, -0.4056410789489746, -0.5685505867004395, -1.808730125427246, 0.711669921875, 0.04443359375, -0.641357421875
351, 3758877305, -5.2084455490112305, -1.7138872146606445, 7.995283126831055, -0.4295121133327484, -0.7314729690551758, -1.7132459878921509, 0.711181640625, 0.041748046875, -0.641357421875
352, 3758893972, -5.193761348724365, -1.6972367763519287, 7.993305206298828, -0.35232824087142944, -0.7381963729858398, -1.8148388862609863, 0.710205078125, 0.043212890625, -0.642578125
353, 3758910639, -5.201552867889404, -1.691757321357727, 7.9804840087890625, -0.3232065737247467, -0.7155674695968628, -1.8709561824798584, 0.711181640625, 0.043212890625, -0.642333984375
354, 3758927306, -5.187602996826172, -1.6972496509552002, 8.011167526245117, -0.41600146889686584, -0.5854422450065613, -1.8852355480194092, 0.709716796875, 0.044189453125, -0.640869140625
355, 3758943973, -5.189040660858154, -1.6931686401367188, 8.009230613708496, -0.35143184661865234, -0.6360785365104675, -1.9373573064804077, 0.712158203125, 0.044921875, -0.641845703125
356, 3758960640, -5.207944869995117, -1.7128690481185913, 7.990311145782471, -0.30612295866012573, -0.5002416372299194, -1.8333312273025513, 0.712890625, 0.042236328125, -0.642333984375
357, 3758977307, -5.2103424072265625, -1.6806678771972656, 7.9939045906066895, -0.21016499400138855, -0.6000286936759949, -1.8514779806137085, 0.712158203125, 0.0439453125, -0.640380859375
358, 3758993974, -5.191840648651123, -1.699979543685913, 8.022257804870605, -0.2831227779388428, -0.6206981539726257, -1.8720449209213257, 0.712158203125, 0.044921875, -0.638916015625
359, 3759010641, -5.174786567687988, -1.700061321258545, 8.016347885131836, -0.21667060256004333, -0.6174452900886536, -1.869508981704712, 0.710205078125, 0.043212890625, -0.64208984375
360, 3759027308, -5.201843738555908, -1.7205393314361572, 7.978735446929932, -0.33452746272087097, -0.4311257302761078, -1.8187448978424072, 0.708740234375, 0.04443359375, -0.6416015625
361, 3759043975, -5.222133159637451, -1.7021480798721313, 8.01620864868164, -0.3400341868400574, -0.5246249437332153, -1.7828998565673828, 0.71337890625, 0.043701171875, -0.643798828125
362, 3759060642, -5.205255031585693, -1.6771572828292847, 7.979629039764404, -0.2157229781150818, -0.7599800825119019, -1.942864179611206, 0.71240234375, 0.043212890625, -0.640869140625
363, 3759077309, -5.212299346923828, -1.7034456729888916, 7.971478462219238, -0.34636056423187256, -0.8894650936126709, -1.934885859489441, 0.711669921875, 0.0439453125, -0.639892578125
364, 3759093976, -5.180937767028809, -1.707571268081665, 8.012059211730957, -0.3947173058986664, -0.9348890781402588, -1.8650399446487427, 0.711181640625, 0.043701171875, -0.641357421875
365, 3759110643, -5.213420391082764, -1.6878589391708374, 8.00499153137207, -0.47251585125923157, -0.8567319512367249, -1.7150006294250488, 0.710205078125, 0.042724609375, -0.641845703125
366, 3759127310, -5.1965413093566895, -1.7333600521087646, 7.986092567443848, -0.5885413885116577, -0.9825544357299805, -1.9966250658035278, 0.711669921875, 0.04736328125, -0.639404296875
367, 3759143977, -5.22987699508667, -1.646039366722107, 8.005297660827637, -0.6754196882247925, -1.1386637687683105, -2.02164888381958, 0.710693359375, 0.044189453125, -0.640869140625
368, 3759160644, -5.196488380432129, -1.7140408754348755, 8.012041091918945, -0.6599367260932922, -1.2470693588256836, -2.0920321941375732, 0.7119140625, 0.041259765625, -0.641845703125
369, 3759177311, -5.187684535980225, -1.734316349029541, 8.006246566772461, -0.597480297088623, -1.1633672714233398, -2.0792648792266846, 0.712158203125, 0.043212890625, -0.640380859375
370, 3759193978, -5.168722629547119, -1.708241581916809, 8.033955574035645, -0.7218812108039856, -0.9224157929420471, -2.0308566093444824, 0.711669921875, 0.0439453125, -0.638916015625
371, 3759210645, -5.197389125823975, -1.7016725540161133, 8.016079902648926, -0.8148808479309082, -0.7777553200721741, -1.9930908679962158, 0.709716796875, 0.043212890625, -0.64453125
372, 3759227312, -5.187345504760742, -1.7137093544006348, 8.017951011657715, -0.7894091010093689, -0.7173605561256409, -1.9092731475830078, 0.709716796875, 0.04443359375, -0.641357421875
373, 3759243979, -5.169321060180664, -1.6674394607543945, 8.00793743133545, -0.8077093362808228, -0.7839022874832153, -2.0406150817871094, 0.712890625, 0.043212890625, -0.643310546875
374, 3759260646, -5.186999320983887, -1.727298617362976, 7.987103462219238, -0.8370999097824097, -0.8710879683494568, -2.04929780960083, 0.708740234375, 0.0458984375, -0.64501953125
375, 3759277313, -5.156630516052246, -1.7410715818405151, 7.987840175628662, -0.9436230063438416, -0.6638556122779846, -2.0929160118103027, 0.711181640625, 0.046875, -0.64306640625
376, 3759293980, -5.144303798675537, -1.738258719444275, 7.9923095703125, -0.8651842474937439, -0.4100593328475952, -1.935270071029663, 0.711181640625, 0.0458984375, -0.640869140625
377, 3759310647, -5.1550798416137695, -1.6874059438705444, 8.018117904663086, -0.9787253737449646, -0.11774159222841263, -1.9623169898986816, 0.71240234375, 0.04443359375, -0.641845703125
378, 3759327314, -5.203078269958496, -1.702209711074829, 8.010676383972168, -1.0152233839035034, -0.08819733560085297, -2.0387837886810303, 0.71240234375, 0.043701171875, -0.641357421875
379, 3759343981, -5.180180549621582, -1.7487810850143433, 7.988519668579102, -0.9415997266769409, -0.08475242555141449, -2.114328145980835, 0.712158203125, 0.046875, -0.642578125
380, 3759360648, -5.194801330566406, -1.7269041538238525, 7.971166133880615, -0.7287197709083557, -0.23187176883220673, -2.0404229164123535, 0.711669921875, 0.046875, -0.640869140625
381, 3759377315, -5.177711486816406, -1.7393540143966675, 7.975200653076172, -0.5070545673370361, -0.3890441060066223, -1.7288827896118164, 0.712646484375, 0.046875, -0.64404296875
382, 3759393982, -5.17043924331665, -1.7506835460662842, 7.985501289367676, -0.3226431608200073, -0.37814587354660034, -1.7030906677246094, 0.712158203125, 0.04833984375, -0.64306640625
383, 3759410649, -5.18351411819458, -1.729316234588623, 8.02452278137207, -0.22121687233448029, -0.2845570743083954, -1.5449963808059692, 0.712646484375, 0.044921875, -0.640869140625
384, 3759427316, -5.196603775024414, -1.7192978858947754, 8.013022422790527, -0.2615312933921814, -0.2725447416305542, -1.6415308713912964, 0.711181640625, 0.046875, -0.641357421875
385, 3759443983, -5.197486400604248, -1.7225549221038818, 8.011600494384766, -0.35439011454582214, -0.15895240008831024, -1.6544907093048096, 0.711181640625, 0.046875, -0.64306640625
386, 3759460650, -5.185906410217285, -1.7213634252548218, 8.00110912322998, -0.31063082814216614, -0.2025580257177353, -1.6897209882736206, 0.712646484375, 0.04638671875, -0.642333984375
387, 3759477317, -5.2001824378967285, -1.72536039352417, 8.012474060058594, -0.3228224515914917, -0.25432130694389343, -1.6373302936553955, 0.712646484375, 0.0478515625, -0.640869140625
388, 3759493984, -5.204367160797119, -1.720547080039978, 7.976154804229736, -0.22192125022411346, -0.39032474160194397, -1.5447659492492676, 0.71240234375, 0.0439453125, -0.640380859375
389, 3759510651, -5.184816837310791, -1.7439894676208496, 7.999721050262451, -0.14305973052978516, -0.4828633666038513, -1.441943645477295, 0.711669921875, 0.04541015625, -0.640380859375
390, 3759527318, -5.200445175170898, -1.718416690826416, 8.000224113464355, -0.07522451132535934, -0.6171380877494812, -1.3135346174240112, 0.712890625, 0.04541015625, -0.642822265625
391, 3759543985, -5.18713903427124, -1.7104417085647583, 7.994871139526367, -0.013024057261645794, -0.7138772010803223, -1.3007665872573853, 0.711669921875, 0.0458984375, -0.642333984375
392, 3759560652, -5.189557075500488, -1.7012296915054321, 8.01126480102539, -0.08850467950105667, -0.638665497303009, -1.3179014921188354, 0.712646484375, 0.044921875, -0.641357421875
393, 3759577319, -5.194558143615723, -1.712385654449463, 7.968292236328125, -0.17182278633117676, -0.6142309308052063, -1.455428957939148, 0.710693359375, 0.042724609375, -0.641845703125
394, 3759593986, -5.190938472747803, -1.7417410612106323, 8.007771492004395, -0.10708668828010559, -0.6235924363136292, -1.3265842199325562, 0.711669921875, 0.046875, -0.6435546875
395, 3759610653, -5.204417705535889, -1.7102150917053223, 7.98136043548584, -0.09223134070634842, -0.7191534042358398, -1.4199169874191284, 0.712158203125, 0.04541015625, -0.640869140625
396, 3759627320, -5.187896728515625, -1.7053965330123901, 7.982244968414307, -0.06848835200071335, -0.8230384588241577, -1.4219145774841309, 0.712158203125, 0.0439453125, -0.640380859375
397, 3759643987, -5.180460453033447, -1.6930707693099976, 8.008777618408203, -0.09833996742963791, -0.8357551097869873, -1.414269208908081, 0.710205078125, 0.0458984375, -0.64404296875
398, 3759660654, -5.2219367027282715, -1.6402643918991089, 8.016364097595215, -0.24910911917686462, -0.8330145478248596, -1.524736762046814, 0.712890625, 0.044921875, -0.642333984375
399, 3759677321, -5.224621772766113, -1.6817270517349243, 8.01948356628418, -0.3912851810455322, -1.0022633075714111, -1.658396601676941, 0.710205078125, 0.04443359375, -0.6435546875
400, 3759693988, -5.219751834869385, -1.6773576736450195, 7.998206615447998, -0.5094494223594666, -1.1453871726989746, -2.031125545501709, 0.711669921875, 0.04541015625, -0.64404296875
401, 3759710655, -5.173572540283203, -1.7365632057189941, 8.025157928466797, -0.4911401867866516, -1.0651423931121826, -2.158101797103882, 0.711669921875, 0.04638671875, -0.64306640625
402, 3759727322, -5.185508728027344, -1.7269463539123535, 7.995014667510986, -0.5248426795005798, -0.8917061686515808, -1.9356415271759033, 0.710205078125, 0.043212890625, -0.640869140625
403, 3759743989, -5.172607421875, -1.7596153020858765, 8.004096984863281, -0.32779133319854736, -0.9778671860694885, -1.7031035423278809, 0.709716796875, 0.042724609375, -0.641845703125
404, 3759760656, -5.190341949462891, -1.7089115381240845, 8.0217866897583, -0.24476778507232666, -0.8603048920631409, -1.5149527788162231, 0.708740234375, 0.044189453125, -0.6416015625
405, 3759777323, -5.170737266540527, -1.730635166168213, 8.015873908996582, -0.10392353683710098, -0.7517328262329102, -1.511687159538269, 0.711669921875, 0.04541015625, -0.641357421875
406, 3759793990, -5.191737174987793, -1.7042113542556763, 8.014524459838867, -0.12232627719640732, -0.6942322850227356, -1.529014229774475, 0.708251953125, 0.04638671875, -0.6416015625
407, 3759810657, -5.1986403465271, -1.7116020917892456, 8.003839492797852, -0.07471223920583725, -0.7204723954200745, -1.675429105758667, 0.711669921875, 0.04443359375, -0.641845703125
408, 3759827324, -5.188911437988281, -1.6978507041931152, 8.001195907592773, -0.00755574693903327, -0.7644879221916199, -1.6488304138183594, 0.709716796875, 0.04736328125, -0.639892578125
409, 3759843991, -5.186583995819092, -1.726170301437378, 8.026636123657227, -0.04652547091245651, -0.8532231450080872, -1.5503369569778442, 0.710205078125, 0.043212890625, -0.641357421875
410, 3759860658, -5.1933698654174805, -1.7131175994873047, 8.012140274047852, -0.019824231043457985, -0.7265682816505432, -1.4919142723083496, 0.709716796875, 0.044921875, -0.640869140625
411, 3759877325, -5.171539306640625, -1.7047089338302612, 8.025464057922363, -0.1356576532125473, -0.5005233883857727, -1.6304659843444824, 0.709716796875, 0.043701171875, -0.64306640625
412, 3759893992, -5.184559345245361, -1.7027992010116577, 8.004711151123047, -0.2472265660762787, -0.36071643233299255, -1.7109538316726685, 0.710693359375, 0.043212890625, -0.64306640625
413, 3759910659, -5.197238922119141, -1.704779028892517, 8.005239486694336, -0.30260124802589417, -0.3446701467037201, -1.6337957382202148, 0.711669921875, 0.043701171875, -0.642333984375
414, 3759927326, -5.170331954956055, -1.7167823314666748, 8.002386093139648, -0.22983556985855103, -0.38889044523239136, -1.5731194019317627, 0.710693359375, 0.042724609375, -0.642578125
415, 3759943993, -5.173816204071045, -1.7064064741134644, 8.0028715133667, -0.22107599675655365, -0.45792949199676514, -1.5811103582382202, 0.712158203125, 0.044921875, -0.641845703125
416, 3759960660, -5.190915584564209, -1.6885393857955933, 7.986016750335693, -0.14660708606243134, -0.40356647968292236, -1.5618497133255005, 0.711669921875, 0.043212890625, -0.640380859375
417, 3759977327, -5.174668312072754, -1.7043788433074951, 8.036355018615723, -0.1730906218290329, -0.3927963674068451, -1.5123401880264282, 0.709228515625, 0.044189453125, -0.641357421875
418, 3759993994, -5.199673175811768, -1.695194959640503, 7.964616298675537, -0.1334293633699417, -0.3957674205303192, -1.4659428596496582, 0.711181640625, 0.04443359375, -0.641357421875
419, 3760010661, -5.202664375305176, -1.7066410779953003, 7.998812198638916, -0.05233955755829811, -0.5428227782249451, -1.4754836559295654, 0.712890625, 0.0439453125, -0.640869140625
420, 3760027328, -5.1992902755737305, -1.7085232734680176, 7.972348690032959, 0.04138372093439102, -0.5965582132339478, -1.4218635559082031, 0.7119140625, 0.042724609375, -0.641845703125
421, 3760043995, -5.184915065765381, -1.6855772733688354, 8.027009963989258, 0.013747615739703178, -0.6107476353645325, -1.3657331466674805, 0.71142578125, 0.041259765625, -0.640869140625
422, 3760060662, -5.192824363708496, -1.711142897605896, 8.03735637664795, 0.08863916248083115, -0.5855191349983215, -1.388541340827942, 0.71435546875, 0.042724609375, -0.644287109375
423, 3760077329, -5.1914472579956055, -1.7089582681655884, 7.997178077697754, 0.2072259485721588, -0.6396387815475464, -1.308565616607666, 0.712890625, 0.043212890625, -0.642333984375
424, 3760093996, -5.189677715301514, -1.7254860401153564, 8.003961563110352, 0.6626453995704651, -0.691594123840332, -1.0055930614471436, 0.712646484375, 0.044921875, -0.641845703125
425, 3760110663, -5.200605392456055, -1.6864686012268066, 8.005651473999023, 0.2680816948413849, -0.6602057218551636, -1.331604242324829, 0.71142578125, 0.042236328125, -0.641357421875
426, 3760127330, -5.1864166259765625, -1.6802148818969727, 7.995466232299805, 0.32914239168167114, -0.6642013192176819, -1.245391845703125, 0.71240234375, 0.04443359375, -0.642333984375
427, 3760143997, -5.190804958343506, -1.6819055080413818, 8.013192176818848, 0.12885108590126038, -0.6347083449363708, -1.4289454221725464, 0.7109375, 0.041259765625, -0.64453125
428, 3760160664, -5.19227409362793, -1.6856911182403564, 8.016389846801758, 0.12444571405649185, -0.6436343193054199, -1.466890573501587, 0.71142578125, 0.043212890625, -0.64306640625
429, 3760177331, -5.1970391273498535, -1.6812078952789307, 7.993480205535889, 0.17341718077659607, -0.47496187686920166, -1.464982271194458, 0.71240234375, 0.042724609375, -0.6435546875
430, 3760193998, -5.201060771942139, -1.6867337226867676, 7.974625110626221, 0.1891690045595169, -0.737095057964325, -1.4778399467468262, 0.71142578125, 0.041748046875, -0.6455078125
431, 3760210665, -5.187493324279785, -1.680166244506836, 8.008199691772461, 0.18001243472099304, -0.8196959495544434, -1.458117961883545, 0.709228515625, 0.03955078125, -0.64404296875
432, 3760227332, -5.193862438201904, -1.6862313747406006, 8.045411109924316, 0.06827705353498459, -0.7235202789306641, -1.4534437656402588, 0.71044921875, 0.040771484375, -0.64404296875
433, 3760243999, -5.188827991485596, -1.6606194972991943, 8.004919052124023, -0.02334597520530224, -0.5214874148368835, -1.479620099067688, 0.71142578125, 0.040283203125, -0.643310546875
434, 3760260666, -5.200440883636475, -1.6880402565002441, 8.010516166687012, 0.005167362280189991, -0.607008159160614, -1.4938607215881348, 0.710693359375, 0.043212890625, -0.6435546875
435, 3760277333, -5.193221092224121, -1.6949421167373657, 7.998214244842529, -0.06394210457801819, -0.5752484202384949, -1.4090312719345093, 0.71142578125, 0.042724609375, -0.6435546875
436, 3760294000, -5.20576286315918, -1.6757068634033203, 8.013197898864746, -0.12466982007026672, -0.6215434074401855, -1.4464004039764404, 0.7119140625, 0.041748046875, -0.642822265625
437, 3760310667, -5.190920352935791, -1.6695327758789062, 7.9994330406188965, -0.025920052081346512, -0.5678463578224182, -1.438908576965332, 0.71240234375, 0.041748046875, -0.643310546875
438, 3760327334, -5.195337295532227, -1.6573246717453003, 7.997826099395752, -0.048907455056905746, -0.5889512896537781, -1.5166305303573608, 0.71044921875, 0.040771484375, -0.642822265625
439, 3760344001, -5.19288969039917, -1.6698564291000366, 8.002812385559082, -0.06828346103429794, -0.6434038281440735, -1.4890583753585815, 0.7119140625, 0.042724609375, -0.642333984375
440, 3760360668, -5.1924729347229, -1.6744451522827148, 7.989798069000244, 0.03161247819662094, -0.7735291719436646, -1.5100096464157104, 0.712890625, 0.041748046875, -0.641845703125
441, 3760377335, -5.209714412689209, -1.6390591859817505, 8.020292282104492, 0.07894474267959595, -0.726055920124054, -1.6698966026306152, 0.71142578125, 0.039306640625, -0.642333984375
442, 3760394002, -5.164312362670898, -1.742754578590393, 8.032271385192871, 0.13042627274990082, -0.5787829756736755, -1.2959131002426147, 0.71044921875, 0.040283203125, -0.642822265625
443, 3760410669, -5.228494167327881, -1.5901296138763428, 8.01688003540039, 0.14840638637542725, -0.5710094571113586, -1.3907055854797363, 0.71337890625, 0.040771484375, -0.643310546875
444, 3760427336, -5.194584846496582, -1.694279670715332, 8.001556396484375, 0.07309223711490631, -0.5162239670753479, -1.4061756134033203, 0.7138671875, 0.040283203125, -0.641845703125
445, 3760444003, -5.205022811889648, -1.6857155561447144, 7.984346866607666, 0.16077730059623718, -0.6486160159111023, -1.3908207416534424, 0.712890625, 0.041259765625, -0.642333984375
446, 3760460670, -5.189544200897217, -1.6857986450195312, 8.013056755065918, 0.08555282652378082, -0.8090283274650574, -1.4580543041229248, 0.709716796875, 0.039794921875, -0.640869140625
447, 3760477337, -5.223204612731934, -1.6465314626693726, 7.9999098777771, 0.05344729870557785, -0.7363138794898987, -1.4113366603851318, 0.71142578125, 0.040771484375, -0.641845703125
448, 3760494004, -5.187817096710205, -1.6389714479446411, 8.041436195373535, 0.22830520570278168, -0.9102882146835327, -1.4212104082107544, 0.7099609375, 0.03955078125, -0.642822265625
449, 3760510671, -5.1924896240234375, -1.6871604919433594, 7.979608535766602, 0.12320347130298615, -0.8506489396095276, -1.3323981761932373, 0.71142578125, 0.03857421875, -0.641357421875
450, 3760527338, -5.204535961151123, -1.6392452716827393, 8.02270221710205, 0.5127726793289185, -1.0393635034561157, -1.2581855058670044, 0.710205078125, 0.040283203125, -0.64306640625
451, 3760544005, -5.179553031921387, -1.6555050611495972, 7.99813175201416, 0.13533109426498413, -0.909916877746582, -1.4015398025512695, 0.7109375, 0.03759765625, -0.643798828125
452, 3760560672, -5.174901008605957, -1.6610403060913086, 8.014693260192871, 0.03923225402832031, -0.7527444362640381, -1.420301079750061, 0.7109375, 0.039794921875, -0.64501953125
453, 3760577339, -5.1905083656311035, -1.595230221748352, 8.007803916931152, -0.13887204229831696, -0.4757942855358124, -1.5116742849349976, 0.71337890625, 0.0390625, -0.644287109375
454, 3760594006, -5.213050365447998, -1.6699976921081543, 7.99812126159668, -0.16010500490665436, -0.44957974553108215, -1.571159839630127, 0.71142578125, 0.0390625, -0.643798828125
455, 3760610673, -5.164180278778076, -1.6577316522598267, 8.016911506652832, -0.25963592529296875, -0.2833660840988159, -1.527297854423523, 0.71044921875, 0.0390625, -0.6435546875
456, 3760627340, -5.199453830718994, -1.6369510889053345, 8.002872467041016, -0.11564134806394577, -0.22212614119052887, -1.4090571403503418, 0.7109375, 0.03759765625, -0.643798828125
457, 3760644007, -5.206914901733398, -1.6854854822158813, 8.005807876586914, -0.05040578916668892, -0.3097599744796753, -1.4126172065734863, 0.7109375, 0.03759765625, -0.640380859375
458, 3760660674, -5.205954074859619, -1.647301197052002, 8.026863098144531, -0.10932780802249908, -0.32788097858428955, -1.4353100061416626, 0.7109375, 0.03759765625, -0.643310546875
459, 3760677341, -5.195103645324707, -1.6237925291061401, 8.026751518249512, -0.042632341384887695, -0.33829253911972046, -1.3572938442230225, 0.71142578125, 0.03759765625, -0.644287109375
460, 3760694008, -5.2183518409729, -1.6473311185836792, 8.00493049621582, -0.1276921182870865, -0.3239750564098358, -1.4056251049041748, 0.71240234375, 0.037109375, -0.640869140625
461, 3760710675, -5.205534934997559, -1.653833270072937, 7.99368143081665, -0.0824216678738594, -0.41867804527282715, -1.4468870162963867, 0.71240234375, 0.037109375, -0.641845703125
462, 3760727342, -5.210740566253662, -1.6424143314361572, 8.011565208435059, -0.10625427961349487, -0.4357873201370239, -1.382343053817749, 0.7119140625, 0.0380859375, -0.640869140625
463, 3760744009, -5.202479839324951, -1.669651985168457, 8.026329040527344, -0.25678011775016785, -0.41811448335647583, -1.474292516708374, 0.7119140625, 0.037109375, -0.641845703125
464, 3760760676, -5.181767463684082, -1.6123814582824707, 8.025846481323242, -0.3131280243396759, -0.22932328283786774, -1.4484877586364746, 0.7119140625, 0.0390625, -0.642822265625
465, 3760777343, -5.183997631072998, -1.625685691833496, 8.006470680236816, -0.5304134488105774, -0.037625059485435486, -1.6421327590942383, 0.71240234375, 0.0380859375, -0.640380859375
466, 3760794010, -5.18545389175415, -1.6203831434249878, 7.999138832092285, -0.5148025155067444, 0.020150793716311455, -1.7022584676742554, 0.71435546875, 0.03857421875, -0.63916015625
467, 3760810677, -5.171097278594971, -1.6851894855499268, 8.01008129119873, -0.41908779740333557, 0.04614768177270889, -1.4853445291519165, 0.71044921875, 0.0361328125, -0.640869140625
468, 3760827344, -5.191054344177246, -1.6303794384002686, 7.984378337860107, -0.48568081855773926, 0.1200595423579216, -1.5058602094650269, 0.71240234375, 0.0380859375, -0.640380859375
469, 3760844011, -5.204206943511963, -1.602315068244934, 8.0130033493042, -0.8070945143699646, 0.33599379658699036, -1.682869553565979, 0.714599609375, 0.0361328125, -0.642822265625
470, 3760860678, -5.220893383026123, -1.6094359159469604, 8.000260353088379, -0.9631655216217041, 0.35475510358810425, -1.8161835670471191, 0.7119140625, 0.0390625, -0.639404296875
471, 3760877345, -5.221744537353516, -1.6204496622085571, 8.006830215454102, -1.0281963348388672, 0.40067869424819946, -2.0144007205963135, 0.7119140625, 0.03857421875, -0.640380859375
472, 3760894012, -5.2211737632751465, -1.6491132974624634, 8.008977890014648, -1.046842336654663, 0.2709503769874573, -2.0293326377868652, 0.71142578125, 0.0380859375, -0.640380859375
473, 3760910679, -5.220139980316162, -1.6484897136688232, 8.008244514465332, -1.196479320526123, 0.131394624710083, -2.0469744205474854, 0.71435546875, 0.03857421875, -0.63916015625
474, 3760927346, -5.2007670402526855, -1.663511037826538, 7.976868152618408, -1.0230865478515625, -0.02521570213139057, -1.9959849119186401, 0.71142578125, 0.040283203125, -0.640380859375
475, 3760944013, -5.2493462562561035, -1.6083998680114746, 8.001082420349121, -0.8437592387199402, -0.29064011573791504, -1.9233473539352417, 0.712890625, 0.040283203125, -0.640380859375
476, 3760960680, -5.201076030731201, -1.694032073020935, 7.974025249481201, -0.6197889447212219, -0.2289903461933136, -1.8213062286376953, 0.7119140625, 0.037109375, -0.640869140625
477, 3760977347, -5.220325469970703, -1.669816493988037, 7.97667121887207, -0.5925882458686829, -0.4073827862739563, -1.6706907749176025, 0.71142578125, 0.03857421875, -0.63916015625
478, 3760994014, -5.229969024658203, -1.635490894317627, 7.9792561531066895, -0.26099345088005066, -0.6301109194755554, -1.6474089622497559, 0.7138671875, 0.0380859375, -0.640625
479, 3761010681, -5.230752944946289, -1.6539636850357056, 7.982624053955078, -0.11693479120731354, -0.8412363529205322, -1.6065438985824585, 0.71435546875, 0.040283203125, -0.641845703125
480, 3761027348, -5.227726936340332, -1.679046630859375, 7.993897438049316, -0.14101073145866394, -0.8863146901130676, -1.541615605354309, 0.71533203125, 0.03857421875, -0.640625
481, 3761044015, -5.247466087341309, -1.637773871421814, 8.003029823303223, -0.14914275705814362, -1.2208037376403809, -1.659818172454834, 0.71435546875, 0.0380859375, -0.640625
482, 3761060682, -5.2279815673828125, -1.62836492061615, 7.993871212005615, -0.20545227825641632, -1.1862778663635254, -1.751626968383789, 0.712890625, 0.039306640625, -0.641845703125
483, 3761077349, -5.199353218078613, -1.6494466066360474, 8.00538158416748, -0.2356368601322174, -1.2758711576461792, -1.8191421031951904, 0.712890625, 0.0380859375, -0.64013671875
484, 3761094016, -5.216466903686523, -1.6655839681625366, 8.006657600402832, -0.2554354667663574, -1.2242871522903442, -1.6984550952911377, 0.71240234375, 0.03857421875, -0.638671875
485, 3761110683, -5.204441547393799, -1.6508859395980835, 8.010072708129883, -0.21982097625732422, -1.0213191509246826, -1.6321436166763306, 0.712890625, 0.0390625, -0.640380859375
486, 3761127350, -5.198251247406006, -1.6350526809692383, 7.9993977546691895, -0.28337883949279785, -0.9310470819473267, -1.6597411632537842, 0.71484375, 0.03857421875, -0.6396484375
487, 3761144017, -5.198587894439697, -1.6169005632400513, 7.992015838623047, -0.2992843687534332, -0.8082215189933777, -1.830142617225647, 0.71484375, 0.037109375, -0.64111328125
488, 3761160684, -5.1980366706848145, -1.6478379964828491, 8.005850791931152, -0.36653056740760803, -0.8325408101081848, -1.8876047134399414, 0.712890625, 0.039306640625, -0.6396484375
489, 3761177351, -5.216772556304932, -1.6667025089263916, 8.00495433807373, -0.47412949800491333, -0.7292063236236572, -1.8947378396987915, 0.71337890625, 0.0390625, -0.64013671875
490, 3761194018, -5.211869239807129, -1.6642920970916748, 7.99794340133667, -0.4458402097225189, -0.7463539838790894, -1.8143904209136963, 0.712890625, 0.039306640625, -0.640380859375
491, 3761210685, -5.197126865386963, -1.6598317623138428, 7.992548942565918, -0.30879950523376465, -0.8142020106315613, -1.7767913341522217, 0.71484375, 0.039794921875, -0.640625
492, 3761227352, -5.208864688873291, -1.6359710693359375, 8.002632141113281, -0.36939916014671326, -0.7741310000419617, -1.6445529460906982, 0.7138671875, 0.03759765625, -0.641845703125
493, 3761244019, -5.210966110229492, -1.6336688995361328, 8.022375106811523, -0.5054922103881836, -0.7739517092704773, -1.8106385469436646, 0.71484375, 0.041259765625, -0.642333984375
494, 3761260686, -5.205042839050293, -1.6420466899871826, 8.015843391418457, -0.5028797388076782, -0.5195792317390442, -1.89156174659729, 0.71240234375, 0.039794921875, -0.640869140625
495, 3761277353, -5.211065769195557, -1.6505903005599976, 7.990087032318115, -0.6563125848770142, -0.4924168884754181, -1.8386969566345215, 0.7119140625, 0.0390625, -0.640869140625
496, 3761294020, -5.2147698402404785, -1.6791411638259888, 8.004059791564941, -0.4935694932937622, -0.6755861043930054, -1.7891494035720825, 0.71240234375, 0.03759765625, -0.641845703125
497, 3761310687, -5.19821310043335, -1.664174199104309, 7.990349292755127, -0.31405016779899597, -0.7238789796829224, -1.6125373840332031, 0.7119140625, 0.040283203125, -0.640869140625
498, 3761327354, -5.206491947174072, -1.6580065488815308, 8.00724983215332, -0.23456108570098877, -0.7777935862541199, -1.6630196571350098, 0.7099609375, 0.037109375, -0.640869140625
499, 3761344021, -5.2204742431640625, -1.6570826768875122, 7.996081352233887, -0.26341375708580017, -0.7490561008453369, -1.656898021697998, 0.71240234375, 0.0380859375, -0.639892578125
500, 3761360688, -5.2179107666015625, -1.6439706087112427, 7.999887943267822, -0.2076549232006073, -0.8921157717704773, -1.6501362323760986, 0.71484375, 0.038818359375, -0.64013671875
501, 3761377355, -5.193683624267578, -1.6450459957122803, 8.020565032958984, -0.25617823004722595, -0.6634585857391357, -1.668962001800537, 0.71435546875, 0.039306640625, -0.641357421875
502, 3761394022, -5.211507797241211, -1.644454002380371, 8.005172729492188, -0.19760195910930634, -0.6958073973655701, -1.5731831789016724, 0.71337890625, 0.0390625, -0.641357421875
503, 3761410689, -5.21835470199585, -1.6487200260162354, 8.018991470336914, -0.15763337910175323, -0.699713408946991, -1.6089770793914795, 0.71240234375, 0.0390625, -0.639892578125
504, 3761427356, -5.192913055419922, -1.657605767250061, 8.007075309753418, -0.18205508589744568, -0.73172926902771, -1.5412700176239014, 0.712890625, 0.0380859375, -0.642822265625
505, 3761444023, -5.2105021476745605, -1.6440380811691284, 8.019179344177246, -0.2536937892436981, -0.5833805203437805, -1.6145094633102417, 0.71337890625, 0.039306640625, -0.641845703125
506, 3761460690, -5.2213921546936035, -1.6273421049118042, 7.989747524261475, -0.6634202003479004, -0.5983254313468933, -1.752753734588623, 0.7138671875, 0.03759765625, -0.641845703125
507, 3761477357, -5.203446388244629, -1.644229769706726, 8.034012794494629, -0.69834303855896, -0.38395997881889343, -1.8955062627792358, 0.712890625, 0.0390625, -0.641845703125
508, 3761494024, -5.2273268699646, -1.6564475297927856, 8.00979232788086, -0.6652385592460632, -0.5730072259902954, -1.7772393226623535, 0.71142578125, 0.039306640625, -0.641845703125
509, 3761510691, -5.199014663696289, -1.6429643630981445, 8.008871078491211, -0.8566296100616455, -0.6441850066184998, -1.8775901794433594, 0.71337890625, 0.039306640625, -0.640869140625
510, 3761527358, -5.2110137939453125, -1.6767724752426147, 7.987732887268066, -0.37970826029777527, -0.5675902366638184, -1.393510103225708, 0.71337890625, 0.040283203125, -0.641357421875
511, 3761544025, -5.203493118286133, -1.6478663682937622, 8.024602890014648, -0.22498194873332977, -0.6951030492782593, -1.3985941410064697, 0.712890625, 0.040283203125, -0.641845703125
512, 3761560692, -5.209758758544922, -1.6468106508255005, 8.016463279724121, -0.24773886799812317, -0.5947909355163574, -1.4594117403030396, 0.71142578125, 0.03857421875, -0.640869140625
513, 3761577359, -5.219712257385254, -1.6512091159820557, 8.016022682189941, -0.29352155327796936, -0.5743136405944824, -1.4527394771575928, 0.71337890625, 0.040771484375, -0.640869140625
514, 3761594026, -5.214869022369385, -1.6618605852127075, 8.005777359008789, -0.2992459535598755, -0.5201042890548706, -1.508857011795044, 0.71240234375, 0.039306640625, -0.642333984375
515, 3761610693, -5.207674026489258, -1.6063227653503418, 7.994889736175537, -0.2925226390361786, -0.5736988186836243, -1.4640475511550903, 0.71142578125, 0.0390625, -0.640380859375
516, 3761627360, -5.22338342666626, -1.6627627611160278, 7.991677284240723, -0.2512093484401703, -0.5431301593780518, -1.5661396980285645, 0.7138671875, 0.0380859375, -0.641357421875
517, 3761644027, -5.198846340179443, -1.676096796989441, 8.024164199829102, -0.45456141233444214, -0.6112727522850037, -1.6305686235427856, 0.71142578125, 0.03857421875, -0.642822265625
518, 3761660694, -5.203152656555176, -1.648653507232666, 8.015640258789062, -0.45577794313430786, -0.3900429606437683, -1.6356909275054932, 0.71240234375, 0.037109375, -0.639892578125
519, 3761677361, -5.2126688957214355, -1.6358388662338257, 8.017022132873535, -0.7641419768333435, -0.16979938745498657, -1.9399698972702026, 0.71142578125, 0.039794921875, -0.640380859375
520, 3761694028, -5.201560974121094, -1.6814285516738892, 8.02486801147461, -0.6051000356674194, -0.035460781306028366, -1.916073203086853, 0.712890625, 0.0380859375, -0.6396484375
521, 3761710695, -5.218180179595947, -1.6621590852737427, 7.993875980377197, -0.38328126072883606, -0.03236164525151253, -1.7112998962402344, 0.712890625, 0.03759765625, -0.638671875
522, 3761727362, -5.217681884765625, -1.667786717414856, 7.982983589172363, -0.2173621654510498, -0.12200609594583511, -1.5757828950881958, 0.715576171875, 0.03759765625, -0.6416015625
523, 3761744029, -5.21719217300415, -1.658826231956482, 8.00112533569336, -0.1726936250925064, -0.11784403026103973, -1.4607946872711182, 0.71435546875, 0.0361328125, -0.641357421875
524, 3761760696, -5.20433235168457, -1.6473082304000854, 7.991949081420898, -0.15632711350917816, -0.0401863269507885, -1.5239813327789307, 0.7138671875, 0.03759765625, -0.641357421875
525, 3761777363, -5.224593639373779, -1.6480615139007568, 8.01320743560791, -0.17845648527145386, 0.057327624410390854, -1.5479931831359863, 0.71484375, 0.0380859375, -0.640625
526, 3761794030, -5.230527877807617, -1.6268237829208374, 7.99483585357666, -0.1611679047346115, 0.18138273060321808, -1.3815873861312866, 0.7138671875, 0.0380859375, -0.640625
527, 3761810697, -5.21471643447876, -1.6572505235671997, 7.986314296722412, -0.15148630738258362, 0.19974705576896667, -1.3532854318618774, 0.71337890625, 0.0380859375, -0.638671875
528, 3761827364, -5.232180595397949, -1.6497923135757446, 7.984936714172363, -0.09534326940774918, 0.22141538560390472, -1.2669703960418701, 0.712890625, 0.0390625, -0.63916015625
529, 3761844031, -5.226937294006348, -1.621962070465088, 7.976212978363037, -0.04165905714035034, 0.050360970199108124, -1.1721525192260742, 0.7138671875, 0.0380859375, -0.63916015625
530, 3761860698, -5.231943607330322, -1.6451572179794312, 7.9659318923950195, -0.09048967063426971, -0.09956936538219452, -1.2487727403640747, 0.71533203125, 0.0380859375, -0.64111328125
531, 3761877365, -5.235497951507568, -1.649401068687439, 7.981180667877197, 0.011468086391687393, -0.03003089129924774, -1.2512060403823853, 0.71435546875, 0.03564453125, -0.63818359375
532, 3761894032, -5.233613014221191, -1.654496669769287, 7.975550174713135, 0.03344378620386124, -0.10895643383264542, -1.2170130014419556, 0.7158203125, 0.038818359375, -0.640625
533, 3761910699, -5.235846042633057, -1.6340872049331665, 7.999339580535889, 0.17920564115047455, -0.1447373330593109, -1.1315817832946777, 0.7158203125, 0.039306640625, -0.64111328125
534, 3761927366, -5.248960494995117, -1.6164178848266602, 8.00100326538086, -0.26433587074279785, -0.1873825192451477, -1.1755973100662231, 0.71435546875, 0.0361328125, -0.63916015625
535, 3761944033, -5.191098213195801, -1.6025958061218262, 8.01278018951416, -0.8507769107818604, -0.07245831936597824, -1.8017635345458984, 0.71484375, 0.03662109375, -0.6396484375
536, 3761960700, -5.229831218719482, -1.6793546676635742, 7.969766139984131, -0.1427908092737198, 0.14187516272068024, -1.3034430742263794, 0.71533203125, 0.03857421875, -0.638671875
537, 3761977367, -5.231280326843262, -1.6348953247070312, 7.986316680908203, -0.34196799993515015, 0.2483343482017517, -1.4406503438949585, 0.715576171875, 0.037109375, -0.64111328125
538, 3761994034, -5.242994785308838, -1.6580522060394287, 7.964550018310547, 0.09552896022796631, 0.3176422417163849, -1.1231679916381836, 0.71533203125, 0.03515625, -0.63720703125
539, 3762010701, -5.237173080444336, -1.6640996932983398, 7.975728511810303, 0.2711808383464813, 0.21982738375663757, -1.0419117212295532, 0.7138671875, 0.037109375, -0.638671875
540, 3762027368, -5.259302616119385, -1.6190741062164307, 8.004633903503418, 0.22817714512348175, 0.23943394422531128, -0.9370406866073608, 0.71484375, 0.0361328125, -0.64013671875
541, 3762044035, -5.250744819641113, -1.6344527006149292, 8.000873565673828, 0.1331668198108673, 0.22899673879146576, -1.0063997507095337, 0.717041015625, 0.03564453125, -0.63818359375
542, 3762060702, -5.259685516357422, -1.6063554286956787, 7.986866474151611, -0.7592372298240662, 0.6321662068367004, -1.0550254583358765, 0.71533203125, 0.03662109375, -0.635498046875
543, 3762077369, -5.259151935577393, -1.6219605207443237, 7.971517086029053, -0.13114984333515167, 0.10492883622646332, -1.18138587474823, 0.71484375, 0.0361328125, -0.63720703125
544, 3762094036, -5.251653671264648, -1.6162062883377075, 7.998307704925537, -0.38530465960502625, 0.19219128787517548, -1.2506297826766968, 0.71533203125, 0.03564453125, -0.636962890625
545, 3762110703, -5.246523380279541, -1.6521008014678955, 7.964326858520508, 0.01524687372148037, 0.19179297983646393, -1.1437268257141113, 0.71484375, 0.0341796875, -0.6376953125
546, 3762127370, -5.269082069396973, -1.603875756263733, 7.988847255706787, -0.168800488114357, 0.29761311411857605, -1.0670121908187866, 0.716552734375, 0.033447265625, -0.637451171875
547, 3762144037, -5.2705278396606445, -1.65066659450531, 7.965826511383057, -0.0996590182185173, 0.41046273708343506, -1.0814067125320435, 0.716064453125, 0.03466796875, -0.637939453125
548, 3762160704, -5.2822794914245605, -1.6012201309204102, 7.9710693359375, -0.21925750374794006, 0.3825320601463318, -1.0919846296310425, 0.71533203125, 0.03564453125, -0.6376953125
549, 3762177371, -5.2987871170043945, -1.6175143718719482, 7.977719783782959, -0.33890724182128906, 0.30944621562957764, -1.3186185359954834, 0.715576171875, 0.03515625, -0.636962890625
550, 3762194038, -5.340383529663086, -1.518272042274475, 7.991852760314941, -1.0838524103164673, 0.07944416999816895, -1.4639960527420044, 0.717529296875, 0.03515625, -0.635498046875
551, 3762210705, -5.354203224182129, -1.4865219593048096, 7.995682239532471, -1.8294254541397095, 0.06000414490699768, -2.0323293209075928, 0.717529296875, 0.0361328125, -0.636474609375
552, 3762227372, -5.391719818115234, -1.5835288763046265, 7.978434085845947, -2.4656450748443604, -0.1677888184785843, -2.9320781230926514, 0.717041015625, 0.0361328125, -0.636474609375
553, 3762244039, -5.2972798347473145, -1.6732447147369385, 7.972904205322266, -2.660365343093872, -0.22148580849170685, -3.448033094406128, 0.718017578125, 0.03662109375, -0.634521484375
554, 3762260706, -5.188159465789795, -1.6997417211532593, 7.9405927658081055, -2.1145591735839844, 0.043560802936553955, -3.179983377456665, 0.716552734375, 0.037109375, -0.637451171875
555, 3762277373, -5.1768622398376465, -1.6891164779663086, 8.091612815856934, -1.8416427373886108, 1.6743468046188354, -2.674401044845581, 0.717041015625, 0.0361328125, -0.635498046875
556, 3762294040, -5.1087751388549805, -1.6507354974746704, 8.034029006958008, -2.107964038848877, 4.183009147644043, -2.2694520950317383, 0.719970703125, 0.037841796875, -0.63330078125
557, 3762310707, -5.1536993980407715, -1.6477816104888916, 8.0335054397583, -2.883747100830078, 6.619315147399902, -2.3703274726867676, 0.720947265625, 0.039794921875, -0.63037109375
558, 3762327374, -5.143577575683594, -1.697263240814209, 8.010869979858398, -3.0835139751434326, 8.177011489868164, -2.4822301864624023, 0.722412109375, 0.037841796875, -0.6328125
559, 3762344041, -5.179992198944092, -1.7766622304916382, 7.9649882316589355, -2.684147596359253, 10.570652961730957, -2.781975269317627, 0.722412109375, 0.039306640625, -0.628662109375
560, 3762360708, -5.117952346801758, -1.8044873476028442, 8.159430503845215, -1.384918451309204, 15.488007545471191, -1.5392733812332153, 0.72705078125, 0.040283203125, -0.62548828125
561, 3762377375, -4.82937479019165, -2.065011978149414, 8.345803260803223, -3.9209914207458496, 22.615625381469727, 2.2550039291381836, 0.7314453125, 0.04150390625, -0.622314453125
562, 3762394042, -5.133233547210693, -1.6504446268081665, 8.32199478149414, -2.8502683639526367, 31.706722259521484, 4.195881366729736, 0.736572265625, 0.041015625, -0.61376953125
563, 3762410709, -4.761080265045166, -2.068351984024048, 8.370099067687988, -3.022470235824585, 39.80057144165039, 7.706349849700928, 0.7451171875, 0.0380859375, -0.603759765625
564, 3762427376, -4.850250720977783, -1.9483366012573242, 8.530838966369629, -0.910053551197052, 50.53158950805664, 11.658583641052246, 0.750732421875, 0.033935546875, -0.596435546875
565, 3762444043, -5.094629764556885, -2.0724353790283203, 8.605813980102539, -0.1601712852716446, 61.416542053222656, 15.951847076416016, 0.762939453125, 0.029052734375, -0.58203125
566, 3762460710, -5.726983547210693, -1.7520440816879272, 8.543656349182129, 1.7378089427947998, 76.1778793334961, 22.61503028869629, 0.77490234375, 0.026123046875, -0.56640625
567, 3762477377, -5.4714741706848145, -2.5304951667785645, 8.948345184326172, -2.6418159008026123, 89.72454071044922, 30.98691177368164, 0.78759765625, 0.0185546875, -0.54638671875
568, 3762494044, -5.285637378692627, -2.670790910720825, 9.473167419433594, 2.8133442401885986, 101.42872619628906, 36.8033332824707, 0.807861328125, 0.009521484375, -0.52294921875
569, 3762510711, -4.982056140899658, -2.2022266387939453, 10.267641067504883, 5.715602874755859, 101.12238311767578, 39.484622955322266, 0.822265625, -2.44140625E-4, -0.500244140625
570, 3762527378, -2.2095227241516113, -1.9747081995010376, 13.005447387695312, 5.447980880737305, 93.52662658691406, 43.59767532348633, 0.83837890625, -0.013427734375, -0.4775390625
571, 3762544045, -0.7350917458534241, -2.278881311416626, 14.66955280303955, -1.0544439554214478, 62.12439727783203, 40.25687789916992, 0.849609375, -0.0244140625, -0.4580078125
572, 3762560712, 1.433391809463501, -3.701169013977051, 14.364782333374023, -3.612257480621338, 27.52928352355957, 29.927146911621094, 0.853759765625, -0.03076171875, -0.45068359375
573, 3762577379, 2.7373087406158447, -3.522630453109741, 14.088400840759277, -2.9734323024749756, 2.3188414573669434, 17.373859405517578, 0.85546875, -0.039306640625, -0.446044921875
574, 3762594046, 2.764437437057495, -3.4708762168884277, 13.98787784576416, -10.425386428833008, -19.873430252075195, 1.8174868822097778, 0.851806640625, -0.03955078125, -0.453125
575, 3762610713, 2.168328285217285, -3.4964921474456787, 13.906845092773438, -11.355367660522461, -42.008724212646484, -10.374664306640625, 0.849365234375, -0.035888671875, -0.464111328125
576, 3762627380, 1.340692400932312, -3.072969675064087, 13.659674644470215, -9.696470260620117, -63.607852935791016, -19.983409881591797, 0.83984375, -0.03173828125, -0.476318359375
577, 3762644047, 0.35706567764282227, -2.716341257095337, 13.31290054321289, -9.227885246276855, -81.940185546875, -26.497167587280273, 0.82958984375, -0.022705078125, -0.4951171875
578, 3762660714, -0.9463711977005005, -2.3857264518737793, 13.13314151763916, -8.86911678314209, -97.05142974853516, -29.687328338623047, 0.8154296875, -0.01513671875, -0.52099609375
579, 3762677381, -2.472017526626587, -2.351591110229492, 13.371679306030273, -9.198431968688965, -111.54930877685547, -30.940732955932617, 0.798828125, -0.006591796875, -0.544677734375
580, 3762694048, -4.173798084259033, -2.219771385192871, 13.568024635314941, -12.857436180114746, -127.62274169921875, -32.98720169067383, 0.776123046875, 0.001708984375, -0.571533203125
581, 3762710715, -5.25589656829834, -2.193551778793335, 12.917741775512695, -13.616395950317383, -144.74925231933594, -33.784481048583984, 0.754150390625, 0.012451171875, -0.604248046875
582, 3762727382, -5.3728346824646, -1.8921620845794678, 11.594491004943848, -13.385342597961426, -153.67669677734375, -32.37664031982422, 0.724853515625, 0.021728515625, -0.634521484375
583, 3762744049, -5.264349460601807, -1.787457823753357, 10.285167694091797, -14.989176750183105, -151.27505493164062, -29.674819946289062, 0.69287109375, 0.029052734375, -0.66845703125
584, 3762760716, -5.63547945022583, -1.8817425966262817, 9.855156898498535, -18.661298751831055, -141.7592010498047, -27.564760208129883, 0.662109375, 0.0380859375, -0.69921875
585, 3762777383, -6.66463041305542, -2.358731985092163, 10.20193099975586, -21.244470596313477, -132.66436767578125, -28.136987686157227, 0.634765625, 0.047119140625, -0.721435546875
586, 3762794050, -7.601075649261475, -2.951023578643799, 10.48394775390625, -18.745471954345703, -130.55555725097656, -31.7650203704834, 0.605712890625, 0.057373046875, -0.743408203125
587, 3762810717, -8.006876945495605, -3.3196849822998047, 10.106709480285645, -12.80239486694336, -132.14060974121094, -38.286067962646484, 0.57275390625, 0.06689453125, -0.770263671875
588, 3762827384, -8.705410957336426, -3.2698140144348145, 9.167202949523926, -9.292807579040527, -134.9335174560547, -48.19087600708008, 0.54150390625, 0.077392578125, -0.7919921875
589, 3762844051, -8.889856338500977, -2.9600837230682373, 7.783109188079834, -6.398326396942139, -136.25167846679688, -56.47822189331055, 0.509033203125, 0.08642578125, -0.810546875
590, 3762860718, -8.588566780090332, -2.1432511806488037, 6.134693145751953, -5.377910614013672, -131.64920043945312, -59.409873962402344, 0.47509765625, 0.09619140625, -0.8310546875
591, 3762877385, -8.258448600769043, -1.0160801410675049, 4.468471050262451, -8.324052810668945, -116.55216979980469, -54.623477935791016, 0.44091796875, 0.105224609375, -0.84619140625
592, 3762894052, -8.601884841918945, 0.03237656131386757, 3.4343011379241943, -16.442848205566406, -95.33238983154297, -44.94846725463867, 0.413818359375, 0.11572265625, -0.861083984375
593, 3762910719, -9.212658882141113, 0.9190850853919983, 2.712454319000244, -25.706462860107422, -77.33186340332031, -31.226184844970703, 0.392333984375, 0.124755859375, -0.868408203125
594, 3762927386, -9.709433555603027, 1.3136705160140991, 2.1136999130249023, -31.863718032836914, -62.26594543457031, -13.741253852844238, 0.375, 0.136962890625, -0.873779296875
595, 3762944053, -9.947674751281738, 1.114995002746582, 1.2210144996643066, -30.374656677246094, -45.76748275756836, 7.483734130859375, 0.36376953125, 0.1416015625, -0.880859375
596, 3762960720, -10.143455505371094, 0.6763078570365906, 0.5858791470527649, -25.892515182495117, -25.003454208374023, 25.2394962310791, 0.35693359375, 0.14697265625, -0.881103515625
597, 3762977387, -10.359453201293945, -0.32072463631629944, 0.5159589052200317, -23.033231735229492, -2.5386950969696045, 34.62692642211914, 0.349853515625, 0.148681640625, -0.8779296875
598, 3762994054, -10.712727546691895, -1.5031999349594116, 0.8892806172370911, -16.094032287597656, 16.669496536254883, 35.39854049682617, 0.35986328125, 0.148681640625, -0.87548828125
599, 3763010721, -11.023702621459961, -2.170243978500366, 1.1613869667053223, -5.971397876739502, 33.04706573486328, 28.15044593811035, 0.3701171875, 0.148193359375, -0.87451171875
600, 3763027388, -11.239823341369629, -2.248528003692627, 1.2264442443847656, 5.503898620605469, 50.8068733215332, 16.389278411865234, 0.380859375, 0.144775390625, -0.86962890625
601, 3763044055, -4.293717861175537, -2.959568977355957, 4.734877586364746, 11.57310962677002, 75.0784912109375, 4.611679553985596, 0.397705078125, 0.141357421875, -0.8623046875
602, 3763060722, 19.159658432006836, -10.20521354675293, 27.116554260253906, 58.6505126953125, 95.05563354492188, 31.594539642333984, 0.4248046875, 0.126708984375, -0.85205078125
603, 3763077389, 1.2388415336608887, 0.06315663456916809, -1.7912805080413818, 60.028770446777344, 161.30873107910156, 70.28565216064453, 0.4580078125, 0.101318359375, -0.8359375
604, 3763094056, -19.996875762939453, -3.4229767322540283, 15.164618492126465, 3.4608278274536133, 200.23043823242188, -21.1848201751709, 0.51025390625, 0.09814453125, -0.805419921875
605, 3763110723, -7.002976894378662, -0.6295945048332214, 13.055045127868652, 25.46287727355957, 123.81420135498047, -18.737537384033203, 0.543212890625, 0.096923828125, -0.785888671875
606, 3763127390, -4.634037971496582, 4.607483863830566, 10.768844604492188, 9.180094718933105, 121.18692779541016, 14.688292503356934, 0.57421875, 0.091796875, -0.765869140625
607, 3763144057, -4.530220985412598, 1.194484829902649, 9.848323822021484, -6.8785176277160645, 107.02152252197266, 32.074424743652344, 0.6005859375, 0.086181640625, -0.74658203125
608, 3763160724, -5.970911502838135, -3.7223267555236816, 8.106084823608398, -5.463655948638916, 101.05577850341797, 45.307594299316406, 0.62646484375, 0.080810546875, -0.729736328125
609, 3763177391, -8.116705894470215, -7.53061580657959, 7.994911193847656, 15.677427291870117, 89.78060913085938, 31.65290069580078, 0.645751953125, 0.06982421875, -0.711669921875
610, 3763194058, -7.080628395080566, -3.5642285346984863, 8.918496131896973, 35.29851150512695, 80.5383529663086, 15.74595832824707, 0.66259765625, 0.05908203125, -0.696044921875
611, 3763210725, -6.695406913757324, -0.01278780773282051, 10.201420783996582, 33.059654235839844, 72.48992156982422, 21.681447982788086, 0.678955078125, 0.047607421875, -0.681396484375
612, 3763227392, -13.355600357055664, -2.2360048294067383, 11.588807106018066, 49.27960205078125, 13.668893814086914, 23.46198081970215, 0.685302734375, 0.03271484375, -0.676513671875
613, 3763244059, -5.129491329193115, 0.7658991813659668, 9.886192321777344, 17.340070724487305, 8.299275398254395, 6.51341438293457, 0.689208984375, 0.0244140625, -0.67724609375
614, 3763260726, -6.080696105957031, -1.5501196384429932, 8.739452362060547, 4.581927299499512, 10.756832122802734, -1.047879934310913, 0.690185546875, 0.0234375, -0.6748046875
615, 3763277393, -5.697877407073975, -1.5514825582504272, 8.409672737121582, -2.9250354766845703, 8.404048919677734, -5.509345054626465, 0.693603515625, 0.025390625, -0.67138671875
616, 3763294060, -5.201426029205322, -1.3822336196899414, 8.465909957885742, -6.089409351348877, 8.558019638061523, -6.893340587615967, 0.695068359375, 0.027099609375, -0.66796875
617, 3763310727, -4.952033519744873, -1.366887092590332, 8.299891471862793, -9.992237091064453, 9.462348937988281, -7.808391094207764, 0.697021484375, 0.028564453125, -0.666748046875
618, 3763327394, -4.867721080780029, -1.7184962034225464, 8.132683753967285, -12.652022361755371, 11.166118621826172, -8.139212608337402, 0.698486328125, 0.033203125, -0.664794921875
619, 3763344061, -4.936565399169922, -1.834713339805603, 8.065605163574219, -12.299565315246582, 11.621053695678711, -6.841826438903809, 0.700927734375, 0.036865234375, -0.663330078125
620, 3763360728, -5.117490291595459, -1.746813178062439, 8.033224105834961, -11.964433670043945, 11.414522171020508, -6.1960768699646, 0.702880859375, 0.03955078125, -0.66015625
621, 3763377395, -5.036393165588379, -2.0748214721679688, 7.8711957931518555, -10.519925117492676, 10.045686721801758, -5.025650978088379, 0.703369140625, 0.043212890625, -0.657958984375
622, 3763394062, -5.049748420715332, -2.18562650680542, 7.898334503173828, -7.240868091583252, 9.096360206604004, -2.544827938079834, 0.70947265625, 0.044677734375, -0.6552734375
623, 3763410729, -5.225919246673584, -2.0570120811462402, 7.848188877105713, -4.666173458099365, 7.36447811126709, -0.6338631510734558, 0.71142578125, 0.04541015625, -0.654296875
624, 3763427396, -5.175222873687744, -2.0644285678863525, 7.884329319000244, -2.211387872695923, 5.744692325592041, 1.1117641925811768, 0.7119140625, 0.044921875, -0.650146484375
625, 3763444063, -5.135791301727295, -2.0287697315216064, 7.917118549346924, 0.5975635051727295, 4.144935131072998, 2.8339622020721436, 0.7119140625, 0.04443359375, -0.650634765625
626, 3763460730, -5.2616868019104, -1.966749668121338, 7.886368751525879, 3.174880027770996, 2.6349642276763916, 4.379740238189697, 0.7119140625, 0.043212890625, -0.650634765625
627, 3763477397, -5.070040225982666, -2.035033702850342, 7.833553314208984, 5.4837260246276855, 1.6399496793746948, 6.023500919342041, 0.712890625, 0.039794921875, -0.64892578125
628, 3763494064, -4.999948978424072, -1.980610966682434, 7.9261956214904785, 7.15327787399292, 0.9839058518409729, 8.43931770324707, 0.714599609375, 0.03564453125, -0.6494140625
629, 3763510731, -4.846893787384033, -1.9581307172775269, 7.947478771209717, 7.845092296600342, 2.828098773956299, 10.674758911132812, 0.714111328125, 0.032470703125, -0.6474609375
630, 3763527398, -4.8264055252075195, -1.8804963827133179, 8.098590850830078, 8.232688903808594, 6.407847881317139, 13.424427032470703, 0.71728515625, 0.029541015625, -0.646728515625
631, 3763544065, -5.108034610748291, -1.6316651105880737, 8.114702224731445, 7.570273399353027, 11.653840065002441, 14.99242115020752, 0.71923828125, 0.0244140625, -0.6435546875
632, 3763560732, -5.143554210662842, -1.8066309690475464, 8.135544776916504, 5.595676422119141, 17.147361755371094, 17.67555046081543, 0.722900390625, 0.015625, -0.64111328125
633, 3763577399, -5.244429111480713, -1.5912621021270752, 8.098490715026855, 2.4682469367980957, 24.489009857177734, 20.41252899169922, 0.72802734375, 0.012939453125, -0.635498046875
634, 3763594066, -4.763341426849365, -1.973176121711731, 8.486371994018555, -2.056995153427124, 34.48283004760742, 26.326372146606445, 0.732666015625, 0.00634765625, -0.6298828125
635, 3763610733, -4.7037577629089355, -1.7116731405258179, 8.794363021850586, -6.711483478546143, 50.83087158203125, 30.964527130126953, 0.742919921875, 7.32421875E-4, -0.621826171875
636, 3763627400, -4.7809929847717285, -1.213752269744873, 9.062518119812012, -8.1209077835083, 73.51301574707031, 30.853607177734375, 0.755126953125, -0.0078125, -0.60546875
637, 3763644067, -5.117054462432861, -0.7735487222671509, 8.855999946594238, -8.889571189880371, 102.93374633789062, 23.069374084472656, 0.771728515625, -0.01171875, -0.5849609375
638, 3763660734, -5.34724235534668, -0.45678481459617615, 8.917819023132324, -12.108105659484863, 135.9892120361328, 14.301807403564453, 0.79248046875, -0.011962890625, -0.553466796875
639, 3763677401, -5.320438861846924, -1.4051921367645264, 9.137162208557129, -18.836164474487305, 178.4788818359375, 12.059944152832031, 0.81884765625, -0.01416015625, -0.513671875
640, 3763694068, -5.112096786499023, -2.717153549194336, 9.480016708374023, -21.63344955444336, 225.7130889892578, 25.89446258544922, 0.8515625, -0.01416015625, -0.4638671875
641, 3763710735, -5.362577438354492, -2.0800435543060303, 8.623306274414062, -20.590139389038086, 281.078125, 47.36393737792969, 0.8876953125, -0.02294921875, -0.395263671875
642, 3763727402, -5.726021766662598, -2.408407688140869, 9.457381248474121, -20.885263442993164, 358.5465087890625, 68.85595703125, 0.922607421875, -0.04052734375, -0.30517578125
643, 3763744069, -8.394441604614258, -4.833686351776123, 12.07845401763916, -12.351433753967285, 428.7594299316406, 105.34928894042969, 0.95361328125, -0.065185546875, -0.1904296875
644, 3763760736, -11.017828941345215, -5.972989082336426, 11.683802604675293, -26.019195556640625, 468.15203857421875, 150.28073120117188, 0.972412109375, -0.105224609375, -0.0625
645, 3763777403, -20.867408752441406, -5.768224239349365, 15.637516021728516, -51.89125442504883, 461.2903137207031, 170.27374267578125, 0.970947265625, -0.155517578125, 0.06689453125
646, 3763794070, -23.52269744873047, -7.25651216506958, 19.83548355102539, -58.370121002197266, 404.43585205078125, 152.79364013671875, 0.951904296875, -0.201171875, 0.1826171875
647, 3763810737, -14.102888107299805, -8.983118057250977, 18.539775848388672, -38.012142181396484, 314.44580078125, 166.5306396484375, 0.9228515625, -0.24853515625, 0.266357421875
648, 3763827404, -6.791529655456543, -13.612434387207031, 12.04576587677002, 64.00971221923828, 294.0513000488281, 191.94927978515625, 0.884765625, -0.297119140625, 0.345458984375
